"","date","time","subject","blockcode","trialcode","trialnum","response","latency","imageName","responsetext","scene_category","correct_response","aesthetic_condition","semantic_condition","ImageID","categorization_accuracy"
"1","2023-04-13","00:59:05","5c842b246a4b9b0014c84c30","categorize","categorize",1,"36",1635,"highways_00329_top.png","J","highways","37","top","top","highways_00329",0
"2","2023-04-13","00:59:05","5c842b246a4b9b0014c84c30","categorize","categorize",2,"31",1760,"beaches_00126_top.png","S","beaches","31","top","top","beaches_00126",1
"3","2023-04-13","00:59:05","5c842b246a4b9b0014c84c30","categorize","categorize",3,"36",1000,"city_00138_top.png","J","city","36","top","top","city_00138",1
"4","2023-04-13","00:59:05","5c842b246a4b9b0014c84c30","categorize","categorize",4,"32",1822,"forests_00136_top.png","D","forests","32","top","top","forests_00136",1
"5","2023-04-13","00:59:05","5c842b246a4b9b0014c84c30","categorize","categorize",5,"33",659,"mountains_00257_top.png","F","mountains","33","top","top","mountains_00257",1
"6","2023-04-13","00:59:05","5c842b246a4b9b0014c84c30","categorize","categorize",6,"31",1568,"beaches_20081106_00066_bottom.png","S","beaches","31","bottom","bottom","beaches_20081106_00066",1
"7","2023-04-13","00:59:05","5c842b246a4b9b0014c84c30","categorize","categorize",7,"31",1406,"beaches_00265_top.png","S","beaches","31","top","top","beaches_00265",1
"8","2023-04-13","00:59:05","5c842b246a4b9b0014c84c30","categorize","categorize",8,"36",1716,"highways_00205_top.png","J","highways","37","top","top","highways_00205",0
"9","2023-04-13","00:59:05","5c842b246a4b9b0014c84c30","categorize","categorize",9,"38",8005,"offices_00484_top_inverted.png","L","offices","38","top","top_inverted","offices_00484",1
"10","2023-04-13","00:59:05","5c842b246a4b9b0014c84c30","categorize","categorize",10,"32",1563,"forests_00247_bottom.png","D","forests","32","bottom","bottom","forests_00247",1
"11","2023-04-13","00:59:05","5c842b246a4b9b0014c84c30","categorize","categorize",11,"31",1274,"beaches_00115_bottom.png","S","beaches","31","bottom","bottom","beaches_00115",1
"12","2023-04-13","00:59:05","5c842b246a4b9b0014c84c30","categorize","categorize",12,"32",1021,"forests_00119_top.png","D","forests","32","top","top","forests_00119",1
"13","2023-04-13","00:59:05","5c842b246a4b9b0014c84c30","categorize","categorize",13,"32",786,"forests_00195_top.png","D","forests","32","top","top","forests_00195",1
"14","2023-04-13","00:59:05","5c842b246a4b9b0014c84c30","categorize","categorize",14,"32",1033,"forests_00265_top.png","D","forests","32","top","top","forests_00265",1
"15","2023-04-13","00:59:05","5c842b246a4b9b0014c84c30","categorize","categorize",15,"33",1054,"mountains_00178_top.png","F","mountains","33","top","top","mountains_00178",1
"16","2023-04-13","00:59:05","5c842b246a4b9b0014c84c30","categorize","categorize",16,"36",954,"city_00219_bottom.png","J","city","36","bottom","bottom","city_00219",1
"17","2023-04-13","00:59:05","5c842b246a4b9b0014c84c30","categorize","categorize",17,"37",994,"highways_00208_top.png","K","highways","37","top","top","highways_00208",1
"18","2023-04-13","00:59:05","5c842b246a4b9b0014c84c30","categorize","categorize",18,"31",1872,"beaches_00179_top.png","S","beaches","31","top","top","beaches_00179",1
"19","2023-04-13","00:59:05","5c842b246a4b9b0014c84c30","categorize","categorize",19,"37",1923,"city_00309_bottom.png","K","city","36","bottom","bottom","city_00309",0
"20","2023-04-13","00:59:05","5c842b246a4b9b0014c84c30","categorize","categorize",20,"31",957,"beaches_00248_bottom.png","S","beaches","31","bottom","bottom","beaches_00248",1
"21","2023-04-13","00:59:05","5c842b246a4b9b0014c84c30","categorize","categorize",21,"31",1156,"beaches_20081106_00066_top.png","S","beaches","31","top","top","beaches_20081106_00066",1
"22","2023-04-13","00:59:05","5c842b246a4b9b0014c84c30","categorize","categorize",22,"33",3180,"mountains_00107_bottom.png","F","mountains","33","bottom","bottom","mountains_00107",1
"23","2023-04-13","00:59:05","5c842b246a4b9b0014c84c30","categorize","categorize",23,"37",1155,"highways_00220_bottom.png","K","highways","37","bottom","bottom","highways_00220",1
"24","2023-04-13","00:59:05","5c842b246a4b9b0014c84c30","categorize","categorize",24,"38",579,"offices_00243_top.png","L","offices","38","top","top","offices_00243",1
"25","2023-04-13","00:59:05","5c842b246a4b9b0014c84c30","categorize","categorize",25,"38",841,"offices_00282_top.png","L","offices","38","top","top","offices_00282",1
"26","2023-04-13","00:59:05","5c842b246a4b9b0014c84c30","categorize","categorize",26,"32",1294,"forests_00294_bottom.png","D","forests","32","bottom","bottom","forests_00294",1
"27","2023-04-13","00:59:05","5c842b246a4b9b0014c84c30","categorize","categorize",27,"37",1665,"highways_00146_bottom.png","K","highways","37","bottom","bottom","highways_00146",1
"28","2023-04-13","00:59:05","5c842b246a4b9b0014c84c30","categorize","categorize",28,"36",884,"city_00301_top.png","J","city","36","top","top","city_00301",1
"29","2023-04-13","00:59:05","5c842b246a4b9b0014c84c30","categorize","categorize",29,"31",9014,"mountains_00256_bottom.png","S","mountains","33","bottom","bottom","mountains_00256",0
"30","2023-04-13","00:59:05","5c842b246a4b9b0014c84c30","categorize","categorize",30,"32",851,"forests_00194_top.png","D","forests","32","top","top","forests_00194",1
"31","2023-04-13","00:59:05","5c842b246a4b9b0014c84c30","categorize","categorize",31,"33",7382,"beaches_00224_top.png","F","beaches","31","top","top","beaches_00224",0
"32","2023-04-13","00:59:05","5c842b246a4b9b0014c84c30","categorize","categorize",32,"33",966,"mountains_20081106_00096_top_inverted.png","F","mountains","33","top","top_inverted","mountains_20081106_00096",1
"33","2023-04-13","00:59:05","5c842b246a4b9b0014c84c30","categorize","categorize",33,"38",964,"offices_00304_top.png","L","offices","38","top","top","offices_00304",1
"34","2023-04-13","00:59:05","5c842b246a4b9b0014c84c30","categorize","categorize",34,"33",4859,"beaches_00250_top.png","F","beaches","31","top","top","beaches_00250",0
"35","2023-04-13","00:59:05","5c842b246a4b9b0014c84c30","categorize","categorize",35,"37",1103,"highways_00328_top.png","K","highways","37","top","top","highways_00328",1
"36","2023-04-13","00:59:05","5c842b246a4b9b0014c84c30","categorize","categorize",36,"32",1593,"forests_00136_bottom.png","D","forests","32","bottom","bottom","forests_00136",1
"37","2023-04-13","00:59:05","5c842b246a4b9b0014c84c30","categorize","categorize",37,"38",1183,"offices_00149_top.png","L","offices","38","top","top","offices_00149",1
"38","2023-04-13","00:59:05","5c842b246a4b9b0014c84c30","categorize","categorize",38,"37",1430,"highways_00322_top_inverted.png","K","highways","37","top","top_inverted","highways_00322",1
"39","2023-04-13","00:59:05","5c842b246a4b9b0014c84c30","categorize","categorize",39,"38",923,"offices_00184_bottom.png","L","offices","38","bottom","bottom","offices_00184",1
"40","2023-04-13","00:59:05","5c842b246a4b9b0014c84c30","categorize","categorize",40,"32",2948,"forests_00155_top.png","D","forests","32","top","top","forests_00155",1
"41","2023-04-13","00:59:05","5c842b246a4b9b0014c84c30","categorize","categorize",41,"37",1148,"city_00310_top.png","K","city","36","top","top","city_00310",0
"42","2023-04-13","00:59:05","5c842b246a4b9b0014c84c30","categorize","categorize",42,"32",1132,"forests_00247_top.png","D","forests","32","top","top","forests_00247",1
"43","2023-04-13","00:59:05","5c842b246a4b9b0014c84c30","categorize","categorize",43,"38",708,"offices_00281_top.png","L","offices","38","top","top","offices_00281",1
"44","2023-04-13","00:59:05","5c842b246a4b9b0014c84c30","categorize","categorize",44,"33",3614,"mountains_00223_bottom.png","F","mountains","33","bottom","bottom","mountains_00223",1
"45","2023-04-13","00:59:05","5c842b246a4b9b0014c84c30","categorize","categorize",45,"38",859,"offices_00122_bottom.png","L","offices","38","bottom","bottom","offices_00122",1
"46","2023-04-13","00:59:05","5c842b246a4b9b0014c84c30","categorize","categorize",46,"38",559,"offices_00124_bottom.png","L","offices","38","bottom","bottom","offices_00124",1
"47","2023-04-13","00:59:05","5c842b246a4b9b0014c84c30","categorize","categorize",47,"36",1815,"city_00272_bottom.png","J","city","36","bottom","bottom","city_00272",1
"48","2023-04-13","00:59:05","5c842b246a4b9b0014c84c30","categorize","categorize",48,"38",716,"offices_00282_bottom.png","L","offices","38","bottom","bottom","offices_00282",1
"49","2023-04-13","00:59:05","5c842b246a4b9b0014c84c30","categorize","categorize",49,"36",1878,"city_00294_bottom.png","J","city","36","bottom","bottom","city_00294",1
"50","2023-04-13","00:59:05","5c842b246a4b9b0014c84c30","categorize","categorize",50,"31",1041,"beaches_00193_bottom.png","S","beaches","31","bottom","bottom","beaches_00193",1
"51","2023-04-13","00:59:05","5c842b246a4b9b0014c84c30","categorize","categorize",51,"31",749,"beaches_00154_top.png","S","beaches","31","top","top","beaches_00154",1
"52","2023-04-13","00:59:05","5c842b246a4b9b0014c84c30","categorize","categorize",52,"38",717,"offices_00455_bottom.png","L","offices","38","bottom","bottom","offices_00455",1
"53","2023-04-13","00:59:05","5c842b246a4b9b0014c84c30","categorize","categorize",53,"32",711,"forests_00266_top.png","D","forests","32","top","top","forests_00266",1
"54","2023-04-13","00:59:05","5c842b246a4b9b0014c84c30","categorize","categorize",54,"38",785,"offices_00166_top.png","L","offices","38","top","top","offices_00166",1
"55","2023-04-13","00:59:05","5c842b246a4b9b0014c84c30","categorize","categorize",55,"31",831,"beaches_00179_bottom.png","S","beaches","31","bottom","bottom","beaches_00179",1
"56","2023-04-13","00:59:05","5c842b246a4b9b0014c84c30","categorize","categorize",56,"36",1676,"city_00218_top.png","J","city","36","top","top","city_00218",1
"57","2023-04-13","00:59:05","5c842b246a4b9b0014c84c30","categorize","categorize",57,"38",719,"offices_00404_top.png","L","offices","38","top","top","offices_00404",1
"58","2023-04-13","00:59:05","5c842b246a4b9b0014c84c30","categorize","categorize",58,"31",1976,"beaches_00244_bottom_inverted.png","S","beaches","31","bottom","bottom_inverted","beaches_00244",1
"59","2023-04-13","00:59:05","5c842b246a4b9b0014c84c30","categorize","categorize",59,"31",1015,"beaches_00256_bottom.png","S","beaches","31","bottom","bottom","beaches_00256",1
"60","2023-04-13","00:59:05","5c842b246a4b9b0014c84c30","categorize","categorize",60,"33",1093,"mountains_00223_top.png","F","mountains","33","top","top","mountains_00223",1
"61","2023-04-13","00:59:05","5c842b246a4b9b0014c84c30","categorize","categorize",61,"36",1015,"city_00219_top.png","J","city","36","top","top","city_00219",1
"62","2023-04-13","00:59:05","5c842b246a4b9b0014c84c30","categorize","categorize",62,"33",3861,"mountains_00216_bottom.png","F","mountains","33","bottom","bottom","mountains_00216",1
"63","2023-04-13","00:59:05","5c842b246a4b9b0014c84c30","categorize","categorize",63,"31",952,"beaches_00181_bottom.png","S","beaches","31","bottom","bottom","beaches_00181",1
"64","2023-04-13","00:59:05","5c842b246a4b9b0014c84c30","categorize","categorize",64,"31",640,"beaches_00243_bottom.png","S","beaches","31","bottom","bottom","beaches_00243",1
"65","2023-04-13","00:59:05","5c842b246a4b9b0014c84c30","categorize","categorize",65,"32",1189,"forests_00267_top.png","D","forests","32","top","top","forests_00267",1
"66","2023-04-13","00:59:05","5c842b246a4b9b0014c84c30","categorize","categorize",66,"37",1683,"highways_00322_bottom_inverted.png","K","highways","37","bottom","bottom_inverted","highways_00322",1
"67","2023-04-13","00:59:05","5c842b246a4b9b0014c84c30","categorize","categorize",67,"37",630,"highways_00187_top.png","K","highways","37","top","top","highways_00187",1
"68","2023-04-13","00:59:05","5c842b246a4b9b0014c84c30","categorize","categorize",68,"37",746,"highways_00199_top.png","K","highways","37","top","top","highways_00199",1
"69","2023-04-13","00:59:05","5c842b246a4b9b0014c84c30","categorize","categorize",69,"33",1794,"mountains_00178_bottom.png","F","mountains","33","bottom","bottom","mountains_00178",1
"70","2023-04-13","00:59:05","5c842b246a4b9b0014c84c30","categorize","categorize",70,"33",544,"mountains_00238_bottom.png","F","mountains","33","bottom","bottom","mountains_00238",1
"71","2023-04-13","00:59:05","5c842b246a4b9b0014c84c30","categorize","categorize",71,"32",609,"forests_00266_top_inverted.png","D","forests","32","top","top_inverted","forests_00266",1
"72","2023-04-13","00:59:05","5c842b246a4b9b0014c84c30","categorize","categorize",72,"31",1615,"beaches_00251_top.png","S","beaches","31","top","top","beaches_00251",1
"73","2023-04-13","00:59:05","5c842b246a4b9b0014c84c30","categorize","categorize",73,"33",1140,"mountains_00282_top.png","F","mountains","33","top","top","mountains_00282",1
"74","2023-04-13","00:59:05","5c842b246a4b9b0014c84c30","categorize","categorize",74,"32",653,"forests_00114_bottom.png","D","forests","32","bottom","bottom","forests_00114",1
"75","2023-04-13","00:59:05","5c842b246a4b9b0014c84c30","categorize","categorize",75,"36",2264,"city_00201_top.png","J","city","36","top","top","city_00201",1
"76","2023-04-13","00:59:05","5c842b246a4b9b0014c84c30","categorize","categorize",76,"36",900,"city_00201_bottom.png","J","city","36","bottom","bottom","city_00201",1
"77","2023-04-13","00:59:05","5c842b246a4b9b0014c84c30","categorize","categorize",77,"36",998,"city_00147_top.png","J","city","36","top","top","city_00147",1
"78","2023-04-13","00:59:05","5c842b246a4b9b0014c84c30","categorize","categorize",78,"38",612,"offices_00484_top.png","L","offices","38","top","top","offices_00484",1
"79","2023-04-13","00:59:05","5c842b246a4b9b0014c84c30","categorize","categorize",79,"32",906,"forests_00150_top.png","D","forests","32","top","top","forests_00150",1
"80","2023-04-13","00:59:05","5c842b246a4b9b0014c84c30","categorize","categorize",80,"36",1019,"city_00147_bottom.png","J","city","36","bottom","bottom","city_00147",1
"81","2023-04-13","00:59:05","5c842b246a4b9b0014c84c30","categorize","categorize",81,"36",2008,"offices_00455_top.png","J","offices","38","top","top","offices_00455",0
"82","2023-04-13","00:59:05","5c842b246a4b9b0014c84c30","categorize","categorize",82,"38",886,"offices_00291_bottom.png","L","offices","38","bottom","bottom","offices_00291",1
"83","2023-04-13","00:59:05","5c842b246a4b9b0014c84c30","categorize","categorize",83,"36",1433,"city_00309_top.png","J","city","36","top","top","city_00309",1
"84","2023-04-13","00:59:05","5c842b246a4b9b0014c84c30","categorize","categorize",84,"32",725,"forests_00114_top.png","D","forests","32","top","top","forests_00114",1
"85","2023-04-13","00:59:05","5c842b246a4b9b0014c84c30","categorize","categorize",85,"36",1102,"city_00234_bottom.png","J","city","36","bottom","bottom","city_00234",1
"86","2023-04-13","00:59:05","5c842b246a4b9b0014c84c30","categorize","categorize",86,"33",3264,"mountains_00104_bottom.png","F","mountains","33","bottom","bottom","mountains_00104",1
"87","2023-04-13","00:59:05","5c842b246a4b9b0014c84c30","categorize","categorize",87,"36",1020,"city_00222_top.png","J","city","36","top","top","city_00222",1
"88","2023-04-13","00:59:05","5c842b246a4b9b0014c84c30","categorize","categorize",88,"36",737,"city_00218_bottom.png","J","city","36","bottom","bottom","city_00218",1
"89","2023-04-13","00:59:05","5c842b246a4b9b0014c84c30","categorize","categorize",89,"32",705,"forests_00266_bottom.png","D","forests","32","bottom","bottom","forests_00266",1
"90","2023-04-13","00:59:05","5c842b246a4b9b0014c84c30","categorize","categorize",90,"33",1155,"mountains_00125_top.png","F","mountains","33","top","top","mountains_00125",1
"91","2023-04-13","00:59:05","5c842b246a4b9b0014c84c30","categorize","categorize",91,"37",1019,"highways_00161_bottom.png","K","highways","37","bottom","bottom","highways_00161",1
"92","2023-04-13","00:59:05","5c842b246a4b9b0014c84c30","categorize","categorize",92,"37",600,"highways_00323_bottom.png","K","highways","37","bottom","bottom","highways_00323",1
"93","2023-04-13","00:59:05","5c842b246a4b9b0014c84c30","categorize","categorize",93,"31",1174,"beaches_00251_bottom.png","S","beaches","31","bottom","bottom","beaches_00251",1
"94","2023-04-13","00:59:05","5c842b246a4b9b0014c84c30","categorize","categorize",94,"37",734,"highways_00318_bottom.png","K","highways","37","bottom","bottom","highways_00318",1
"95","2023-04-13","00:59:05","5c842b246a4b9b0014c84c30","categorize","categorize",95,"32",718,"forests_00217_bottom.png","D","forests","32","bottom","bottom","forests_00217",1
"96","2023-04-13","00:59:05","5c842b246a4b9b0014c84c30","categorize","categorize",96,"38",736,"offices_00141_bottom.png","L","offices","38","bottom","bottom","offices_00141",1
"97","2023-04-13","00:59:05","5c842b246a4b9b0014c84c30","categorize","categorize",97,"32",752,"forests_00189_top.png","D","forests","32","top","top","forests_00189",1
"98","2023-04-13","00:59:05","5c842b246a4b9b0014c84c30","categorize","categorize",98,"37",1504,"highways_00199_bottom.png","K","highways","37","bottom","bottom","highways_00199",1
"99","2023-04-13","00:59:05","5c842b246a4b9b0014c84c30","categorize","categorize",99,"31",2138,"beaches_00178_bottom.png","S","beaches","31","bottom","bottom","beaches_00178",1
"100","2023-04-13","00:59:05","5c842b246a4b9b0014c84c30","categorize","categorize",100,"36",1314,"city_00307_top.png","J","city","36","top","top","city_00307",1
"101","2023-04-13","00:59:05","5c842b246a4b9b0014c84c30","categorize","categorize",101,"36",924,"city_00138_bottom.png","J","city","36","bottom","bottom","city_00138",1
"102","2023-04-13","00:59:05","5c842b246a4b9b0014c84c30","categorize","categorize",102,"36",677,"city_00292_top.png","J","city","36","top","top","city_00292",1
"103","2023-04-13","00:59:05","5c842b246a4b9b0014c84c30","categorize","categorize",103,"36",552,"highways_00305_bottom.png","J","highways","37","bottom","bottom","highways_00305",0
"104","2023-04-13","00:59:05","5c842b246a4b9b0014c84c30","categorize","categorize",104,"33",1320,"mountains_00198_bottom.png","F","mountains","33","bottom","bottom","mountains_00198",1
"105","2023-04-13","00:59:05","5c842b246a4b9b0014c84c30","categorize","categorize",105,"36",993,"city_00231_top_inverted.png","J","city","36","top","top_inverted","city_00231",1
"106","2023-04-13","00:59:05","5c842b246a4b9b0014c84c30","categorize","categorize",106,"37",984,"highways_00329_bottom.png","K","highways","37","bottom","bottom","highways_00329",1
"107","2023-04-13","00:59:05","5c842b246a4b9b0014c84c30","categorize","categorize",107,"31",1055,"beaches_00117_top.png","S","beaches","31","top","top","beaches_00117",1
"108","2023-04-13","00:59:05","5c842b246a4b9b0014c84c30","categorize","categorize",108,"38",555,"offices_00395_top.png","L","offices","38","top","top","offices_00395",1
"109","2023-04-13","00:59:05","5c842b246a4b9b0014c84c30","categorize","categorize",109,"31",1019,"beaches_00202_bottom.png","S","beaches","31","bottom","bottom","beaches_00202",1
"110","2023-04-13","00:59:05","5c842b246a4b9b0014c84c30","categorize","categorize",110,"38",888,"offices_00484_bottom_inverted.png","L","offices","38","bottom","bottom_inverted","offices_00484",1
"111","2023-04-13","00:59:05","5c842b246a4b9b0014c84c30","categorize","categorize",111,"32",1218,"mountains_00270_bottom.png","D","mountains","33","bottom","bottom","mountains_00270",0
"112","2023-04-13","00:59:05","5c842b246a4b9b0014c84c30","categorize","categorize",112,"32",1824,"forests_00277_top.png","D","forests","32","top","top","forests_00277",1
"113","2023-04-13","00:59:05","5c842b246a4b9b0014c84c30","categorize","categorize",113,"33",869,"mountains_00215_bottom.png","F","mountains","33","bottom","bottom","mountains_00215",1
"114","2023-04-13","00:59:05","5c842b246a4b9b0014c84c30","categorize","categorize",114,"32",3631,"forests_00288_bottom.png","D","forests","32","bottom","bottom","forests_00288",1
"115","2023-04-13","00:59:05","5c842b246a4b9b0014c84c30","categorize","categorize",115,"32",556,"forests_00114_bottom_inverted.png","D","forests","32","bottom","bottom_inverted","forests_00114",1
"116","2023-04-13","00:59:05","5c842b246a4b9b0014c84c30","categorize","categorize",116,"36",1404,"highways_00353_bottom.png","J","highways","37","bottom","bottom","highways_00353",0
"117","2023-04-13","00:59:05","5c842b246a4b9b0014c84c30","categorize","categorize",117,"36",785,"city_00299_top.png","J","city","36","top","top","city_00299",1
"118","2023-04-13","00:59:05","5c842b246a4b9b0014c84c30","categorize","categorize",118,"33",1528,"mountains_00230_top.png","F","mountains","33","top","top","mountains_00230",1
"119","2023-04-13","00:59:05","5c842b246a4b9b0014c84c30","categorize","categorize",119,"36",1033,"city_00140_top.png","J","city","36","top","top","city_00140",1
"120","2023-04-13","00:59:05","5c842b246a4b9b0014c84c30","categorize","categorize",120,"33",1045,"mountains_00163_top.png","F","mountains","33","top","top","mountains_00163",1
"121","2023-04-13","00:59:05","5c842b246a4b9b0014c84c30","categorize","categorize",121,"37",2386,"highways_00268_top.png","K","highways","37","top","top","highways_00268",1
"122","2023-04-13","00:59:05","5c842b246a4b9b0014c84c30","categorize","categorize",122,"33",1192,"mountains_00285_top.png","F","mountains","33","top","top","mountains_00285",1
"123","2023-04-13","00:59:05","5c842b246a4b9b0014c84c30","categorize","categorize",123,"38",1062,"offices_00114_top.png","L","offices","38","top","top","offices_00114",1
"124","2023-04-13","00:59:05","5c842b246a4b9b0014c84c30","categorize","categorize",124,"36",1010,"city_00222_bottom.png","J","city","36","bottom","bottom","city_00222",1
"125","2023-04-13","00:59:05","5c842b246a4b9b0014c84c30","categorize","categorize",125,"31",976,"beaches_00162_bottom.png","S","beaches","31","bottom","bottom","beaches_00162",1
"126","2023-04-13","00:59:05","5c842b246a4b9b0014c84c30","categorize","categorize",126,"32",943,"beaches_00149_bottom.png","D","beaches","31","bottom","bottom","beaches_00149",0
"127","2023-04-13","00:59:05","5c842b246a4b9b0014c84c30","categorize","categorize",127,"37",807,"highways_00323_top.png","K","highways","37","top","top","highways_00323",1
"128","2023-04-13","00:59:05","5c842b246a4b9b0014c84c30","categorize","categorize",128,"37",693,"highways_00187_bottom.png","K","highways","37","bottom","bottom","highways_00187",1
"129","2023-04-13","00:59:05","5c842b246a4b9b0014c84c30","categorize","categorize",129,"32",2151,"beaches_00149_top.png","D","beaches","31","top","top","beaches_00149",0
"130","2023-04-13","00:59:05","5c842b246a4b9b0014c84c30","categorize","categorize",130,"38",712,"offices_00304_bottom.png","L","offices","38","bottom","bottom","offices_00304",1
"131","2023-04-13","00:59:05","5c842b246a4b9b0014c84c30","categorize","categorize",131,"32",881,"forests_00194_top_inverted.png","D","forests","32","top","top_inverted","forests_00194",1
"132","2023-04-13","00:59:05","5c842b246a4b9b0014c84c30","categorize","categorize",132,"32",668,"forests_00114_top_inverted.png","D","forests","32","top","top_inverted","forests_00114",1
"133","2023-04-13","00:59:05","5c842b246a4b9b0014c84c30","categorize","categorize",133,"37",951,"highways_00268_bottom.png","K","highways","37","bottom","bottom","highways_00268",1
"134","2023-04-13","00:59:05","5c842b246a4b9b0014c84c30","categorize","categorize",134,"33",887,"mountains_00168_bottom.png","F","mountains","33","bottom","bottom","mountains_00168",1
"135","2023-04-13","00:59:05","5c842b246a4b9b0014c84c30","categorize","categorize",135,"31",1057,"beaches_00249_top.png","S","beaches","31","top","top","beaches_00249",1
"136","2023-04-13","00:59:05","5c842b246a4b9b0014c84c30","categorize","categorize",136,"31",1149,"beaches_00265_bottom.png","S","beaches","31","bottom","bottom","beaches_00265",1
"137","2023-04-13","00:59:05","5c842b246a4b9b0014c84c30","categorize","categorize",137,"37",773,"highways_00351_bottom.png","K","highways","37","bottom","bottom","highways_00351",1
"138","2023-04-13","00:59:05","5c842b246a4b9b0014c84c30","categorize","categorize",138,"38",621,"offices_00141_top.png","L","offices","38","top","top","offices_00141",1
"139","2023-04-13","00:59:05","5c842b246a4b9b0014c84c30","categorize","categorize",139,"36",1914,"city_00115_bottom.png","J","city","36","bottom","bottom","city_00115",1
"140","2023-04-13","00:59:05","5c842b246a4b9b0014c84c30","categorize","categorize",140,"36",531,"city_00234_top.png","J","city","36","top","top","city_00234",1
"141","2023-04-13","00:59:05","5c842b246a4b9b0014c84c30","categorize","categorize",141,"33",900,"mountains_00215_top.png","F","mountains","33","top","top","mountains_00215",1
"142","2023-04-13","00:59:05","5c842b246a4b9b0014c84c30","categorize","categorize",142,"36",926,"city_00305_top.png","J","city","36","top","top","city_00305",1
"143","2023-04-13","00:59:05","5c842b246a4b9b0014c84c30","categorize","categorize",143,"31",959,"beaches_00154_bottom.png","S","beaches","31","bottom","bottom","beaches_00154",1
"144","2023-04-13","00:59:05","5c842b246a4b9b0014c84c30","categorize","categorize",144,"31",2679,"beaches_00244_top_inverted.png","S","beaches","31","top","top_inverted","beaches_00244",1
"145","2023-04-13","00:59:05","5c842b246a4b9b0014c84c30","categorize","categorize",145,"38",826,"offices_00280_bottom.png","L","offices","38","bottom","bottom","offices_00280",1
"146","2023-04-13","00:59:05","5c842b246a4b9b0014c84c30","categorize","categorize",146,"38",575,"offices_00473_top.png","L","offices","38","top","top","offices_00473",1
"147","2023-04-13","00:59:05","5c842b246a4b9b0014c84c30","categorize","categorize",147,"32",671,"forests_00274_top.png","D","forests","32","top","top","forests_00274",1
"148","2023-04-13","00:59:05","5c842b246a4b9b0014c84c30","categorize","categorize",148,"38",578,"offices_00379_top.png","L","offices","38","top","top","offices_00379",1
"149","2023-04-13","00:59:05","5c842b246a4b9b0014c84c30","categorize","categorize",149,"31",561,"beaches_00256_top.png","S","beaches","31","top","top","beaches_00256",1
"150","2023-04-13","00:59:05","5c842b246a4b9b0014c84c30","categorize","categorize",150,"31",609,"beaches_00193_top.png","S","beaches","31","top","top","beaches_00193",1
"151","2023-04-13","00:59:05","5c842b246a4b9b0014c84c30","categorize","categorize",151,"33",831,"mountains_00195_top.png","F","mountains","33","top","top","mountains_00195",1
"152","2023-04-13","00:59:05","5c842b246a4b9b0014c84c30","categorize","categorize",152,"32",892,"forests_00241_top.png","D","forests","32","top","top","forests_00241",1
"153","2023-04-13","00:59:05","5c842b246a4b9b0014c84c30","categorize","categorize",153,"36",598,"city_00231_bottom.png","J","city","36","bottom","bottom","city_00231",1
"154","2023-04-13","00:59:05","5c842b246a4b9b0014c84c30","categorize","categorize",154,"31",724,"beaches_00250_bottom.png","S","beaches","31","bottom","bottom","beaches_00250",1
"155","2023-04-13","00:59:05","5c842b246a4b9b0014c84c30","categorize","categorize",155,"37",493,"highways_00322_bottom.png","K","highways","37","bottom","bottom","highways_00322",1
"156","2023-04-13","00:59:05","5c842b246a4b9b0014c84c30","categorize","categorize",156,"32",664,"forests_00294_top.png","D","forests","32","top","top","forests_00294",1
"157","2023-04-13","00:59:05","5c842b246a4b9b0014c84c30","categorize","categorize",157,"36",635,"city_00231_top.png","J","city","36","top","top","city_00231",1
"158","2023-04-13","00:59:05","5c842b246a4b9b0014c84c30","categorize","categorize",158,"37",744,"highways_00353_top.png","K","highways","37","top","top","highways_00353",1
"159","2023-04-13","00:59:05","5c842b246a4b9b0014c84c30","categorize","categorize",159,"33",760,"mountains_00108_top.png","F","mountains","33","top","top","mountains_00108",1
"160","2023-04-13","00:59:05","5c842b246a4b9b0014c84c30","categorize","categorize",160,"38",584,"offices_00184_top.png","L","offices","38","top","top","offices_00184",1
"161","2023-04-13","00:59:05","5c842b246a4b9b0014c84c30","categorize","categorize",161,"32",742,"forests_00111_top.png","D","forests","32","top","top","forests_00111",1
"162","2023-04-13","00:59:05","5c842b246a4b9b0014c84c30","categorize","categorize",162,"38",871,"offices_00473_bottom.png","L","offices","38","bottom","bottom","offices_00473",1
"163","2023-04-13","00:59:05","5c842b246a4b9b0014c84c30","categorize","categorize",163,"33",1106,"mountains_00262_top.png","F","mountains","33","top","top","mountains_00262",1
"164","2023-04-13","00:59:05","5c842b246a4b9b0014c84c30","categorize","categorize",164,"38",620,"offices_00280_top.png","L","offices","38","top","top","offices_00280",1
"165","2023-04-13","00:59:05","5c842b246a4b9b0014c84c30","categorize","categorize",165,"37",865,"highways_00184_bottom.png","K","highways","37","bottom","bottom","highways_00184",1
"166","2023-04-13","00:59:05","5c842b246a4b9b0014c84c30","categorize","categorize",166,"37",701,"highways_00351_top.png","K","highways","37","top","top","highways_00351",1
"167","2023-04-13","00:59:05","5c842b246a4b9b0014c84c30","categorize","categorize",167,"31",1327,"beaches_00248_top.png","S","beaches","31","top","top","beaches_00248",1
"168","2023-04-13","00:59:05","5c842b246a4b9b0014c84c30","categorize","categorize",168,"37",687,"highways_00331_bottom.png","K","highways","37","bottom","bottom","highways_00331",1
"169","2023-04-13","00:59:05","5c842b246a4b9b0014c84c30","categorize","categorize",169,"38",706,"offices_00120_bottom.png","L","offices","38","bottom","bottom","offices_00120",1
"170","2023-04-13","00:59:05","5c842b246a4b9b0014c84c30","categorize","categorize",170,"31",619,"beaches_00249_bottom.png","S","beaches","31","bottom","bottom","beaches_00249",1
"171","2023-04-13","00:59:05","5c842b246a4b9b0014c84c30","categorize","categorize",171,"32",520,"forests_00274_bottom.png","D","forests","32","bottom","bottom","forests_00274",1
"172","2023-04-13","00:59:05","5c842b246a4b9b0014c84c30","categorize","categorize",172,"31",961,"beaches_00115_top.png","S","beaches","31","top","top","beaches_00115",1
"173","2023-04-13","00:59:05","5c842b246a4b9b0014c84c30","categorize","categorize",173,"33",1001,"mountains_00282_bottom.png","F","mountains","33","bottom","bottom","mountains_00282",1
"174","2023-04-13","00:59:05","5c842b246a4b9b0014c84c30","categorize","categorize",174,"36",911,"city_00272_top.png","J","city","36","top","top","city_00272",1
"175","2023-04-13","00:59:05","5c842b246a4b9b0014c84c30","categorize","categorize",175,"36",4553,"highways_00161_top.png","J","highways","37","top","top","highways_00161",0
"176","2023-04-13","00:59:05","5c842b246a4b9b0014c84c30","categorize","categorize",176,"33",601,"mountains_00228_top.png","F","mountains","33","top","top","mountains_00228",1
"177","2023-04-13","00:59:05","5c842b246a4b9b0014c84c30","categorize","categorize",177,"33",2271,"mountains_00104_bottom_inverted.png","F","mountains","33","bottom","bottom_inverted","mountains_00104",1
"178","2023-04-13","00:59:05","5c842b246a4b9b0014c84c30","categorize","categorize",178,"38",602,"offices_00124_top.png","L","offices","38","top","top","offices_00124",1
"179","2023-04-13","00:59:05","5c842b246a4b9b0014c84c30","categorize","categorize",179,"32",744,"forests_00155_bottom_inverted.png","D","forests","32","bottom","bottom_inverted","forests_00155",1
"180","2023-04-13","00:59:05","5c842b246a4b9b0014c84c30","categorize","categorize",180,"33",753,"mountains_00256_top.png","F","mountains","33","top","top","mountains_00256",1
"181","2023-04-13","00:59:05","5c842b246a4b9b0014c84c30","categorize","categorize",181,"31",681,"beaches_00117_bottom.png","S","beaches","31","bottom","bottom","beaches_00117",1
"182","2023-04-13","00:59:05","5c842b246a4b9b0014c84c30","categorize","categorize",182,"31",819,"beaches_00266_top.png","S","beaches","31","top","top","beaches_00266",1
"183","2023-04-13","00:59:05","5c842b246a4b9b0014c84c30","categorize","categorize",183,"32",1312,"forests_00147_bottom.png","D","forests","32","bottom","bottom","forests_00147",1
"184","2023-04-13","00:59:05","5c842b246a4b9b0014c84c30","categorize","categorize",184,"32",650,"forests_00121_top.png","D","forests","32","top","top","forests_00121",1
"185","2023-04-13","00:59:05","5c842b246a4b9b0014c84c30","categorize","categorize",185,"32",1238,"mountains_00220_bottom.png","D","mountains","33","bottom","bottom","mountains_00220",0
"186","2023-04-13","00:59:05","5c842b246a4b9b0014c84c30","categorize","categorize",186,"32",642,"forests_00195_bottom.png","D","forests","32","bottom","bottom","forests_00195",1
"187","2023-04-13","00:59:05","5c842b246a4b9b0014c84c30","categorize","categorize",187,"31",559,"beaches_00244_top.png","S","beaches","31","top","top","beaches_00244",1
"188","2023-04-13","00:59:05","5c842b246a4b9b0014c84c30","categorize","categorize",188,"37",799,"highways_00206_top_inverted.png","K","highways","37","top","top_inverted","highways_00206",1
"189","2023-04-13","00:59:05","5c842b246a4b9b0014c84c30","categorize","categorize",189,"37",949,"highways_00322_top.png","K","highways","37","top","top","highways_00322",1
"190","2023-04-13","00:59:05","5c842b246a4b9b0014c84c30","categorize","categorize",190,"36",941,"city_00281_top_inverted.png","J","city","36","top","top_inverted","city_00281",1
"191","2023-04-13","00:59:05","5c842b246a4b9b0014c84c30","categorize","categorize",191,"36",733,"city_00207_bottom.png","J","city","36","bottom","bottom","city_00207",1
"192","2023-04-13","00:59:05","5c842b246a4b9b0014c84c30","categorize","categorize",192,"37",638,"highways_00254_top.png","K","highways","37","top","top","highways_00254",1
"193","2023-04-13","00:59:05","5c842b246a4b9b0014c84c30","categorize","categorize",193,"38",539,"offices_00508_top.png","L","offices","38","top","top","offices_00508",1
"194","2023-04-13","00:59:05","5c842b246a4b9b0014c84c30","categorize","categorize",194,"37",819,"highways_00318_top.png","K","highways","37","top","top","highways_00318",1
"195","2023-04-13","00:59:05","5c842b246a4b9b0014c84c30","categorize","categorize",195,"36",704,"city_00140_bottom.png","J","city","36","bottom","bottom","city_00140",1
"196","2023-04-13","00:59:05","5c842b246a4b9b0014c84c30","categorize","categorize",196,"32",617,"forests_00277_bottom.png","D","forests","32","bottom","bottom","forests_00277",1
"197","2023-04-13","00:59:05","5c842b246a4b9b0014c84c30","categorize","categorize",197,"37",711,"highways_00222_top.png","K","highways","37","top","top","highways_00222",1
"198","2023-04-13","00:59:05","5c842b246a4b9b0014c84c30","categorize","categorize",198,"38",793,"offices_00307_bottom.png","L","offices","38","bottom","bottom","offices_00307",1
"199","2023-04-13","00:59:05","5c842b246a4b9b0014c84c30","categorize","categorize",199,"36",744,"city_00136_bottom.png","J","city","36","bottom","bottom","city_00136",1
"200","2023-04-13","00:59:05","5c842b246a4b9b0014c84c30","categorize","categorize",200,"37",633,"highways_00328_bottom.png","K","highways","37","bottom","bottom","highways_00328",1
"201","2023-04-13","00:59:05","5c842b246a4b9b0014c84c30","categorize","categorize",201,"31",669,"beaches_00185_bottom.png","S","beaches","31","bottom","bottom","beaches_00185",1
"202","2023-04-13","00:59:05","5c842b246a4b9b0014c84c30","categorize","categorize",202,"38",745,"offices_00508_bottom.png","L","offices","38","bottom","bottom","offices_00508",1
"203","2023-04-13","00:59:05","5c842b246a4b9b0014c84c30","categorize","categorize",203,"36",2017,"city_00307_bottom.png","J","city","36","bottom","bottom","city_00307",1
"204","2023-04-13","00:59:05","5c842b246a4b9b0014c84c30","categorize","categorize",204,"37",1054,"highways_00206_top.png","K","highways","37","top","top","highways_00206",1
"205","2023-04-13","00:59:05","5c842b246a4b9b0014c84c30","categorize","categorize",205,"38",1354,"offices_00120_top.png","L","offices","38","top","top","offices_00120",1
"206","2023-04-13","00:59:05","5c842b246a4b9b0014c84c30","categorize","categorize",206,"36",1338,"city_00210_top.png","J","city","36","top","top","city_00210",1
"207","2023-04-13","00:59:05","5c842b246a4b9b0014c84c30","categorize","categorize",207,"38",571,"offices_00484_bottom.png","L","offices","38","bottom","bottom","offices_00484",1
"208","2023-04-13","00:59:05","5c842b246a4b9b0014c84c30","categorize","categorize",208,"31",698,"beaches_00162_bottom_inverted.png","S","beaches","31","bottom","bottom_inverted","beaches_00162",1
"209","2023-04-13","00:59:05","5c842b246a4b9b0014c84c30","categorize","categorize",209,"33",908,"mountains_00195_bottom.png","F","mountains","33","bottom","bottom","mountains_00195",1
"210","2023-04-13","00:59:05","5c842b246a4b9b0014c84c30","categorize","categorize",210,"32",726,"forests_00126_bottom.png","D","forests","32","bottom","bottom","forests_00126",1
"211","2023-04-13","00:59:05","5c842b246a4b9b0014c84c30","categorize","categorize",211,"31",727,"beaches_00181_top.png","S","beaches","31","top","top","beaches_00181",1
"212","2023-04-13","00:59:05","5c842b246a4b9b0014c84c30","categorize","categorize",212,"32",1856,"forests_00155_bottom.png","D","forests","32","bottom","bottom","forests_00155",1
"213","2023-04-13","00:59:05","5c842b246a4b9b0014c84c30","categorize","categorize",213,"31",1428,"beaches_00181_top_inverted.png","S","beaches","31","top","top_inverted","beaches_00181",1
"214","2023-04-13","00:59:05","5c842b246a4b9b0014c84c30","categorize","categorize",214,"38",3306,"offices_00307_top.png","L","offices","38","top","top","offices_00307",1
"215","2023-04-13","00:59:05","5c842b246a4b9b0014c84c30","categorize","categorize",215,"32",803,"forests_00197_top.png","D","forests","32","top","top","forests_00197",1
"216","2023-04-13","00:59:05","5c842b246a4b9b0014c84c30","categorize","categorize",216,"36",833,"city_00281_bottom_inverted.png","J","city","36","bottom","bottom_inverted","city_00281",1
"217","2023-04-13","00:59:05","5c842b246a4b9b0014c84c30","categorize","categorize",217,"32",870,"forests_00242_top.png","D","forests","32","top","top","forests_00242",1
"218","2023-04-13","00:59:05","5c842b246a4b9b0014c84c30","categorize","categorize",218,"36",1553,"city_00305_bottom.png","J","city","36","bottom","bottom","city_00305",1
"219","2023-04-13","00:59:05","5c842b246a4b9b0014c84c30","categorize","categorize",219,"36",2881,"highways_00176_top.png","J","highways","37","top","top","highways_00176",0
"220","2023-04-13","00:59:05","5c842b246a4b9b0014c84c30","categorize","categorize",220,"38",507,"offices_00117_bottom.png","L","offices","38","bottom","bottom","offices_00117",1
"221","2023-04-13","00:59:05","5c842b246a4b9b0014c84c30","categorize","categorize",221,"36",2061,"offices_00172_top.png","J","offices","38","top","top","offices_00172",0
"222","2023-04-13","00:59:05","5c842b246a4b9b0014c84c30","categorize","categorize",222,"36",992,"city_00310_bottom.png","J","city","36","bottom","bottom","city_00310",1
"223","2023-04-13","00:59:05","5c842b246a4b9b0014c84c30","categorize","categorize",223,"37",863,"highways_00208_bottom.png","K","highways","37","bottom","bottom","highways_00208",1
"224","2023-04-13","00:59:05","5c842b246a4b9b0014c84c30","categorize","categorize",224,"32",778,"forests_00170_top.png","D","forests","32","top","top","forests_00170",1
"225","2023-04-13","00:59:05","5c842b246a4b9b0014c84c30","categorize","categorize",225,"31",1128,"beaches_00252_top.png","S","beaches","31","top","top","beaches_00252",1
"226","2023-04-13","00:59:05","5c842b246a4b9b0014c84c30","categorize","categorize",226,"38",586,"offices_00126_bottom.png","L","offices","38","bottom","bottom","offices_00126",1
"227","2023-04-13","00:59:05","5c842b246a4b9b0014c84c30","categorize","categorize",227,"38",512,"offices_00291_top.png","L","offices","38","top","top","offices_00291",1
"228","2023-04-13","00:59:05","5c842b246a4b9b0014c84c30","categorize","categorize",228,"31",673,"beaches_00224_bottom.png","S","beaches","31","bottom","bottom","beaches_00224",1
"229","2023-04-13","00:59:05","5c842b246a4b9b0014c84c30","categorize","categorize",229,"33",997,"mountains_00270_top.png","F","mountains","33","top","top","mountains_00270",1
"230","2023-04-13","00:59:05","5c842b246a4b9b0014c84c30","categorize","categorize",230,"31",763,"beaches_00202_top.png","S","beaches","31","top","top","beaches_00202",1
"231","2023-04-13","00:59:05","5c842b246a4b9b0014c84c30","categorize","categorize",231,"37",650,"highways_00220_top.png","K","highways","37","top","top","highways_00220",1
"232","2023-04-13","00:59:05","5c842b246a4b9b0014c84c30","categorize","categorize",232,"32",622,"forests_00242_bottom_inverted.png","D","forests","32","bottom","bottom_inverted","forests_00242",1
"233","2023-04-13","00:59:05","5c842b246a4b9b0014c84c30","categorize","categorize",233,"38",787,"offices_00126_top.png","L","offices","38","top","top","offices_00126",1
"234","2023-04-13","00:59:05","5c842b246a4b9b0014c84c30","categorize","categorize",234,"36",738,"city_00199_top.png","J","city","36","top","top","city_00199",1
"235","2023-04-13","00:59:05","5c842b246a4b9b0014c84c30","categorize","categorize",235,"33",858,"mountains_20081106_00096_bottom_inverted.png","F","mountains","33","bottom","bottom_inverted","mountains_20081106_00096",1
"236","2023-04-13","00:59:05","5c842b246a4b9b0014c84c30","categorize","categorize",236,"31",686,"beaches_00253_top.png","S","beaches","31","top","top","beaches_00253",1
"237","2023-04-13","00:59:05","5c842b246a4b9b0014c84c30","categorize","categorize",237,"37",913,"highways_00206_bottom_inverted.png","K","highways","37","bottom","bottom_inverted","highways_00206",1
"238","2023-04-13","00:59:05","5c842b246a4b9b0014c84c30","categorize","categorize",238,"33",1482,"mountains_00104_top_inverted.png","F","mountains","33","top","top_inverted","mountains_00104",1
"239","2023-04-13","00:59:05","5c842b246a4b9b0014c84c30","categorize","categorize",239,"33",677,"mountains_00107_top.png","F","mountains","33","top","top","mountains_00107",1
"240","2023-04-13","00:59:05","5c842b246a4b9b0014c84c30","categorize","categorize",240,"31",640,"beaches_00119_bottom.png","S","beaches","31","bottom","bottom","beaches_00119",1
"241","2023-04-13","00:59:05","5c842b246a4b9b0014c84c30","categorize","categorize",241,"32",629,"forests_00189_bottom.png","D","forests","32","bottom","bottom","forests_00189",1
"242","2023-04-13","00:59:05","5c842b246a4b9b0014c84c30","categorize","categorize",242,"38",584,"offices_00166_bottom.png","L","offices","38","bottom","bottom","offices_00166",1
"243","2023-04-13","00:59:05","5c842b246a4b9b0014c84c30","categorize","categorize",243,"37",3488,"highways_00280_top.png","K","highways","37","top","top","highways_00280",1
"244","2023-04-13","00:59:05","5c842b246a4b9b0014c84c30","categorize","categorize",244,"32",722,"forests_00111_bottom.png","D","forests","32","bottom","bottom","forests_00111",1
"245","2023-04-13","00:59:05","5c842b246a4b9b0014c84c30","categorize","categorize",245,"32",627,"forests_00267_bottom.png","D","forests","32","bottom","bottom","forests_00267",1
"246","2023-04-13","00:59:05","5c842b246a4b9b0014c84c30","categorize","categorize",246,"36",1416,"city_00281_bottom.png","J","city","36","bottom","bottom","city_00281",1
"247","2023-04-13","00:59:05","5c842b246a4b9b0014c84c30","categorize","categorize",247,"38",661,"offices_00281_bottom.png","L","offices","38","bottom","bottom","offices_00281",1
"248","2023-04-13","00:59:05","5c842b246a4b9b0014c84c30","categorize","categorize",248,"32",881,"forests_00125_top.png","D","forests","32","top","top","forests_00125",1
"249","2023-04-13","00:59:05","5c842b246a4b9b0014c84c30","categorize","categorize",249,"31",1003,"beaches_00235_bottom.png","S","beaches","31","bottom","bottom","beaches_00235",1
"250","2023-04-13","00:59:05","5c842b246a4b9b0014c84c30","categorize","categorize",250,"37",929,"highways_00302_top.png","K","highways","37","top","top","highways_00302",1
"251","2023-04-13","00:59:05","5c842b246a4b9b0014c84c30","categorize","categorize",251,"37",698,"highways_00146_top.png","K","highways","37","top","top","highways_00146",1
"252","2023-04-13","00:59:05","5c842b246a4b9b0014c84c30","categorize","categorize",252,"38",580,"offices_00117_top.png","L","offices","38","top","top","offices_00117",1
"253","2023-04-13","00:59:05","5c842b246a4b9b0014c84c30","categorize","categorize",253,"37",794,"highways_00176_bottom.png","K","highways","37","bottom","bottom","highways_00176",1
"254","2023-04-13","00:59:05","5c842b246a4b9b0014c84c30","categorize","categorize",254,"31",968,"beaches_00185_top.png","S","beaches","31","top","top","beaches_00185",1
"255","2023-04-13","00:59:05","5c842b246a4b9b0014c84c30","categorize","categorize",255,"38",656,"offices_00114_bottom.png","L","offices","38","bottom","bottom","offices_00114",1
"256","2023-04-13","00:59:05","5c842b246a4b9b0014c84c30","categorize","categorize",256,"32",619,"forests_00253_bottom.png","D","forests","32","bottom","bottom","forests_00253",1
"257","2023-04-13","00:59:05","5c842b246a4b9b0014c84c30","categorize","categorize",257,"33",585,"mountains_00108_bottom.png","F","mountains","33","bottom","bottom","mountains_00108",1
"258","2023-04-13","00:59:05","5c842b246a4b9b0014c84c30","categorize","categorize",258,"33",823,"mountains_00106_bottom.png","F","mountains","33","bottom","bottom","mountains_00106",1
"259","2023-04-13","00:59:05","5c842b246a4b9b0014c84c30","categorize","categorize",259,"33",701,"mountains_00228_bottom.png","F","mountains","33","bottom","bottom","mountains_00228",1
"260","2023-04-13","00:59:05","5c842b246a4b9b0014c84c30","categorize","categorize",260,"33",1527,"mountains_00125_bottom.png","F","mountains","33","bottom","bottom","mountains_00125",1
"261","2023-04-13","00:59:05","5c842b246a4b9b0014c84c30","categorize","categorize",261,"32",817,"forests_00253_top.png","D","forests","32","top","top","forests_00253",1
"262","2023-04-13","00:59:05","5c842b246a4b9b0014c84c30","categorize","categorize",262,"32",573,"forests_00121_bottom.png","D","forests","32","bottom","bottom","forests_00121",1
"263","2023-04-13","00:59:05","5c842b246a4b9b0014c84c30","categorize","categorize",263,"32",2020,"beaches_00235_top.png","D","beaches","31","top","top","beaches_00235",0
"264","2023-04-13","00:59:05","5c842b246a4b9b0014c84c30","categorize","categorize",264,"38",602,"offices_00254_top.png","L","offices","38","top","top","offices_00254",1
"265","2023-04-13","00:59:05","5c842b246a4b9b0014c84c30","categorize","categorize",265,"32",991,"forests_00126_top.png","D","forests","32","top","top","forests_00126",1
"266","2023-04-13","00:59:05","5c842b246a4b9b0014c84c30","categorize","categorize",266,"33",1134,"mountains_00220_top.png","F","mountains","33","top","top","mountains_00220",1
"267","2023-04-13","00:59:05","5c842b246a4b9b0014c84c30","categorize","categorize",267,"36",1015,"city_00231_bottom_inverted.png","J","city","36","bottom","bottom_inverted","city_00231",1
"268","2023-04-13","00:59:05","5c842b246a4b9b0014c84c30","categorize","categorize",268,"37",1212,"highways_00280_bottom.png","K","highways","37","bottom","bottom","highways_00280",1
"269","2023-04-13","00:59:05","5c842b246a4b9b0014c84c30","categorize","categorize",269,"31",721,"beaches_00243_top.png","S","beaches","31","top","top","beaches_00243",1
"270","2023-04-13","00:59:05","5c842b246a4b9b0014c84c30","categorize","categorize",270,"33",1098,"mountains_00216_top.png","F","mountains","33","top","top","mountains_00216",1
"271","2023-04-13","00:59:05","5c842b246a4b9b0014c84c30","categorize","categorize",271,"38",548,"offices_00243_bottom.png","L","offices","38","bottom","bottom","offices_00243",1
"272","2023-04-13","00:59:05","5c842b246a4b9b0014c84c30","categorize","categorize",272,"36",971,"city_00189_bottom.png","J","city","36","bottom","bottom","city_00189",1
"273","2023-04-13","00:59:05","5c842b246a4b9b0014c84c30","categorize","categorize",273,"36",875,"city_00301_bottom.png","J","city","36","bottom","bottom","city_00301",1
"274","2023-04-13","00:59:05","5c842b246a4b9b0014c84c30","categorize","categorize",274,"32",654,"forests_00194_bottom.png","D","forests","32","bottom","bottom","forests_00194",1
"275","2023-04-13","00:59:05","5c842b246a4b9b0014c84c30","categorize","categorize",275,"36",874,"city_00115_top.png","J","city","36","top","top","city_00115",1
"276","2023-04-13","00:59:05","5c842b246a4b9b0014c84c30","categorize","categorize",276,"37",797,"highways_00222_bottom.png","K","highways","37","bottom","bottom","highways_00222",1
"277","2023-04-13","00:59:05","5c842b246a4b9b0014c84c30","categorize","categorize",277,"36",1018,"city_00136_top.png","J","city","36","top","top","city_00136",1
"278","2023-04-13","00:59:05","5c842b246a4b9b0014c84c30","categorize","categorize",278,"36",728,"city_00189_top.png","J","city","36","top","top","city_00189",1
"279","2023-04-13","00:59:05","5c842b246a4b9b0014c84c30","categorize","categorize",279,"32",689,"forests_00155_top_inverted.png","D","forests","32","top","top_inverted","forests_00155",1
"280","2023-04-13","00:59:05","5c842b246a4b9b0014c84c30","categorize","categorize",280,"32",755,"city_00207_top.png","D","city","36","top","top","city_00207",0
"281","2023-04-13","00:59:05","5c842b246a4b9b0014c84c30","categorize","categorize",281,"38",3651,"offices_00243_bottom_inverted.png","L","offices","38","bottom","bottom_inverted","offices_00243",1
"282","2023-04-13","00:59:05","5c842b246a4b9b0014c84c30","categorize","categorize",282,"32",759,"forests_00125_bottom.png","D","forests","32","bottom","bottom","forests_00125",1
"283","2023-04-13","00:59:05","5c842b246a4b9b0014c84c30","categorize","categorize",283,"32",623,"forests_00266_bottom_inverted.png","D","forests","32","bottom","bottom_inverted","forests_00266",1
"284","2023-04-13","00:59:05","5c842b246a4b9b0014c84c30","categorize","categorize",284,"36",764,"city_00292_bottom.png","J","city","36","bottom","bottom","city_00292",1
"285","2023-04-13","00:59:05","5c842b246a4b9b0014c84c30","categorize","categorize",285,"36",1428,"city_00210_bottom.png","J","city","36","bottom","bottom","city_00210",1
"286","2023-04-13","00:59:05","5c842b246a4b9b0014c84c30","categorize","categorize",286,"38",945,"offices_00243_top_inverted.png","L","offices","38","top","top_inverted","offices_00243",1
"287","2023-04-13","00:59:05","5c842b246a4b9b0014c84c30","categorize","categorize",287,"33",1314,"mountains_00168_top.png","F","mountains","33","top","top","mountains_00168",1
"288","2023-04-13","00:59:05","5c842b246a4b9b0014c84c30","categorize","categorize",288,"31",731,"beaches_00244_bottom.png","S","beaches","31","bottom","bottom","beaches_00244",1
"289","2023-04-13","00:59:05","5c842b246a4b9b0014c84c30","categorize","categorize",289,"33",1803,"mountains_00257_bottom.png","F","mountains","33","bottom","bottom","mountains_00257",1
"290","2023-04-13","00:59:05","5c842b246a4b9b0014c84c30","categorize","categorize",290,"32",953,"forests_00265_bottom.png","D","forests","32","bottom","bottom","forests_00265",1
"291","2023-04-13","00:59:05","5c842b246a4b9b0014c84c30","categorize","categorize",291,"33",881,"mountains_00230_bottom.png","F","mountains","33","bottom","bottom","mountains_00230",1
"292","2023-04-13","00:59:05","5c842b246a4b9b0014c84c30","categorize","categorize",292,"36",884,"city_00232_top.png","J","city","36","top","top","city_00232",1
"293","2023-04-13","00:59:05","5c842b246a4b9b0014c84c30","categorize","categorize",293,"31",1246,"beaches_00181_bottom_inverted.png","S","beaches","31","bottom","bottom_inverted","beaches_00181",1
"294","2023-04-13","00:59:05","5c842b246a4b9b0014c84c30","categorize","categorize",294,"32",898,"forests_00147_top.png","D","forests","32","top","top","forests_00147",1
"295","2023-04-13","00:59:05","5c842b246a4b9b0014c84c30","categorize","categorize",295,"37",1940,"highways_00155_bottom.png","K","highways","37","bottom","bottom","highways_00155",1
"296","2023-04-13","00:59:05","5c842b246a4b9b0014c84c30","categorize","categorize",296,"38",757,"offices_00379_bottom.png","L","offices","38","bottom","bottom","offices_00379",1
"297","2023-04-13","00:59:05","5c842b246a4b9b0014c84c30","categorize","categorize",297,"33",1349,"mountains_00265_bottom.png","F","mountains","33","bottom","bottom","mountains_00265",1
"298","2023-04-13","00:59:05","5c842b246a4b9b0014c84c30","categorize","categorize",298,"36",845,"city_00294_top.png","J","city","36","top","top","city_00294",1
"299","2023-04-13","00:59:05","5c842b246a4b9b0014c84c30","categorize","categorize",299,"31",753,"beaches_00266_bottom.png","S","beaches","31","bottom","bottom","beaches_00266",1
"300","2023-04-13","00:59:05","5c842b246a4b9b0014c84c30","categorize","categorize",300,"38",785,"offices_00122_top.png","L","offices","38","top","top","offices_00122",1
"301","2023-04-13","00:59:05","5c842b246a4b9b0014c84c30","categorize","categorize",301,"31",680,"beaches_00253_bottom.png","S","beaches","31","bottom","bottom","beaches_00253",1
"302","2023-04-13","00:59:05","5c842b246a4b9b0014c84c30","categorize","categorize",302,"37",1266,"highways_00302_bottom.png","K","highways","37","bottom","bottom","highways_00302",1
"303","2023-04-13","00:59:05","5c842b246a4b9b0014c84c30","categorize","categorize",303,"33",1390,"mountains_00105_top.png","F","mountains","33","top","top","mountains_00105",1
"304","2023-04-13","00:59:05","5c842b246a4b9b0014c84c30","categorize","categorize",304,"37",836,"highways_00205_bottom.png","K","highways","37","bottom","bottom","highways_00205",1
"305","2023-04-13","00:59:05","5c842b246a4b9b0014c84c30","categorize","categorize",305,"32",649,"forests_00150_bottom.png","D","forests","32","bottom","bottom","forests_00150",1
"306","2023-04-13","00:59:05","5c842b246a4b9b0014c84c30","categorize","categorize",306,"32",3421,"mountains_00105_bottom.png","D","mountains","33","bottom","bottom","mountains_00105",0
"307","2023-04-13","00:59:05","5c842b246a4b9b0014c84c30","categorize","categorize",307,"37",890,"highways_00324_top.png","K","highways","37","top","top","highways_00324",1
"308","2023-04-13","00:59:05","5c842b246a4b9b0014c84c30","categorize","categorize",308,"33",749,"mountains_00262_bottom.png","F","mountains","33","bottom","bottom","mountains_00262",1
"309","2023-04-13","00:59:05","5c842b246a4b9b0014c84c30","categorize","categorize",309,"33",700,"mountains_00285_bottom.png","F","mountains","33","bottom","bottom","mountains_00285",1
"310","2023-04-13","00:59:05","5c842b246a4b9b0014c84c30","categorize","categorize",310,"33",990,"mountains_00104_top.png","F","mountains","33","top","top","mountains_00104",1
"311","2023-04-13","00:59:05","5c842b246a4b9b0014c84c30","categorize","categorize",311,"36",893,"city_00299_bottom.png","J","city","36","bottom","bottom","city_00299",1
"312","2023-04-13","00:59:05","5c842b246a4b9b0014c84c30","categorize","categorize",312,"31",936,"beaches_00161_top.png","S","beaches","31","top","top","beaches_00161",1
"313","2023-04-13","00:59:05","5c842b246a4b9b0014c84c30","categorize","categorize",313,"37",928,"highways_00300_top.png","K","highways","37","top","top","highways_00300",1
"314","2023-04-13","00:59:05","5c842b246a4b9b0014c84c30","categorize","categorize",314,"32",833,"forests_00241_bottom.png","D","forests","32","bottom","bottom","forests_00241",1
"315","2023-04-13","00:59:05","5c842b246a4b9b0014c84c30","categorize","categorize",315,"33",742,"mountains_00163_bottom.png","F","mountains","33","bottom","bottom","mountains_00163",1
"316","2023-04-13","00:59:05","5c842b246a4b9b0014c84c30","categorize","categorize",316,"32",782,"forests_00288_top.png","D","forests","32","top","top","forests_00288",1
"317","2023-04-13","00:59:05","5c842b246a4b9b0014c84c30","categorize","categorize",317,"31",837,"beaches_00252_bottom.png","S","beaches","31","bottom","bottom","beaches_00252",1
"318","2023-04-13","00:59:05","5c842b246a4b9b0014c84c30","categorize","categorize",318,"33",849,"mountains_00106_top.png","F","mountains","33","top","top","mountains_00106",1
"319","2023-04-13","00:59:05","5c842b246a4b9b0014c84c30","categorize","categorize",319,"36",701,"city_00232_bottom.png","J","city","36","bottom","bottom","city_00232",1
"320","2023-04-13","00:59:05","5c842b246a4b9b0014c84c30","categorize","categorize",320,"37",1079,"highways_00305_top.png","K","highways","37","top","top","highways_00305",1
"321","2023-04-13","00:59:05","5c842b246a4b9b0014c84c30","categorize","categorize",321,"37",666,"highways_00184_top.png","K","highways","37","top","top","highways_00184",1
"322","2023-04-13","00:59:05","5c842b246a4b9b0014c84c30","categorize","categorize",322,"38",597,"offices_00172_bottom.png","L","offices","38","bottom","bottom","offices_00172",1
"323","2023-04-13","00:59:05","5c842b246a4b9b0014c84c30","categorize","categorize",323,"37",1283,"highways_00300_bottom.png","K","highways","37","bottom","bottom","highways_00300",1
"324","2023-04-13","00:59:05","5c842b246a4b9b0014c84c30","categorize","categorize",324,"38",637,"offices_00254_bottom.png","L","offices","38","bottom","bottom","offices_00254",1
"325","2023-04-13","00:59:05","5c842b246a4b9b0014c84c30","categorize","categorize",325,"37",778,"highways_00324_bottom.png","K","highways","37","bottom","bottom","highways_00324",1
"326","2023-04-13","00:59:05","5c842b246a4b9b0014c84c30","categorize","categorize",326,"31",2000,"forests_00217_top.png","S","forests","32","top","top","forests_00217",0
"327","2023-04-13","00:59:05","5c842b246a4b9b0014c84c30","categorize","categorize",327,"31",725,"beaches_00162_top.png","S","beaches","31","top","top","beaches_00162",1
"328","2023-04-13","00:59:05","5c842b246a4b9b0014c84c30","categorize","categorize",328,"37",687,"highways_00206_bottom.png","K","highways","37","bottom","bottom","highways_00206",1
"329","2023-04-13","00:59:05","5c842b246a4b9b0014c84c30","categorize","categorize",329,"32",922,"forests_00194_bottom_inverted.png","D","forests","32","bottom","bottom_inverted","forests_00194",1
"330","2023-04-13","00:59:05","5c842b246a4b9b0014c84c30","categorize","categorize",330,"32",899,"forests_00242_top_inverted.png","D","forests","32","top","top_inverted","forests_00242",1
"331","2023-04-13","00:59:05","5c842b246a4b9b0014c84c30","categorize","categorize",331,"32",629,"forests_00119_bottom.png","D","forests","32","bottom","bottom","forests_00119",1
"332","2023-04-13","00:59:05","5c842b246a4b9b0014c84c30","categorize","categorize",332,"31",658,"beaches_00126_bottom.png","S","beaches","31","bottom","bottom","beaches_00126",1
"333","2023-04-13","00:59:05","5c842b246a4b9b0014c84c30","categorize","categorize",333,"31",1750,"beaches_00178_top.png","S","beaches","31","top","top","beaches_00178",1
"334","2023-04-13","00:59:05","5c842b246a4b9b0014c84c30","categorize","categorize",334,"33",1150,"mountains_00238_top.png","F","mountains","33","top","top","mountains_00238",1
"335","2023-04-13","00:59:05","5c842b246a4b9b0014c84c30","categorize","categorize",335,"37",790,"highways_00254_bottom.png","K","highways","37","bottom","bottom","highways_00254",1
"336","2023-04-13","00:59:05","5c842b246a4b9b0014c84c30","categorize","categorize",336,"38",700,"offices_00149_bottom.png","L","offices","38","bottom","bottom","offices_00149",1
"337","2023-04-13","00:59:05","5c842b246a4b9b0014c84c30","categorize","categorize",337,"33",934,"mountains_00198_top.png","F","mountains","33","top","top","mountains_00198",1
"338","2023-04-13","00:59:05","5c842b246a4b9b0014c84c30","categorize","categorize",338,"33",879,"mountains_00265_top.png","F","mountains","33","top","top","mountains_00265",1
"339","2023-04-13","00:59:05","5c842b246a4b9b0014c84c30","categorize","categorize",339,"36",761,"city_00281_top.png","J","city","36","top","top","city_00281",1
"340","2023-04-13","00:59:05","5c842b246a4b9b0014c84c30","categorize","categorize",340,"38",897,"offices_00404_bottom.png","L","offices","38","bottom","bottom","offices_00404",1
"341","2023-04-13","00:59:05","5c842b246a4b9b0014c84c30","categorize","categorize",341,"31",1563,"beaches_00161_bottom.png","S","beaches","31","bottom","bottom","beaches_00161",1
"342","2023-04-13","00:59:05","5c842b246a4b9b0014c84c30","categorize","categorize",342,"31",1058,"beaches_00119_top.png","S","beaches","31","top","top","beaches_00119",1
"343","2023-04-13","00:59:05","5c842b246a4b9b0014c84c30","categorize","categorize",343,"37",726,"highways_00331_top.png","K","highways","37","top","top","highways_00331",1
"344","2023-04-13","00:59:05","5c842b246a4b9b0014c84c30","categorize","categorize",344,"31",704,"beaches_00162_top_inverted.png","S","beaches","31","top","top_inverted","beaches_00162",1
"345","2023-04-13","00:59:05","5c842b246a4b9b0014c84c30","categorize","categorize",345,"38",762,"offices_00395_bottom.png","L","offices","38","bottom","bottom","offices_00395",1
"346","2023-04-13","00:59:05","5c842b246a4b9b0014c84c30","categorize","categorize",346,"37",905,"highways_00155_top.png","K","highways","37","top","top","highways_00155",1
"347","2023-04-13","00:59:05","5c842b246a4b9b0014c84c30","categorize","categorize",347,"36",1459,"city_00199_bottom.png","J","city","36","bottom","bottom","city_00199",1
"348","2023-04-13","00:59:05","5c842b246a4b9b0014c84c30","categorize","categorize",348,"32",855,"forests_00242_bottom.png","D","forests","32","bottom","bottom","forests_00242",1
"349","2023-04-13","00:59:05","5c842b246a4b9b0014c84c30","categorize","categorize",349,"32",1987,"forests_00170_bottom.png","D","forests","32","bottom","bottom","forests_00170",1
"350","2023-04-13","00:59:05","5c842b246a4b9b0014c84c30","categorize","categorize",350,"32",633,"forests_00197_bottom.png","D","forests","32","bottom","bottom","forests_00197",1
"351","2023-04-13","00:59:05","5c842b246a4b9b0014c84c30","categorize","categorize",351,"37",638,"highways_00222_bottom.png","K","highways","37","bottom","bottom","highways_00222",1
"352","2023-04-13","05:58:25","5c5b31c415f6c30001de2df5","categorize","categorize",1,"37",2549,"highways_00328_bottom.png","K","highways","37","bottom","bottom","highways_00328",1
"353","2023-04-13","05:58:25","5c5b31c415f6c30001de2df5","categorize","categorize",2,"32",3105,"city_00140_bottom.png","D","city","36","bottom","bottom","city_00140",0
"354","2023-04-13","05:58:25","5c5b31c415f6c30001de2df5","categorize","categorize",3,"33",2029,"beaches_00162_bottom_inverted.png","F","beaches","31","bottom","bottom_inverted","beaches_00162",0
"355","2023-04-13","05:58:25","5c5b31c415f6c30001de2df5","categorize","categorize",4,"33",1415,"mountains_00107_bottom.png","F","mountains","33","bottom","bottom","mountains_00107",1
"356","2023-04-13","05:58:25","5c5b31c415f6c30001de2df5","categorize","categorize",5,"37",1151,"highways_00176_top.png","K","highways","37","top","top","highways_00176",1
"357","2023-04-13","05:58:25","5c5b31c415f6c30001de2df5","categorize","categorize",6,"36",6801,"city_00115_top.png","J","city","36","top","top","city_00115",1
"358","2023-04-13","05:58:25","5c5b31c415f6c30001de2df5","categorize","categorize",7,"32",2798,"beaches_00115_top.png","D","beaches","31","top","top","beaches_00115",0
"359","2023-04-13","05:58:25","5c5b31c415f6c30001de2df5","categorize","categorize",8,"36",2049,"highways_00205_top.png","J","highways","37","top","top","highways_00205",0
"360","2023-04-13","05:58:25","5c5b31c415f6c30001de2df5","categorize","categorize",9,"38",1003,"offices_00473_top.png","L","offices","38","top","top","offices_00473",1
"361","2023-04-13","05:58:25","5c5b31c415f6c30001de2df5","categorize","categorize",10,"32",1804,"forests_00126_bottom.png","D","forests","32","bottom","bottom","forests_00126",1
"362","2023-04-13","05:58:25","5c5b31c415f6c30001de2df5","categorize","categorize",11,"36",969,"city_00301_bottom.png","J","city","36","bottom","bottom","city_00301",1
"363","2023-04-13","05:58:25","5c5b31c415f6c30001de2df5","categorize","categorize",12,"32",1510,"mountains_00220_bottom.png","D","mountains","33","bottom","bottom","mountains_00220",0
"364","2023-04-13","05:58:25","5c5b31c415f6c30001de2df5","categorize","categorize",13,"37",1280,"highways_00220_bottom.png","K","highways","37","bottom","bottom","highways_00220",1
"365","2023-04-13","05:58:25","5c5b31c415f6c30001de2df5","categorize","categorize",14,"32",1719,"forests_00265_top.png","D","forests","32","top","top","forests_00265",1
"366","2023-04-13","05:58:25","5c5b31c415f6c30001de2df5","categorize","categorize",15,"33",675,"mountains_00223_top.png","F","mountains","33","top","top","mountains_00223",1
"367","2023-04-13","05:58:25","5c5b31c415f6c30001de2df5","categorize","categorize",16,"32",1804,"forests_00242_top.png","D","forests","32","top","top","forests_00242",1
"368","2023-04-13","05:58:25","5c5b31c415f6c30001de2df5","categorize","categorize",17,"38",1147,"offices_00184_bottom.png","L","offices","38","bottom","bottom","offices_00184",1
"369","2023-04-13","05:58:25","5c5b31c415f6c30001de2df5","categorize","categorize",18,"33",1849,"mountains_00178_top.png","F","mountains","33","top","top","mountains_00178",1
"370","2023-04-13","05:58:25","5c5b31c415f6c30001de2df5","categorize","categorize",19,"32",2924,"mountains_00223_bottom.png","D","mountains","33","bottom","bottom","mountains_00223",0
"371","2023-04-13","05:58:25","5c5b31c415f6c30001de2df5","categorize","categorize",20,"31",8995,"beaches_00252_bottom.png","S","beaches","31","bottom","bottom","beaches_00252",1
"372","2023-04-13","05:58:25","5c5b31c415f6c30001de2df5","categorize","categorize",21,"38",816,"offices_00124_bottom.png","L","offices","38","bottom","bottom","offices_00124",1
"373","2023-04-13","05:58:25","5c5b31c415f6c30001de2df5","categorize","categorize",22,"32",1773,"beaches_00178_bottom.png","D","beaches","31","bottom","bottom","beaches_00178",0
"374","2023-04-13","05:58:25","5c5b31c415f6c30001de2df5","categorize","categorize",23,"38",837,"offices_00166_bottom.png","L","offices","38","bottom","bottom","offices_00166",1
"375","2023-04-13","05:58:25","5c5b31c415f6c30001de2df5","categorize","categorize",24,"36",1608,"city_00299_bottom.png","J","city","36","bottom","bottom","city_00299",1
"376","2023-04-13","05:58:25","5c5b31c415f6c30001de2df5","categorize","categorize",25,"36",1437,"city_00232_top.png","J","city","36","top","top","city_00232",1
"377","2023-04-13","05:58:25","5c5b31c415f6c30001de2df5","categorize","categorize",26,"38",1147,"offices_00307_bottom.png","L","offices","38","bottom","bottom","offices_00307",1
"378","2023-04-13","05:58:25","5c5b31c415f6c30001de2df5","categorize","categorize",27,"38",714,"offices_00280_bottom.png","L","offices","38","bottom","bottom","offices_00280",1
"379","2023-04-13","05:58:25","5c5b31c415f6c30001de2df5","categorize","categorize",28,"32",1501,"forests_00294_top.png","D","forests","32","top","top","forests_00294",1
"380","2023-04-13","05:58:25","5c5b31c415f6c30001de2df5","categorize","categorize",29,"37",953,"highways_00268_bottom.png","K","highways","37","bottom","bottom","highways_00268",1
"381","2023-04-13","05:58:25","5c5b31c415f6c30001de2df5","categorize","categorize",30,"32",1264,"forests_00150_bottom.png","D","forests","32","bottom","bottom","forests_00150",1
"382","2023-04-13","05:58:25","5c5b31c415f6c30001de2df5","categorize","categorize",31,"38",701,"offices_00254_bottom.png","L","offices","38","bottom","bottom","offices_00254",1
"383","2023-04-13","05:58:25","5c5b31c415f6c30001de2df5","categorize","categorize",32,"37",2381,"beaches_00248_top.png","K","beaches","31","top","top","beaches_00248",0
"384","2023-04-13","05:58:25","5c5b31c415f6c30001de2df5","categorize","categorize",33,"32",1610,"beaches_00249_top.png","D","beaches","31","top","top","beaches_00249",0
"385","2023-04-13","05:58:25","5c5b31c415f6c30001de2df5","categorize","categorize",34,"36",821,"city_00299_top.png","J","city","36","top","top","city_00299",1
"386","2023-04-13","05:58:25","5c5b31c415f6c30001de2df5","categorize","categorize",35,"36",676,"city_00305_bottom.png","J","city","36","bottom","bottom","city_00305",1
"387","2023-04-13","05:58:25","5c5b31c415f6c30001de2df5","categorize","categorize",36,"33",987,"mountains_00125_top.png","F","mountains","33","top","top","mountains_00125",1
"388","2023-04-13","05:58:25","5c5b31c415f6c30001de2df5","categorize","categorize",37,"31",3051,"beaches_00181_top.png","S","beaches","31","top","top","beaches_00181",1
"389","2023-04-13","05:58:25","5c5b31c415f6c30001de2df5","categorize","categorize",38,"33",802,"mountains_00108_top.png","F","mountains","33","top","top","mountains_00108",1
"390","2023-04-13","05:58:25","5c5b31c415f6c30001de2df5","categorize","categorize",39,"36",1520,"city_00309_bottom.png","J","city","36","bottom","bottom","city_00309",1
"391","2023-04-13","05:58:25","5c5b31c415f6c30001de2df5","categorize","categorize",40,"37",883,"highways_00331_top.png","K","highways","37","top","top","highways_00331",1
"392","2023-04-13","05:58:25","5c5b31c415f6c30001de2df5","categorize","categorize",41,"33",715,"mountains_00282_top.png","F","mountains","33","top","top","mountains_00282",1
"393","2023-04-13","05:58:25","5c5b31c415f6c30001de2df5","categorize","categorize",42,"32",938,"forests_00155_top_inverted.png","D","forests","32","top","top_inverted","forests_00155",1
"394","2023-04-13","05:58:25","5c5b31c415f6c30001de2df5","categorize","categorize",43,"37",853,"highways_00155_bottom.png","K","highways","37","bottom","bottom","highways_00155",1
"395","2023-04-13","05:58:25","5c5b31c415f6c30001de2df5","categorize","categorize",44,"36",584,"city_00231_bottom.png","J","city","36","bottom","bottom","city_00231",1
"396","2023-04-13","05:58:25","5c5b31c415f6c30001de2df5","categorize","categorize",45,"33",1391,"mountains_00265_top.png","F","mountains","33","top","top","mountains_00265",1
"397","2023-04-13","05:58:25","5c5b31c415f6c30001de2df5","categorize","categorize",46,"31",1639,"beaches_00126_bottom.png","S","beaches","31","bottom","bottom","beaches_00126",1
"398","2023-04-13","05:58:25","5c5b31c415f6c30001de2df5","categorize","categorize",47,"36",825,"city_00218_top.png","J","city","36","top","top","city_00218",1
"399","2023-04-13","05:58:25","5c5b31c415f6c30001de2df5","categorize","categorize",48,"36",747,"city_00234_bottom.png","J","city","36","bottom","bottom","city_00234",1
"400","2023-04-13","05:58:25","5c5b31c415f6c30001de2df5","categorize","categorize",49,"37",997,"highways_00324_bottom.png","K","highways","37","bottom","bottom","highways_00324",1
"401","2023-04-13","05:58:25","5c5b31c415f6c30001de2df5","categorize","categorize",50,"38",688,"offices_00166_top.png","L","offices","38","top","top","offices_00166",1
"402","2023-04-13","05:58:25","5c5b31c415f6c30001de2df5","categorize","categorize",51,"32",1080,"forests_00111_top.png","D","forests","32","top","top","forests_00111",1
"403","2023-04-13","05:58:25","5c5b31c415f6c30001de2df5","categorize","categorize",52,"37",762,"highways_00161_top.png","K","highways","37","top","top","highways_00161",1
"404","2023-04-13","05:58:25","5c5b31c415f6c30001de2df5","categorize","categorize",53,"32",921,"forests_00265_bottom.png","D","forests","32","bottom","bottom","forests_00265",1
"405","2023-04-13","05:58:25","5c5b31c415f6c30001de2df5","categorize","categorize",54,"33",3437,"beaches_00265_bottom.png","F","beaches","31","bottom","bottom","beaches_00265",0
"406","2023-04-13","05:58:25","5c5b31c415f6c30001de2df5","categorize","categorize",55,"33",741,"mountains_00163_top.png","F","mountains","33","top","top","mountains_00163",1
"407","2023-04-13","05:58:25","5c5b31c415f6c30001de2df5","categorize","categorize",56,"38",633,"offices_00141_top.png","L","offices","38","top","top","offices_00141",1
"408","2023-04-13","05:58:25","5c5b31c415f6c30001de2df5","categorize","categorize",57,"37",1453,"highways_00322_top_inverted.png","K","highways","37","top","top_inverted","highways_00322",1
"409","2023-04-13","05:58:25","5c5b31c415f6c30001de2df5","categorize","categorize",58,"38",1760,"offices_00455_top.png","L","offices","38","top","top","offices_00455",1
"410","2023-04-13","05:58:25","5c5b31c415f6c30001de2df5","categorize","categorize",59,"32",1190,"forests_00217_bottom.png","D","forests","32","bottom","bottom","forests_00217",1
"411","2023-04-13","05:58:25","5c5b31c415f6c30001de2df5","categorize","categorize",60,"32",993,"forests_00197_bottom.png","D","forests","32","bottom","bottom","forests_00197",1
"412","2023-04-13","05:58:25","5c5b31c415f6c30001de2df5","categorize","categorize",61,"37",896,"highways_00268_top.png","K","highways","37","top","top","highways_00268",1
"413","2023-04-13","05:58:25","5c5b31c415f6c30001de2df5","categorize","categorize",62,"36",2726,"city_00189_top.png","J","city","36","top","top","city_00189",1
"414","2023-04-13","05:58:25","5c5b31c415f6c30001de2df5","categorize","categorize",63,"32",959,"forests_00147_top.png","D","forests","32","top","top","forests_00147",1
"415","2023-04-13","05:58:25","5c5b31c415f6c30001de2df5","categorize","categorize",64,"32",676,"forests_00150_top.png","D","forests","32","top","top","forests_00150",1
"416","2023-04-13","05:58:25","5c5b31c415f6c30001de2df5","categorize","categorize",65,"38",724,"offices_00395_top.png","L","offices","38","top","top","offices_00395",1
"417","2023-04-13","05:58:25","5c5b31c415f6c30001de2df5","categorize","categorize",66,"32",523,"forests_00294_bottom.png","D","forests","32","bottom","bottom","forests_00294",1
"418","2023-04-13","05:58:25","5c5b31c415f6c30001de2df5","categorize","categorize",67,"37",762,"highways_00302_bottom.png","K","highways","37","bottom","bottom","highways_00302",1
"419","2023-04-13","05:58:25","5c5b31c415f6c30001de2df5","categorize","categorize",68,"38",639,"offices_00484_top.png","L","offices","38","top","top","offices_00484",1
"420","2023-04-13","05:58:25","5c5b31c415f6c30001de2df5","categorize","categorize",69,"33",986,"mountains_20081106_00096_top_inverted.png","F","mountains","33","top","top_inverted","mountains_20081106_00096",1
"421","2023-04-13","05:58:25","5c5b31c415f6c30001de2df5","categorize","categorize",70,"33",600,"mountains_00220_top.png","F","mountains","33","top","top","mountains_00220",1
"422","2023-04-13","05:58:25","5c5b31c415f6c30001de2df5","categorize","categorize",71,"32",919,"beaches_20081106_00066_bottom.png","D","beaches","31","bottom","bottom","beaches_20081106_00066",0
"423","2023-04-13","05:58:25","5c5b31c415f6c30001de2df5","categorize","categorize",72,"32",1815,"forests_00197_top.png","D","forests","32","top","top","forests_00197",1
"424","2023-04-13","05:58:25","5c5b31c415f6c30001de2df5","categorize","categorize",73,"37",4119,"highways_00305_top.png","K","highways","37","top","top","highways_00305",1
"425","2023-04-13","05:58:25","5c5b31c415f6c30001de2df5","categorize","categorize",74,"33",1031,"mountains_00125_bottom.png","F","mountains","33","bottom","bottom","mountains_00125",1
"426","2023-04-13","05:58:25","5c5b31c415f6c30001de2df5","categorize","categorize",75,"37",774,"highways_00155_top.png","K","highways","37","top","top","highways_00155",1
"427","2023-04-13","05:58:25","5c5b31c415f6c30001de2df5","categorize","categorize",76,"36",1057,"city_00307_bottom.png","J","city","36","bottom","bottom","city_00307",1
"428","2023-04-13","05:58:25","5c5b31c415f6c30001de2df5","categorize","categorize",77,"38",669,"offices_00117_bottom.png","L","offices","38","bottom","bottom","offices_00117",1
"429","2023-04-13","05:58:25","5c5b31c415f6c30001de2df5","categorize","categorize",78,"33",755,"mountains_00265_bottom.png","F","mountains","33","bottom","bottom","mountains_00265",1
"430","2023-04-13","05:58:25","5c5b31c415f6c30001de2df5","categorize","categorize",79,"32",1022,"forests_00114_top_inverted.png","D","forests","32","top","top_inverted","forests_00114",1
"431","2023-04-13","05:58:25","5c5b31c415f6c30001de2df5","categorize","categorize",80,"32",1969,"beaches_20081106_00066_top.png","D","beaches","31","top","top","beaches_20081106_00066",0
"432","2023-04-13","05:58:25","5c5b31c415f6c30001de2df5","categorize","categorize",81,"33",647,"mountains_00215_bottom.png","F","mountains","33","bottom","bottom","mountains_00215",1
"433","2023-04-13","05:58:25","5c5b31c415f6c30001de2df5","categorize","categorize",82,"37",618,"highways_00254_bottom.png","K","highways","37","bottom","bottom","highways_00254",1
"434","2023-04-13","05:58:25","5c5b31c415f6c30001de2df5","categorize","categorize",83,"32",2206,"forests_00194_top_inverted.png","D","forests","32","top","top_inverted","forests_00194",1
"435","2023-04-13","05:58:25","5c5b31c415f6c30001de2df5","categorize","categorize",84,"38",655,"offices_00243_top.png","L","offices","38","top","top","offices_00243",1
"436","2023-04-13","05:58:25","5c5b31c415f6c30001de2df5","categorize","categorize",85,"32",1128,"forests_00125_bottom.png","D","forests","32","bottom","bottom","forests_00125",1
"437","2023-04-13","05:58:25","5c5b31c415f6c30001de2df5","categorize","categorize",86,"33",910,"mountains_00216_bottom.png","F","mountains","33","bottom","bottom","mountains_00216",1
"438","2023-04-13","05:58:25","5c5b31c415f6c30001de2df5","categorize","categorize",87,"37",635,"highways_00161_bottom.png","K","highways","37","bottom","bottom","highways_00161",1
"439","2023-04-13","05:58:25","5c5b31c415f6c30001de2df5","categorize","categorize",88,"36",1202,"city_00147_top.png","J","city","36","top","top","city_00147",1
"440","2023-04-13","05:58:25","5c5b31c415f6c30001de2df5","categorize","categorize",89,"33",1086,"forests_00155_bottom.png","F","forests","32","bottom","bottom","forests_00155",0
"441","2023-04-13","05:58:25","5c5b31c415f6c30001de2df5","categorize","categorize",90,"33",747,"beaches_00244_bottom_inverted.png","F","beaches","31","bottom","bottom_inverted","beaches_00244",0
"442","2023-04-13","05:58:25","5c5b31c415f6c30001de2df5","categorize","categorize",91,"37",729,"highways_00187_top.png","K","highways","37","top","top","highways_00187",1
"443","2023-04-13","05:58:25","5c5b31c415f6c30001de2df5","categorize","categorize",92,"31",1106,"beaches_00243_bottom.png","S","beaches","31","bottom","bottom","beaches_00243",1
"444","2023-04-13","05:58:25","5c5b31c415f6c30001de2df5","categorize","categorize",93,"33",802,"mountains_00168_top.png","F","mountains","33","top","top","mountains_00168",1
"445","2023-04-13","05:58:25","5c5b31c415f6c30001de2df5","categorize","categorize",94,"37",1115,"highways_00305_bottom.png","K","highways","37","bottom","bottom","highways_00305",1
"446","2023-04-13","05:58:25","5c5b31c415f6c30001de2df5","categorize","categorize",95,"36",1423,"city_00140_top.png","J","city","36","top","top","city_00140",1
"447","2023-04-13","05:58:25","5c5b31c415f6c30001de2df5","categorize","categorize",96,"32",1181,"forests_00155_bottom_inverted.png","D","forests","32","bottom","bottom_inverted","forests_00155",1
"448","2023-04-13","05:58:25","5c5b31c415f6c30001de2df5","categorize","categorize",97,"31",1200,"beaches_00202_top.png","S","beaches","31","top","top","beaches_00202",1
"449","2023-04-13","05:58:25","5c5b31c415f6c30001de2df5","categorize","categorize",98,"37",636,"highways_00146_bottom.png","K","highways","37","bottom","bottom","highways_00146",1
"450","2023-04-13","05:58:25","5c5b31c415f6c30001de2df5","categorize","categorize",99,"36",1037,"city_00305_top.png","J","city","36","top","top","city_00305",1
"451","2023-04-13","05:58:25","5c5b31c415f6c30001de2df5","categorize","categorize",100,"31",1855,"beaches_00256_bottom.png","S","beaches","31","bottom","bottom","beaches_00256",1
"452","2023-04-13","05:58:25","5c5b31c415f6c30001de2df5","categorize","categorize",101,"32",2499,"forests_00267_bottom.png","D","forests","32","bottom","bottom","forests_00267",1
"453","2023-04-13","05:58:25","5c5b31c415f6c30001de2df5","categorize","categorize",102,"38",794,"offices_00508_bottom.png","L","offices","38","bottom","bottom","offices_00508",1
"454","2023-04-13","05:58:25","5c5b31c415f6c30001de2df5","categorize","categorize",103,"33",732,"mountains_00106_bottom.png","F","mountains","33","bottom","bottom","mountains_00106",1
"455","2023-04-13","05:58:25","5c5b31c415f6c30001de2df5","categorize","categorize",104,"31",816,"beaches_00202_bottom.png","S","beaches","31","bottom","bottom","beaches_00202",1
"456","2023-04-13","05:58:25","5c5b31c415f6c30001de2df5","categorize","categorize",105,"38",920,"offices_00304_top.png","L","offices","38","top","top","offices_00304",1
"457","2023-04-13","05:58:25","5c5b31c415f6c30001de2df5","categorize","categorize",106,"31",1118,"beaches_00243_top.png","S","beaches","31","top","top","beaches_00243",1
"458","2023-04-13","05:58:25","5c5b31c415f6c30001de2df5","categorize","categorize",107,"37",824,"city_00281_bottom.png","K","city","36","bottom","bottom","city_00281",0
"459","2023-04-13","05:58:25","5c5b31c415f6c30001de2df5","categorize","categorize",108,"33",821,"mountains_00105_top.png","F","mountains","33","top","top","mountains_00105",1
"460","2023-04-13","05:58:25","5c5b31c415f6c30001de2df5","categorize","categorize",109,"38",1203,"offices_00243_bottom_inverted.png","L","offices","38","bottom","bottom_inverted","offices_00243",1
"461","2023-04-13","05:58:25","5c5b31c415f6c30001de2df5","categorize","categorize",110,"32",8425,"forests_00126_top.png","D","forests","32","top","top","forests_00126",1
"462","2023-04-13","05:58:25","5c5b31c415f6c30001de2df5","categorize","categorize",111,"36",1652,"city_00219_bottom.png","J","city","36","bottom","bottom","city_00219",1
"463","2023-04-13","05:58:25","5c5b31c415f6c30001de2df5","categorize","categorize",112,"33",608,"mountains_00238_bottom.png","F","mountains","33","bottom","bottom","mountains_00238",1
"464","2023-04-13","05:58:25","5c5b31c415f6c30001de2df5","categorize","categorize",113,"36",4081,"city_00292_top.png","J","city","36","top","top","city_00292",1
"465","2023-04-13","05:58:25","5c5b31c415f6c30001de2df5","categorize","categorize",114,"38",665,"offices_00281_top.png","L","offices","38","top","top","offices_00281",1
"466","2023-04-13","05:58:25","5c5b31c415f6c30001de2df5","categorize","categorize",115,"33",615,"mountains_00282_bottom.png","F","mountains","33","bottom","bottom","mountains_00282",1
"467","2023-04-13","05:58:25","5c5b31c415f6c30001de2df5","categorize","categorize",116,"31",2997,"beaches_00252_top.png","S","beaches","31","top","top","beaches_00252",1
"468","2023-04-13","05:58:25","5c5b31c415f6c30001de2df5","categorize","categorize",117,"38",628,"offices_00282_top.png","L","offices","38","top","top","offices_00282",1
"469","2023-04-13","05:58:25","5c5b31c415f6c30001de2df5","categorize","categorize",118,"36",2392,"city_00222_bottom.png","J","city","36","bottom","bottom","city_00222",1
"470","2023-04-13","05:58:25","5c5b31c415f6c30001de2df5","categorize","categorize",119,"38",661,"offices_00149_top.png","L","offices","38","top","top","offices_00149",1
"471","2023-04-13","05:58:25","5c5b31c415f6c30001de2df5","categorize","categorize",120,"38",2314,"offices_00117_top.png","L","offices","38","top","top","offices_00117",1
"472","2023-04-13","05:58:25","5c5b31c415f6c30001de2df5","categorize","categorize",121,"32",2058,"forests_00288_top.png","D","forests","32","top","top","forests_00288",1
"473","2023-04-13","05:58:25","5c5b31c415f6c30001de2df5","categorize","categorize",122,"37",1434,"highways_00208_bottom.png","K","highways","37","bottom","bottom","highways_00208",1
"474","2023-04-13","05:58:25","5c5b31c415f6c30001de2df5","categorize","categorize",123,"38",972,"offices_00114_top.png","L","offices","38","top","top","offices_00114",1
"475","2023-04-13","05:58:25","5c5b31c415f6c30001de2df5","categorize","categorize",124,"33",884,"mountains_00178_bottom.png","F","mountains","33","bottom","bottom","mountains_00178",1
"476","2023-04-13","05:58:25","5c5b31c415f6c30001de2df5","categorize","categorize",125,"31",865,"beaches_00244_top.png","S","beaches","31","top","top","beaches_00244",1
"477","2023-04-13","05:58:25","5c5b31c415f6c30001de2df5","categorize","categorize",126,"37",1461,"beaches_00126_top.png","K","beaches","31","top","top","beaches_00126",0
"478","2023-04-13","05:58:25","5c5b31c415f6c30001de2df5","categorize","categorize",127,"38",735,"offices_00122_bottom.png","L","offices","38","bottom","bottom","offices_00122",1
"479","2023-04-13","05:58:25","5c5b31c415f6c30001de2df5","categorize","categorize",128,"32",1709,"mountains_00104_top_inverted.png","D","mountains","33","top","top_inverted","mountains_00104",0
"480","2023-04-13","05:58:25","5c5b31c415f6c30001de2df5","categorize","categorize",129,"37",2027,"highways_00322_top.png","K","highways","37","top","top","highways_00322",1
"481","2023-04-13","05:58:25","5c5b31c415f6c30001de2df5","categorize","categorize",130,"32",3947,"forests_00266_top_inverted.png","D","forests","32","top","top_inverted","forests_00266",1
"482","2023-04-13","05:58:25","5c5b31c415f6c30001de2df5","categorize","categorize",131,"36",774,"city_00301_top.png","J","city","36","top","top","city_00301",1
"483","2023-04-13","05:58:25","5c5b31c415f6c30001de2df5","categorize","categorize",132,"32",975,"forests_00247_top.png","D","forests","32","top","top","forests_00247",1
"484","2023-04-13","05:58:25","5c5b31c415f6c30001de2df5","categorize","categorize",133,"36",1071,"city_00189_bottom.png","J","city","36","bottom","bottom","city_00189",1
"485","2023-04-13","05:58:25","5c5b31c415f6c30001de2df5","categorize","categorize",134,"36",1710,"city_00281_top_inverted.png","J","city","36","top","top_inverted","city_00281",1
"486","2023-04-13","05:58:25","5c5b31c415f6c30001de2df5","categorize","categorize",135,"36",765,"city_00207_bottom.png","J","city","36","bottom","bottom","city_00207",1
"487","2023-04-13","05:58:25","5c5b31c415f6c30001de2df5","categorize","categorize",136,"37",855,"highways_00300_bottom.png","K","highways","37","bottom","bottom","highways_00300",1
"488","2023-04-13","05:58:25","5c5b31c415f6c30001de2df5","categorize","categorize",137,"37",785,"city_00210_bottom.png","K","city","36","bottom","bottom","city_00210",0
"489","2023-04-13","05:58:25","5c5b31c415f6c30001de2df5","categorize","categorize",138,"36",1272,"city_00272_bottom.png","J","city","36","bottom","bottom","city_00272",1
"490","2023-04-13","05:58:25","5c5b31c415f6c30001de2df5","categorize","categorize",139,"33",865,"mountains_00285_bottom.png","F","mountains","33","bottom","bottom","mountains_00285",1
"491","2023-04-13","05:58:25","5c5b31c415f6c30001de2df5","categorize","categorize",140,"38",1152,"offices_00304_bottom.png","L","offices","38","bottom","bottom","offices_00304",1
"492","2023-04-13","05:58:25","5c5b31c415f6c30001de2df5","categorize","categorize",141,"36",984,"city_00281_top.png","J","city","36","top","top","city_00281",1
"493","2023-04-13","05:58:25","5c5b31c415f6c30001de2df5","categorize","categorize",142,"37",768,"highways_00318_bottom.png","K","highways","37","bottom","bottom","highways_00318",1
"494","2023-04-13","05:58:25","5c5b31c415f6c30001de2df5","categorize","categorize",143,"32",5362,"beaches_00149_top.png","D","beaches","31","top","top","beaches_00149",0
"495","2023-04-13","05:58:25","5c5b31c415f6c30001de2df5","categorize","categorize",144,"32",703,"forests_00195_top.png","D","forests","32","top","top","forests_00195",1
"496","2023-04-13","05:58:25","5c5b31c415f6c30001de2df5","categorize","categorize",145,"38",1194,"offices_00120_top.png","L","offices","38","top","top","offices_00120",1
"497","2023-04-13","05:58:25","5c5b31c415f6c30001de2df5","categorize","categorize",146,"32",927,"forests_00136_top.png","D","forests","32","top","top","forests_00136",1
"498","2023-04-13","05:58:25","5c5b31c415f6c30001de2df5","categorize","categorize",147,"32",609,"forests_00195_bottom.png","D","forests","32","bottom","bottom","forests_00195",1
"499","2023-04-13","05:58:25","5c5b31c415f6c30001de2df5","categorize","categorize",148,"33",472,"mountains_00256_top.png","F","mountains","33","top","top","mountains_00256",1
"500","2023-04-13","05:58:25","5c5b31c415f6c30001de2df5","categorize","categorize",149,"36",1031,"city_00115_bottom.png","J","city","36","bottom","bottom","city_00115",1
"501","2023-04-13","05:58:25","5c5b31c415f6c30001de2df5","categorize","categorize",150,"38",698,"offices_00172_top.png","L","offices","38","top","top","offices_00172",1
"502","2023-04-13","05:58:25","5c5b31c415f6c30001de2df5","categorize","categorize",151,"32",942,"forests_00194_top.png","D","forests","32","top","top","forests_00194",1
"503","2023-04-13","05:58:25","5c5b31c415f6c30001de2df5","categorize","categorize",152,"32",705,"forests_00217_top.png","D","forests","32","top","top","forests_00217",1
"504","2023-04-13","05:58:25","5c5b31c415f6c30001de2df5","categorize","categorize",153,"38",611,"offices_00291_top.png","L","offices","38","top","top","offices_00291",1
"505","2023-04-13","05:58:25","5c5b31c415f6c30001de2df5","categorize","categorize",154,"38",536,"offices_00473_bottom.png","L","offices","38","bottom","bottom","offices_00473",1
"506","2023-04-13","05:58:25","5c5b31c415f6c30001de2df5","categorize","categorize",155,"31",935,"beaches_00253_bottom.png","S","beaches","31","bottom","bottom","beaches_00253",1
"507","2023-04-13","05:58:25","5c5b31c415f6c30001de2df5","categorize","categorize",156,"38",632,"offices_00124_top.png","L","offices","38","top","top","offices_00124",1
"508","2023-04-13","05:58:25","5c5b31c415f6c30001de2df5","categorize","categorize",157,"38",761,"offices_00243_top_inverted.png","L","offices","38","top","top_inverted","offices_00243",1
"509","2023-04-13","05:58:25","5c5b31c415f6c30001de2df5","categorize","categorize",158,"31",3429,"beaches_00224_top.png","S","beaches","31","top","top","beaches_00224",1
"510","2023-04-13","05:58:25","5c5b31c415f6c30001de2df5","categorize","categorize",159,"33",1564,"mountains_00228_bottom.png","F","mountains","33","bottom","bottom","mountains_00228",1
"511","2023-04-13","05:58:25","5c5b31c415f6c30001de2df5","categorize","categorize",160,"38",628,"offices_00114_bottom.png","L","offices","38","bottom","bottom","offices_00114",1
"512","2023-04-13","05:58:25","5c5b31c415f6c30001de2df5","categorize","categorize",161,"36",1026,"city_00231_top.png","J","city","36","top","top","city_00231",1
"513","2023-04-13","05:58:25","5c5b31c415f6c30001de2df5","categorize","categorize",162,"32",1066,"forests_00119_bottom.png","D","forests","32","bottom","bottom","forests_00119",1
"514","2023-04-13","05:58:25","5c5b31c415f6c30001de2df5","categorize","categorize",163,"36",1480,"city_00232_bottom.png","J","city","36","bottom","bottom","city_00232",1
"515","2023-04-13","05:58:25","5c5b31c415f6c30001de2df5","categorize","categorize",164,"38",587,"offices_00291_bottom.png","L","offices","38","bottom","bottom","offices_00291",1
"516","2023-04-13","05:58:25","5c5b31c415f6c30001de2df5","categorize","categorize",165,"33",635,"mountains_00262_bottom.png","F","mountains","33","bottom","bottom","mountains_00262",1
"517","2023-04-13","05:58:25","5c5b31c415f6c30001de2df5","categorize","categorize",166,"32",1593,"forests_00189_top.png","D","forests","32","top","top","forests_00189",1
"518","2023-04-13","05:58:25","5c5b31c415f6c30001de2df5","categorize","categorize",167,"31",742,"beaches_00119_bottom.png","S","beaches","31","bottom","bottom","beaches_00119",1
"519","2023-04-13","05:58:25","5c5b31c415f6c30001de2df5","categorize","categorize",168,"36",1225,"city_00310_bottom.png","J","city","36","bottom","bottom","city_00310",1
"520","2023-04-13","05:58:25","5c5b31c415f6c30001de2df5","categorize","categorize",169,"32",1060,"forests_00274_bottom.png","D","forests","32","bottom","bottom","forests_00274",1
"521","2023-04-13","05:58:25","5c5b31c415f6c30001de2df5","categorize","categorize",170,"37",1310,"highways_00254_top.png","K","highways","37","top","top","highways_00254",1
"522","2023-04-13","05:58:25","5c5b31c415f6c30001de2df5","categorize","categorize",171,"31",927,"beaches_00162_bottom.png","S","beaches","31","bottom","bottom","beaches_00162",1
"523","2023-04-13","05:58:25","5c5b31c415f6c30001de2df5","categorize","categorize",172,"31",690,"beaches_00249_bottom.png","S","beaches","31","bottom","bottom","beaches_00249",1
"524","2023-04-13","05:58:25","5c5b31c415f6c30001de2df5","categorize","categorize",173,"31",611,"beaches_00161_bottom.png","S","beaches","31","bottom","bottom","beaches_00161",1
"525","2023-04-13","05:58:25","5c5b31c415f6c30001de2df5","categorize","categorize",174,"36",1381,"city_00231_top_inverted.png","J","city","36","top","top_inverted","city_00231",1
"526","2023-04-13","05:58:25","5c5b31c415f6c30001de2df5","categorize","categorize",175,"38",682,"offices_00120_bottom.png","L","offices","38","bottom","bottom","offices_00120",1
"527","2023-04-13","05:58:25","5c5b31c415f6c30001de2df5","categorize","categorize",176,"33",1103,"mountains_00104_top.png","F","mountains","33","top","top","mountains_00104",1
"528","2023-04-13","05:58:25","5c5b31c415f6c30001de2df5","categorize","categorize",177,"37",1180,"highways_00220_top.png","K","highways","37","top","top","highways_00220",1
"529","2023-04-13","05:58:25","5c5b31c415f6c30001de2df5","categorize","categorize",178,"37",718,"highways_00331_bottom.png","K","highways","37","bottom","bottom","highways_00331",1
"530","2023-04-13","05:58:25","5c5b31c415f6c30001de2df5","categorize","categorize",179,"31",1838,"beaches_00251_top.png","S","beaches","31","top","top","beaches_00251",1
"531","2023-04-13","05:58:25","5c5b31c415f6c30001de2df5","categorize","categorize",180,"32",590,"forests_00266_top.png","D","forests","32","top","top","forests_00266",1
"532","2023-04-13","05:58:25","5c5b31c415f6c30001de2df5","categorize","categorize",181,"32",967,"forests_00241_top.png","D","forests","32","top","top","forests_00241",1
"533","2023-04-13","05:58:25","5c5b31c415f6c30001de2df5","categorize","categorize",182,"31",782,"beaches_00162_top.png","S","beaches","31","top","top","beaches_00162",1
"534","2023-04-13","05:58:25","5c5b31c415f6c30001de2df5","categorize","categorize",183,"32",826,"beaches_00235_top.png","D","beaches","31","top","top","beaches_00235",0
"535","2023-04-13","05:58:25","5c5b31c415f6c30001de2df5","categorize","categorize",184,"37",674,"highways_00300_top.png","K","highways","37","top","top","highways_00300",1
"536","2023-04-13","05:58:25","5c5b31c415f6c30001de2df5","categorize","categorize",185,"32",777,"forests_00114_bottom.png","D","forests","32","bottom","bottom","forests_00114",1
"537","2023-04-13","05:58:25","5c5b31c415f6c30001de2df5","categorize","categorize",186,"32",510,"forests_00253_top.png","D","forests","32","top","top","forests_00253",1
"538","2023-04-13","05:58:25","5c5b31c415f6c30001de2df5","categorize","categorize",187,"37",639,"city_00281_bottom_inverted.png","K","city","36","bottom","bottom_inverted","city_00281",0
"539","2023-04-13","05:58:25","5c5b31c415f6c30001de2df5","categorize","categorize",188,"32",731,"forests_00266_bottom.png","D","forests","32","bottom","bottom","forests_00266",1
"540","2023-04-13","05:58:25","5c5b31c415f6c30001de2df5","categorize","categorize",189,"37",1296,"highways_00206_bottom_inverted.png","K","highways","37","bottom","bottom_inverted","highways_00206",1
"541","2023-04-13","05:58:25","5c5b31c415f6c30001de2df5","categorize","categorize",190,"33",832,"mountains_00106_top.png","F","mountains","33","top","top","mountains_00106",1
"542","2023-04-13","05:58:25","5c5b31c415f6c30001de2df5","categorize","categorize",191,"32",598,"forests_00155_top.png","D","forests","32","top","top","forests_00155",1
"543","2023-04-13","05:58:25","5c5b31c415f6c30001de2df5","categorize","categorize",192,"36",868,"highways_00206_top_inverted.png","J","highways","37","top","top_inverted","highways_00206",0
"544","2023-04-13","05:58:25","5c5b31c415f6c30001de2df5","categorize","categorize",193,"37",761,"highways_00184_top.png","K","highways","37","top","top","highways_00184",1
"545","2023-04-13","05:58:25","5c5b31c415f6c30001de2df5","categorize","categorize",194,"31",783,"beaches_00119_top.png","S","beaches","31","top","top","beaches_00119",1
"546","2023-04-13","05:58:25","5c5b31c415f6c30001de2df5","categorize","categorize",195,"32",821,"forests_00274_top.png","D","forests","32","top","top","forests_00274",1
"547","2023-04-13","05:58:25","5c5b31c415f6c30001de2df5","categorize","categorize",196,"37",1148,"highways_00184_bottom.png","K","highways","37","bottom","bottom","highways_00184",1
"548","2023-04-13","05:58:25","5c5b31c415f6c30001de2df5","categorize","categorize",197,"33",1070,"mountains_00105_bottom.png","F","mountains","33","bottom","bottom","mountains_00105",1
"549","2023-04-13","05:58:25","5c5b31c415f6c30001de2df5","categorize","categorize",198,"31",1507,"beaches_00193_top.png","S","beaches","31","top","top","beaches_00193",1
"550","2023-04-13","05:58:25","5c5b31c415f6c30001de2df5","categorize","categorize",199,"31",1700,"beaches_00193_bottom.png","S","beaches","31","bottom","bottom","beaches_00193",1
"551","2023-04-13","05:58:25","5c5b31c415f6c30001de2df5","categorize","categorize",200,"36",880,"city_00207_top.png","J","city","36","top","top","city_00207",1
"552","2023-04-13","05:58:25","5c5b31c415f6c30001de2df5","categorize","categorize",201,"37",619,"highways_00329_bottom.png","K","highways","37","bottom","bottom","highways_00329",1
"553","2023-04-13","05:58:25","5c5b31c415f6c30001de2df5","categorize","categorize",202,"38",707,"offices_00455_bottom.png","L","offices","38","bottom","bottom","offices_00455",1
"554","2023-04-13","05:58:25","5c5b31c415f6c30001de2df5","categorize","categorize",203,"32",868,"forests_00114_bottom_inverted.png","D","forests","32","bottom","bottom_inverted","forests_00114",1
"555","2023-04-13","05:58:25","5c5b31c415f6c30001de2df5","categorize","categorize",204,"37",1249,"highways_00199_bottom.png","K","highways","37","bottom","bottom","highways_00199",1
"556","2023-04-13","05:58:25","5c5b31c415f6c30001de2df5","categorize","categorize",205,"33",668,"mountains_00238_top.png","F","mountains","33","top","top","mountains_00238",1
"557","2023-04-13","05:58:25","5c5b31c415f6c30001de2df5","categorize","categorize",206,"33",775,"mountains_00256_bottom.png","F","mountains","33","bottom","bottom","mountains_00256",1
"558","2023-04-13","05:58:25","5c5b31c415f6c30001de2df5","categorize","categorize",207,"33",525,"mountains_00104_bottom.png","F","mountains","33","bottom","bottom","mountains_00104",1
"559","2023-04-13","05:58:25","5c5b31c415f6c30001de2df5","categorize","categorize",208,"36",699,"city_00136_bottom.png","J","city","36","bottom","bottom","city_00136",1
"560","2023-04-13","05:58:25","5c5b31c415f6c30001de2df5","categorize","categorize",209,"33",680,"beaches_00248_bottom.png","F","beaches","31","bottom","bottom","beaches_00248",0
"561","2023-04-13","05:58:25","5c5b31c415f6c30001de2df5","categorize","categorize",210,"31",937,"beaches_00185_bottom.png","S","beaches","31","bottom","bottom","beaches_00185",1
"562","2023-04-13","05:58:25","5c5b31c415f6c30001de2df5","categorize","categorize",211,"38",655,"offices_00243_bottom.png","L","offices","38","bottom","bottom","offices_00243",1
"563","2023-04-13","05:58:25","5c5b31c415f6c30001de2df5","categorize","categorize",212,"38",704,"offices_00184_top.png","L","offices","38","top","top","offices_00184",1
"564","2023-04-13","05:58:25","5c5b31c415f6c30001de2df5","categorize","categorize",213,"36",1366,"city_00138_top.png","J","city","36","top","top","city_00138",1
"565","2023-04-13","05:58:25","5c5b31c415f6c30001de2df5","categorize","categorize",214,"32",970,"forests_00266_bottom_inverted.png","D","forests","32","bottom","bottom_inverted","forests_00266",1
"566","2023-04-13","05:58:25","5c5b31c415f6c30001de2df5","categorize","categorize",215,"32",1072,"forests_00242_bottom_inverted.png","D","forests","32","bottom","bottom_inverted","forests_00242",1
"567","2023-04-13","05:58:25","5c5b31c415f6c30001de2df5","categorize","categorize",216,"38",837,"offices_00379_bottom.png","L","offices","38","bottom","bottom","offices_00379",1
"568","2023-04-13","05:58:25","5c5b31c415f6c30001de2df5","categorize","categorize",217,"31",862,"beaches_00115_bottom.png","S","beaches","31","bottom","bottom","beaches_00115",1
"569","2023-04-13","05:58:25","5c5b31c415f6c30001de2df5","categorize","categorize",218,"31",495,"forests_00253_bottom.png","S","forests","32","bottom","bottom","forests_00253",0
