Date Prac Sub Age Sex Hand Block Bin Trial Shape Label Match CorrResp Resp ACC RT
07-Jun-2018_13:51:23 Exp 7344 20 female R 1 1 1 moralOther moralOther match n m 0 0.7635 
07-Jun-2018_13:51:25 Exp 7344 20 female R 1 1 2 immoralSelf immoralSelf match n n 1 0.7017 
07-Jun-2018_13:51:27 Exp 7344 20 female R 1 1 3 immoralSelf immoralOther mismatch m m 1 0.8997 
07-Jun-2018_13:51:29 Exp 7344 20 female R 1 1 4 moralSelf moralSelf match n n 1 0.4659 
07-Jun-2018_13:51:32 Exp 7344 20 female R 1 1 5 immoralSelf immoralSelf match n n 1 0.7600 
07-Jun-2018_13:51:34 Exp 7344 20 female R 1 1 6 immoralSelf immoralSelf match n n 1 0.4901 
07-Jun-2018_13:51:36 Exp 7344 20 female R 1 1 7 immoralOther immoralOther match n n 1 0.6423 
07-Jun-2018_13:51:39 Exp 7344 20 female R 1 1 8 moralOther immoralSelf mismatch m m 1 0.8285 
07-Jun-2018_13:51:41 Exp 7344 20 female R 1 1 9 moralOther moralOther match n n 1 0.7525 
07-Jun-2018_13:51:43 Exp 7344 20 female R 1 1 10 immoralOther immoralSelf mismatch m n 0 0.7407 
07-Jun-2018_13:51:46 Exp 7344 20 female R 1 1 11 immoralSelf moralSelf mismatch m n 0 0.6589 
07-Jun-2018_13:51:48 Exp 7344 20 female R 1 1 12 moralSelf immoralSelf mismatch m m 1 0.6569 
07-Jun-2018_13:51:51 Exp 7344 20 female R 1 1 13 immoralOther immoralOther match n NA -1 1.0850 
07-Jun-2018_13:51:53 Exp 7344 20 female R 1 1 14 moralOther moralSelf mismatch m m 1 0.8432 
07-Jun-2018_13:51:55 Exp 7344 20 female R 1 1 15 moralSelf moralOther mismatch m n 0 0.5894 
07-Jun-2018_13:51:58 Exp 7344 20 female R 1 1 16 immoralOther immoralOther match n m 0 0.9694 
07-Jun-2018_13:52:00 Exp 7344 20 female R 1 1 17 moralOther moralSelf mismatch m n 0 0.7936 
07-Jun-2018_13:52:03 Exp 7344 20 female R 1 1 18 moralSelf immoralOther mismatch m m 1 0.5899 
07-Jun-2018_13:52:05 Exp 7344 20 female R 1 1 19 immoralSelf immoralOther mismatch m m 1 0.7539 
07-Jun-2018_13:52:07 Exp 7344 20 female R 1 1 20 moralSelf moralSelf match n n 1 0.6061 
07-Jun-2018_13:52:10 Exp 7344 20 female R 1 1 21 immoralOther immoralSelf mismatch m m 1 0.8883 
07-Jun-2018_13:52:12 Exp 7344 20 female R 1 1 22 moralSelf moralSelf match n n 1 0.4804 
07-Jun-2018_13:52:15 Exp 7344 20 female R 1 1 23 moralOther moralOther match n n 1 0.9465 
07-Jun-2018_13:52:17 Exp 7344 20 female R 1 1 24 immoralOther immoralSelf mismatch m m 1 0.6726 
07-Jun-2018_13:52:19 Exp 7344 20 female R 1 2 1 immoralOther immoralOther match n m 0 0.5408 
07-Jun-2018_13:52:21 Exp 7344 20 female R 1 2 2 moralOther immoralOther mismatch m n 0 0.6989 
07-Jun-2018_13:52:23 Exp 7344 20 female R 1 2 3 moralSelf moralSelf match n n 1 0.4650 
07-Jun-2018_13:52:26 Exp 7344 20 female R 1 2 4 moralOther immoralSelf mismatch m m 1 0.7111 
07-Jun-2018_13:52:28 Exp 7344 20 female R 1 2 5 moralOther moralOther match n n 1 0.4992 
07-Jun-2018_13:52:30 Exp 7344 20 female R 1 2 6 immoralSelf immoralSelf match n n 1 0.8174 
07-Jun-2018_13:52:33 Exp 7344 20 female R 1 2 7 immoralOther immoralSelf mismatch m m 1 0.8396 
07-Jun-2018_13:52:35 Exp 7344 20 female R 1 2 8 immoralSelf immoralSelf match n n 1 0.8896 
07-Jun-2018_13:52:38 Exp 7344 20 female R 1 2 9 immoralSelf moralOther mismatch m m 1 0.6818 
07-Jun-2018_13:52:40 Exp 7344 20 female R 1 2 10 moralSelf moralSelf match n n 1 0.5400 
07-Jun-2018_13:52:42 Exp 7344 20 female R 1 2 11 immoralSelf moralOther mismatch m m 1 0.8100 
07-Jun-2018_13:52:45 Exp 7344 20 female R 1 2 12 immoralOther immoralOther match n m 0 0.8582 
07-Jun-2018_13:52:47 Exp 7344 20 female R 1 2 13 moralSelf immoralSelf mismatch m m 1 0.8245 
07-Jun-2018_13:52:49 Exp 7344 20 female R 1 2 14 immoralSelf immoralSelf match n m 0 0.6946 
07-Jun-2018_13:52:52 Exp 7344 20 female R 1 2 15 moralOther immoralSelf mismatch m m 1 0.8547 
07-Jun-2018_13:52:54 Exp 7344 20 female R 1 2 16 moralSelf immoralSelf mismatch m m 1 0.7588 
07-Jun-2018_13:52:57 Exp 7344 20 female R 1 2 17 immoralOther moralOther mismatch m m 1 1.0009 
07-Jun-2018_13:52:59 Exp 7344 20 female R 1 2 18 moralSelf moralSelf match n n 1 0.5071 
07-Jun-2018_13:53:01 Exp 7344 20 female R 1 2 19 moralSelf immoralOther mismatch m m 1 0.5453 
07-Jun-2018_13:53:04 Exp 7344 20 female R 1 2 20 moralOther moralOther match n n 1 0.6794 
07-Jun-2018_13:53:06 Exp 7344 20 female R 1 2 21 immoralSelf moralOther mismatch m m 1 0.7776 
07-Jun-2018_13:53:08 Exp 7344 20 female R 1 2 22 immoralOther immoralOther match n n 1 0.7037 
07-Jun-2018_13:53:10 Exp 7344 20 female R 1 2 23 immoralOther immoralSelf mismatch m m 1 0.5418 
07-Jun-2018_13:53:13 Exp 7344 20 female R 1 2 24 moralOther moralOther match n n 1 0.6198 
07-Jun-2018_13:53:15 Exp 7344 20 female R 1 3 1 moralOther moralOther match n n 1 0.6260 
07-Jun-2018_13:53:17 Exp 7344 20 female R 1 3 2 moralOther immoralSelf mismatch m m 1 0.5600 
07-Jun-2018_13:53:19 Exp 7344 20 female R 1 3 3 moralSelf moralSelf match n n 1 0.5143 
07-Jun-2018_13:53:22 Exp 7344 20 female R 1 3 4 immoralSelf immoralSelf match n n 1 0.6703 
07-Jun-2018_13:53:24 Exp 7344 20 female R 1 3 5 immoralSelf immoralSelf match n n 1 0.6585 
07-Jun-2018_13:53:26 Exp 7344 20 female R 1 3 6 immoralOther immoralSelf mismatch m m 1 0.7046 
07-Jun-2018_13:53:29 Exp 7344 20 female R 1 3 7 moralOther immoralSelf mismatch m n 0 0.7427 
07-Jun-2018_13:53:31 Exp 7344 20 female R 1 3 8 moralSelf immoralSelf mismatch m n 0 0.5089 
07-Jun-2018_13:53:33 Exp 7344 20 female R 1 3 9 immoralOther moralSelf mismatch m m 1 0.8569 
07-Jun-2018_13:53:36 Exp 7344 20 female R 1 3 10 moralOther moralOther match n n 1 0.7691 
07-Jun-2018_13:53:38 Exp 7344 20 female R 1 3 11 immoralSelf moralSelf mismatch m m 1 0.7693 
07-Jun-2018_13:53:40 Exp 7344 20 female R 1 3 12 moralSelf immoralSelf mismatch m m 1 0.7295 
07-Jun-2018_13:53:43 Exp 7344 20 female R 1 3 13 immoralOther immoralSelf mismatch m m 1 0.7936 
07-Jun-2018_13:53:45 Exp 7344 20 female R 1 3 14 moralSelf moralSelf match n n 1 0.4777 
07-Jun-2018_13:53:47 Exp 7344 20 female R 1 3 15 moralOther moralSelf mismatch m m 1 0.7917 
07-Jun-2018_13:53:50 Exp 7344 20 female R 1 3 16 moralSelf moralSelf match n n 1 0.5479 
07-Jun-2018_13:53:52 Exp 7344 20 female R 1 3 17 immoralOther immoralOther match n m 0 0.4561 
07-Jun-2018_13:53:54 Exp 7344 20 female R 1 3 18 moralSelf immoralOther mismatch m n 0 0.4322 
07-Jun-2018_13:53:56 Exp 7344 20 female R 1 3 19 immoralSelf immoralSelf match n m 0 0.7083 
07-Jun-2018_13:53:58 Exp 7344 20 female R 1 3 20 moralOther moralOther match n n 1 0.8085 
07-Jun-2018_13:54:01 Exp 7344 20 female R 1 3 21 immoralOther immoralOther match n m 0 0.5207 
07-Jun-2018_13:54:03 Exp 7344 20 female R 1 3 22 immoralSelf moralSelf mismatch m n 0 0.9308 
07-Jun-2018_13:54:06 Exp 7344 20 female R 1 3 23 immoralOther immoralOther match n NA -1 1.0850 
07-Jun-2018_13:54:08 Exp 7344 20 female R 1 3 24 immoralSelf immoralOther mismatch m m 1 0.7571 
07-Jun-2018_13:54:31 Exp 7344 20 female R 1 4 1 immoralOther immoralOther match n n 1 0.7084 
07-Jun-2018_13:54:34 Exp 7344 20 female R 1 4 2 moralOther immoralSelf mismatch m m 1 0.6566 
07-Jun-2018_13:54:36 Exp 7344 20 female R 1 4 3 immoralSelf immoralSelf match n n 1 0.7127 
07-Jun-2018_13:54:38 Exp 7344 20 female R 1 4 4 immoralOther immoralSelf mismatch m m 1 0.6530 
07-Jun-2018_13:54:41 Exp 7344 20 female R 1 4 5 moralOther immoralOther mismatch m n 0 0.7889 
07-Jun-2018_13:54:43 Exp 7344 20 female R 1 4 6 moralOther moralOther match n n 1 0.5690 
07-Jun-2018_13:54:45 Exp 7344 20 female R 1 4 7 immoralOther immoralOther match n m 0 0.7131 
07-Jun-2018_13:54:47 Exp 7344 20 female R 1 4 8 moralSelf moralOther mismatch m n 0 0.4533 
07-Jun-2018_13:54:50 Exp 7344 20 female R 1 4 9 immoralSelf immoralOther mismatch m m 1 0.7734 
07-Jun-2018_13:54:52 Exp 7344 20 female R 1 4 10 immoralSelf moralSelf mismatch m m 1 0.9816 
07-Jun-2018_13:54:55 Exp 7344 20 female R 1 4 11 moralSelf moralOther mismatch m m 1 0.7156 
07-Jun-2018_13:54:57 Exp 7344 20 female R 1 4 12 moralSelf moralSelf match n n 1 0.5038 
07-Jun-2018_13:54:59 Exp 7344 20 female R 1 4 13 moralSelf immoralSelf mismatch m m 1 0.6220 
07-Jun-2018_13:55:02 Exp 7344 20 female R 1 4 14 immoralOther moralSelf mismatch m m 1 0.9561 
07-Jun-2018_13:55:04 Exp 7344 20 female R 1 4 15 moralSelf moralSelf match n n 1 0.5523 
07-Jun-2018_13:55:06 Exp 7344 20 female R 1 4 16 immoralSelf immoralSelf match n m 0 0.8123 
07-Jun-2018_13:55:08 Exp 7344 20 female R 1 4 17 immoralOther immoralOther match n n 1 0.5886 
07-Jun-2018_13:55:11 Exp 7344 20 female R 1 4 18 immoralSelf immoralOther mismatch m m 1 0.6407 
07-Jun-2018_13:55:13 Exp 7344 20 female R 1 4 19 immoralOther moralOther mismatch m n 0 0.9388 
07-Jun-2018_13:55:15 Exp 7344 20 female R 1 4 20 moralOther moralOther match n n 1 0.5769 
07-Jun-2018_13:55:18 Exp 7344 20 female R 1 4 21 immoralSelf immoralSelf match n n 1 0.7051 
07-Jun-2018_13:55:20 Exp 7344 20 female R 1 4 22 moralOther moralOther match n n 1 0.6151 
07-Jun-2018_13:55:22 Exp 7344 20 female R 1 4 23 moralOther immoralOther mismatch m m 1 0.6153 
07-Jun-2018_13:55:24 Exp 7344 20 female R 1 4 24 moralSelf moralSelf match n n 1 0.4714 
07-Jun-2018_13:55:26 Exp 7344 20 female R 1 5 1 moralSelf moralSelf match n n 1 0.4355 
07-Jun-2018_13:55:29 Exp 7344 20 female R 1 5 2 moralOther immoralSelf mismatch m m 1 0.7038 
07-Jun-2018_13:55:31 Exp 7344 20 female R 1 5 3 immoralSelf immoralSelf match n n 1 0.7018 
07-Jun-2018_13:55:33 Exp 7344 20 female R 1 5 4 moralOther immoralOther mismatch m m 1 0.6999 
07-Jun-2018_13:55:36 Exp 7344 20 female R 1 5 5 immoralOther immoralSelf mismatch m m 1 0.6101 
07-Jun-2018_13:55:38 Exp 7344 20 female R 1 5 6 moralSelf immoralOther mismatch m m 1 1.0263 
07-Jun-2018_13:55:41 Exp 7344 20 female R 1 5 7 immoralOther immoralOther match n n 1 0.9924 
07-Jun-2018_13:55:44 Exp 7344 20 female R 1 5 8 moralOther moralOther match n n 1 1.0445 
07-Jun-2018_13:55:46 Exp 7344 20 female R 1 5 9 immoralOther moralSelf mismatch m m 1 0.5747 
07-Jun-2018_13:55:48 Exp 7344 20 female R 1 5 10 moralOther immoralSelf mismatch m NA -1 1.0850 
07-Jun-2018_13:55:50 Exp 7344 20 female R 1 5 11 moralSelf moralSelf match n n 1 0.4329 
07-Jun-2018_13:55:53 Exp 7344 20 female R 1 5 12 immoralOther immoralOther match n m 0 0.5489 
07-Jun-2018_13:55:55 Exp 7344 20 female R 1 5 13 immoralSelf moralOther mismatch m m 1 0.7932 
07-Jun-2018_13:55:57 Exp 7344 20 female R 1 5 14 immoralSelf immoralSelf match n n 1 0.5973 
07-Jun-2018_13:56:00 Exp 7344 20 female R 1 5 15 moralSelf immoralSelf mismatch m m 1 0.6395 
07-Jun-2018_13:56:02 Exp 7344 20 female R 1 5 16 moralOther moralOther match n n 1 0.6016 
07-Jun-2018_13:56:04 Exp 7344 20 female R 1 5 17 moralOther moralOther match n n 1 0.5238 
07-Jun-2018_13:56:06 Exp 7344 20 female R 1 5 18 immoralSelf immoralSelf match n m 0 0.6058 
07-Jun-2018_13:56:09 Exp 7344 20 female R 1 5 19 immoralSelf moralOther mismatch m m 1 0.7359 
07-Jun-2018_13:56:11 Exp 7344 20 female R 1 5 20 moralSelf moralSelf match n n 1 0.4641 
07-Jun-2018_13:56:13 Exp 7344 20 female R 1 5 21 immoralSelf immoralOther mismatch m m 1 0.6222 
07-Jun-2018_13:56:15 Exp 7344 20 female R 1 5 22 immoralOther moralOther mismatch m n 0 0.7644 
07-Jun-2018_13:56:17 Exp 7344 20 female R 1 5 23 immoralOther immoralOther match n m 0 0.4785 
07-Jun-2018_13:56:20 Exp 7344 20 female R 1 5 24 moralSelf immoralSelf mismatch m m 1 0.7606 
07-Jun-2018_13:56:26 Exp 7344 20 female R 2 1 1 moralSelf moralOther mismatch m NA -1 1.0850 
07-Jun-2018_13:56:28 Exp 7344 20 female R 2 1 2 moralOther moralOther match n m 0 0.7191 
07-Jun-2018_13:56:30 Exp 7344 20 female R 2 1 3 immoralOther immoralOther match n n 1 0.7292 
07-Jun-2018_13:56:33 Exp 7344 20 female R 2 1 4 moralOther immoralOther mismatch m m 1 0.7053 
07-Jun-2018_13:56:35 Exp 7344 20 female R 2 1 5 moralOther moralOther match n n 1 0.4875 
07-Jun-2018_13:56:37 Exp 7344 20 female R 2 1 6 immoralSelf immoralSelf match n n 1 0.8636 
07-Jun-2018_13:56:40 Exp 7344 20 female R 2 1 7 moralOther moralSelf mismatch m m 1 0.7097 
07-Jun-2018_13:56:42 Exp 7344 20 female R 2 1 8 immoralSelf immoralOther mismatch m n 0 0.8339 
07-Jun-2018_13:56:44 Exp 7344 20 female R 2 1 9 immoralSelf immoralSelf match n n 1 0.5981 
07-Jun-2018_13:56:46 Exp 7344 20 female R 2 1 10 moralSelf moralSelf match n n 1 0.4883 
07-Jun-2018_13:56:49 Exp 7344 20 female R 2 1 11 immoralSelf immoralSelf match n n 1 0.7204 
07-Jun-2018_13:56:51 Exp 7344 20 female R 2 1 12 moralOther moralOther match n n 1 0.6425 
07-Jun-2018_13:56:53 Exp 7344 20 female R 2 1 13 moralSelf moralOther mismatch m n 0 0.4686 
07-Jun-2018_13:56:55 Exp 7344 20 female R 2 1 14 immoralOther moralSelf mismatch m n 0 0.8247 
07-Jun-2018_13:56:58 Exp 7344 20 female R 2 1 15 immoralOther moralSelf mismatch m m 1 1.0549 
07-Jun-2018_13:57:01 Exp 7344 20 female R 2 1 16 immoralOther moralOther mismatch m m 1 0.8791 
07-Jun-2018_13:57:03 Exp 7344 20 female R 2 1 17 moralSelf moralSelf match n n 1 0.4731 
07-Jun-2018_13:57:05 Exp 7344 20 female R 2 1 18 moralSelf moralOther mismatch m m 1 0.5787 
07-Jun-2018_13:57:07 Exp 7344 20 female R 2 1 19 immoralSelf moralSelf mismatch m m 1 0.7934 
07-Jun-2018_13:57:10 Exp 7344 20 female R 2 1 20 immoralSelf moralSelf mismatch m m 1 0.5496 
07-Jun-2018_13:57:12 Exp 7344 20 female R 2 1 21 moralSelf moralSelf match n n 1 0.6016 
07-Jun-2018_13:57:14 Exp 7344 20 female R 2 1 22 moralOther immoralOther mismatch m m 1 0.6677 
07-Jun-2018_13:57:16 Exp 7344 20 female R 2 1 23 immoralOther immoralOther match n n 1 0.6239 
07-Jun-2018_13:57:19 Exp 7344 20 female R 2 1 24 immoralOther immoralOther match n n 1 0.6620 
07-Jun-2018_13:57:21 Exp 7344 20 female R 2 2 1 immoralSelf immoralSelf match n n 1 0.8042 
07-Jun-2018_13:57:23 Exp 7344 20 female R 2 2 2 immoralOther immoralOther match n m 0 0.5983 
07-Jun-2018_13:57:25 Exp 7344 20 female R 2 2 3 immoralOther immoralOther match n n 1 0.5044 
07-Jun-2018_13:57:28 Exp 7344 20 female R 2 2 4 immoralOther immoralSelf mismatch m n 0 0.4545 
07-Jun-2018_13:57:30 Exp 7344 20 female R 2 2 5 moralOther moralOther match n m 0 0.6790 
07-Jun-2018_13:57:32 Exp 7344 20 female R 2 2 6 immoralOther moralOther mismatch m n 0 0.8889 
07-Jun-2018_13:57:35 Exp 7344 20 female R 2 2 7 immoralSelf moralSelf mismatch m m 1 0.8889 
07-Jun-2018_13:57:38 Exp 7344 20 female R 2 2 8 moralOther immoralSelf mismatch m m 1 0.9932 
07-Jun-2018_13:57:40 Exp 7344 20 female R 2 2 9 moralOther moralSelf mismatch m m 1 1.0453 
07-Jun-2018_13:57:43 Exp 7344 20 female R 2 2 10 immoralSelf moralOther mismatch m m 1 0.8635 
07-Jun-2018_13:57:45 Exp 7344 20 female R 2 2 11 moralSelf immoralOther mismatch m m 1 0.6135 
07-Jun-2018_13:57:48 Exp 7344 20 female R 2 2 12 immoralSelf immoralSelf match n n 1 0.9576 
07-Jun-2018_13:57:50 Exp 7344 20 female R 2 2 13 immoralOther moralOther mismatch m m 1 0.9838 
07-Jun-2018_13:57:52 Exp 7344 20 female R 2 2 14 moralSelf moralSelf match n n 1 0.5340 
07-Jun-2018_13:57:54 Exp 7344 20 female R 2 2 15 moralSelf moralSelf match n n 1 0.4462 
07-Jun-2018_13:57:57 Exp 7344 20 female R 2 2 16 moralOther moralOther match n n 1 0.6723 
07-Jun-2018_13:57:59 Exp 7344 20 female R 2 2 17 moralSelf immoralOther mismatch m m 1 0.6125 
07-Jun-2018_13:58:01 Exp 7344 20 female R 2 2 18 moralOther immoralSelf mismatch m m 1 0.8565 
07-Jun-2018_13:58:04 Exp 7344 20 female R 2 2 19 immoralSelf immoralSelf match n n 1 0.6886 
07-Jun-2018_13:58:06 Exp 7344 20 female R 2 2 20 moralSelf moralSelf match n n 1 0.5369 
07-Jun-2018_13:58:08 Exp 7344 20 female R 2 2 21 immoralSelf moralOther mismatch m m 1 0.8089 
07-Jun-2018_13:58:11 Exp 7344 20 female R 2 2 22 moralOther moralOther match n n 1 0.6089 
07-Jun-2018_13:58:13 Exp 7344 20 female R 2 2 23 immoralOther immoralOther match n m 0 0.5852 
07-Jun-2018_13:58:15 Exp 7344 20 female R 2 2 24 moralSelf moralOther mismatch m n 0 0.4553 
07-Jun-2018_13:58:17 Exp 7344 20 female R 2 3 1 immoralSelf immoralSelf match n n 1 0.7354 
07-Jun-2018_13:58:20 Exp 7344 20 female R 2 3 2 immoralOther immoralSelf mismatch m m 1 0.9755 
07-Jun-2018_13:58:22 Exp 7344 20 female R 2 3 3 moralSelf moralSelf match n n 1 0.4877 
07-Jun-2018_13:58:24 Exp 7344 20 female R 2 3 4 immoralSelf immoralSelf match n n 1 0.6159 
07-Jun-2018_13:58:26 Exp 7344 20 female R 2 3 5 moralSelf moralSelf match n n 1 0.4400 
07-Jun-2018_13:58:29 Exp 7344 20 female R 2 3 6 immoralOther moralSelf mismatch m m 1 0.7786 
07-Jun-2018_13:58:31 Exp 7344 20 female R 2 3 7 immoralSelf immoralSelf match n n 1 0.7042 
07-Jun-2018_13:58:33 Exp 7344 20 female R 2 3 8 moralSelf immoralOther mismatch m m 1 0.6624 
07-Jun-2018_13:58:36 Exp 7344 20 female R 2 3 9 moralOther immoralOther mismatch m n 0 0.7166 
07-Jun-2018_13:58:38 Exp 7344 20 female R 2 3 10 immoralSelf moralOther mismatch m m 1 0.6406 
07-Jun-2018_13:58:40 Exp 7344 20 female R 2 3 11 moralOther moralOther match n m 0 0.8747 
07-Jun-2018_13:58:43 Exp 7344 20 female R 2 3 12 moralOther moralOther match n n 1 0.4548 
07-Jun-2018_13:58:45 Exp 7344 20 female R 2 3 13 moralOther immoralOther mismatch m m 1 0.5990 
07-Jun-2018_13:58:47 Exp 7344 20 female R 2 3 14 immoralSelf immoralOther mismatch m m 1 0.8012 
07-Jun-2018_13:58:49 Exp 7344 20 female R 2 3 15 moralSelf moralSelf match n n 1 0.4832 
07-Jun-2018_13:58:51 Exp 7344 20 female R 2 3 16 moralSelf immoralOther mismatch m m 1 0.5335 
07-Jun-2018_13:58:54 Exp 7344 20 female R 2 3 17 immoralOther immoralOther match n m 0 0.7575 
07-Jun-2018_13:58:56 Exp 7344 20 female R 2 3 18 immoralSelf moralOther mismatch m m 1 0.6952 
07-Jun-2018_13:58:58 Exp 7344 20 female R 2 3 19 moralOther moralOther match n n 1 0.5919 
07-Jun-2018_13:59:01 Exp 7344 20 female R 2 3 20 moralOther immoralOther mismatch m m 1 0.7719 
07-Jun-2018_13:59:03 Exp 7344 20 female R 2 3 21 immoralOther moralOther mismatch m m 1 0.8042 
07-Jun-2018_13:59:05 Exp 7344 20 female R 2 3 22 immoralOther immoralOther match n n 1 0.6302 
07-Jun-2018_13:59:08 Exp 7344 20 female R 2 3 23 immoralOther immoralOther match n n 1 0.6504 
07-Jun-2018_13:59:10 Exp 7344 20 female R 2 3 24 moralSelf moralOther mismatch m m 1 1.0184 
07-Jun-2018_13:59:22 Exp 7344 20 female R 2 4 1 moralSelf moralSelf match n n 1 0.4352 
07-Jun-2018_13:59:25 Exp 7344 20 female R 2 4 2 immoralSelf immoralSelf match n n 1 0.7513 
07-Jun-2018_13:59:27 Exp 7344 20 female R 2 4 3 immoralOther immoralOther match n n 1 0.6755 
07-Jun-2018_13:59:29 Exp 7344 20 female R 2 4 4 immoralSelf moralSelf mismatch m m 1 0.7196 
07-Jun-2018_13:59:32 Exp 7344 20 female R 2 4 5 moralSelf moralSelf match n n 1 0.4418 
07-Jun-2018_13:59:34 Exp 7344 20 female R 2 4 6 moralOther immoralSelf mismatch m m 1 0.8604 
07-Jun-2018_13:59:36 Exp 7344 20 female R 2 4 7 moralOther immoralOther mismatch m m 1 0.6261 
07-Jun-2018_13:59:39 Exp 7344 20 female R 2 4 8 immoralOther moralOther mismatch m n 0 0.6323 
07-Jun-2018_13:59:41 Exp 7344 20 female R 2 4 9 moralOther moralOther match n n 1 0.5723 
07-Jun-2018_13:59:43 Exp 7344 20 female R 2 4 10 immoralSelf moralOther mismatch m m 1 0.5964 
07-Jun-2018_13:59:45 Exp 7344 20 female R 2 4 11 immoralOther immoralOther match n n 1 0.8466 
07-Jun-2018_13:59:48 Exp 7344 20 female R 2 4 12 moralSelf immoralOther mismatch m m 1 0.5767 
07-Jun-2018_13:59:50 Exp 7344 20 female R 2 4 13 immoralOther immoralOther match n n 1 0.7048 
07-Jun-2018_13:59:52 Exp 7344 20 female R 2 4 14 moralOther moralSelf mismatch m m 1 0.7669 
07-Jun-2018_13:59:55 Exp 7344 20 female R 2 4 15 immoralSelf immoralSelf match n n 1 0.7611 
07-Jun-2018_13:59:57 Exp 7344 20 female R 2 4 16 moralSelf moralOther mismatch m m 1 0.6432 
07-Jun-2018_13:59:59 Exp 7344 20 female R 2 4 17 immoralSelf immoralSelf match n n 1 0.7093 
07-Jun-2018_14:00:02 Exp 7344 20 female R 2 4 18 moralOther moralOther match n n 1 0.8975 
07-Jun-2018_14:00:04 Exp 7344 20 female R 2 4 19 immoralOther moralOther mismatch m m 1 0.7757 
07-Jun-2018_14:00:06 Exp 7344 20 female R 2 4 20 moralSelf moralSelf match n n 1 0.5997 
07-Jun-2018_14:00:09 Exp 7344 20 female R 2 4 21 immoralSelf moralOther mismatch m m 1 0.6499 
07-Jun-2018_14:00:11 Exp 7344 20 female R 2 4 22 moralOther moralOther match n n 1 0.6180 
07-Jun-2018_14:00:13 Exp 7344 20 female R 2 4 23 immoralOther moralOther mismatch m m 1 0.5603 
07-Jun-2018_14:00:15 Exp 7344 20 female R 2 4 24 moralSelf immoralOther mismatch m m 1 0.5779 
07-Jun-2018_14:00:18 Exp 7344 20 female R 2 5 1 moralSelf moralSelf match n n 1 0.4964 
07-Jun-2018_14:00:20 Exp 7344 20 female R 2 5 2 moralOther immoralSelf mismatch m m 1 0.9769 
07-Jun-2018_14:00:22 Exp 7344 20 female R 2 5 3 immoralOther moralSelf mismatch m m 1 0.6407 
07-Jun-2018_14:00:24 Exp 7344 20 female R 2 5 4 moralSelf moralSelf match n n 1 0.4428 
07-Jun-2018_14:00:27 Exp 7344 20 female R 2 5 5 moralOther moralSelf mismatch m m 1 0.6289 
07-Jun-2018_14:00:29 Exp 7344 20 female R 2 5 6 moralSelf moralSelf match n n 1 0.4490 
07-Jun-2018_14:00:31 Exp 7344 20 female R 2 5 7 moralOther immoralSelf mismatch m m 1 0.7293 
07-Jun-2018_14:00:33 Exp 7344 20 female R 2 5 8 moralOther moralOther match n n 1 0.6333 
07-Jun-2018_14:00:36 Exp 7344 20 female R 2 5 9 immoralSelf immoralSelf match n n 1 0.8854 
07-Jun-2018_14:00:38 Exp 7344 20 female R 2 5 10 immoralSelf moralOther mismatch m m 1 0.8396 
07-Jun-2018_14:00:41 Exp 7344 20 female R 2 5 11 immoralOther moralOther mismatch m m 1 0.8098 
07-Jun-2018_14:00:43 Exp 7344 20 female R 2 5 12 immoralSelf moralSelf mismatch m n 0 0.7539 
07-Jun-2018_14:00:46 Exp 7344 20 female R 2 5 13 moralSelf immoralSelf mismatch m m 1 0.6500 
07-Jun-2018_14:00:48 Exp 7344 20 female R 2 5 14 moralOther moralOther match n n 1 0.5862 
07-Jun-2018_14:00:50 Exp 7344 20 female R 2 5 15 immoralSelf immoralOther mismatch m m 1 0.8402 
07-Jun-2018_14:00:52 Exp 7344 20 female R 2 5 16 moralSelf immoralSelf mismatch m m 1 0.6103 
07-Jun-2018_14:00:55 Exp 7344 20 female R 2 5 17 immoralSelf immoralSelf match n n 1 0.7686 
07-Jun-2018_14:00:57 Exp 7344 20 female R 2 5 18 immoralOther immoralOther match n n 1 0.7287 
07-Jun-2018_14:00:59 Exp 7344 20 female R 2 5 19 moralSelf immoralSelf mismatch m m 1 0.6088 
07-Jun-2018_14:01:02 Exp 7344 20 female R 2 5 20 immoralOther immoralSelf mismatch m m 1 1.0809 
07-Jun-2018_14:01:05 Exp 7344 20 female R 2 5 21 immoralSelf immoralSelf match n n 1 0.7071 
07-Jun-2018_14:01:07 Exp 7344 20 female R 2 5 22 immoralOther immoralOther match n n 1 0.9192 
07-Jun-2018_14:01:09 Exp 7344 20 female R 2 5 23 moralOther moralOther match n n 1 0.6975 
07-Jun-2018_14:01:12 Exp 7344 20 female R 2 5 24 immoralOther immoralOther match n n 1 0.7115 
07-Jun-2018_14:01:17 Exp 7344 20 female R 3 1 1 immoralOther immoralOther match n n 1 0.7018 
07-Jun-2018_14:01:19 Exp 7344 20 female R 3 1 2 moralOther moralOther match n n 1 0.5880 
07-Jun-2018_14:01:22 Exp 7344 20 female R 3 1 3 moralOther moralSelf mismatch m m 1 0.6561 
07-Jun-2018_14:01:24 Exp 7344 20 female R 3 1 4 immoralOther moralOther mismatch m n 0 0.4882 
07-Jun-2018_14:01:26 Exp 7344 20 female R 3 1 5 immoralOther moralSelf mismatch m m 1 0.7124 
07-Jun-2018_14:01:29 Exp 7344 20 female R 3 1 6 moralOther immoralSelf mismatch m m 1 1.0445 
07-Jun-2018_14:01:31 Exp 7344 20 female R 3 1 7 moralOther moralSelf mismatch m n 0 0.9826 
07-Jun-2018_14:01:34 Exp 7344 20 female R 3 1 8 moralSelf immoralOther mismatch m m 1 0.6291 
07-Jun-2018_14:01:36 Exp 7344 20 female R 3 1 9 moralOther moralOther match n n 1 0.5210 
07-Jun-2018_14:01:38 Exp 7344 20 female R 3 1 10 immoralSelf immoralSelf match n n 1 0.8590 
07-Jun-2018_14:01:40 Exp 7344 20 female R 3 1 11 moralSelf immoralOther mismatch m m 1 0.6092 
07-Jun-2018_14:01:43 Exp 7344 20 female R 3 1 12 immoralOther immoralOther match n n 1 0.8174 
07-Jun-2018_14:01:45 Exp 7344 20 female R 3 1 13 immoralSelf moralSelf mismatch m m 1 0.7435 
07-Jun-2018_14:01:48 Exp 7344 20 female R 3 1 14 immoralOther moralSelf mismatch m m 1 0.7897 
07-Jun-2018_14:01:50 Exp 7344 20 female R 3 1 15 moralOther moralOther match n n 1 0.7217 
07-Jun-2018_14:01:52 Exp 7344 20 female R 3 1 16 moralSelf immoralOther mismatch m n 0 0.5638 
07-Jun-2018_14:01:54 Exp 7344 20 female R 3 1 17 moralSelf moralSelf match n n 1 0.4221 
07-Jun-2018_14:01:57 Exp 7344 20 female R 3 1 18 immoralOther immoralOther match n n 1 0.5801 
07-Jun-2018_14:01:59 Exp 7344 20 female R 3 1 19 immoralSelf moralOther mismatch m m 1 0.6023 
07-Jun-2018_14:02:01 Exp 7344 20 female R 3 1 20 immoralSelf immoralSelf match n n 1 0.6605 
07-Jun-2018_14:02:04 Exp 7344 20 female R 3 1 21 immoralSelf immoralSelf match n n 1 0.8906 
07-Jun-2018_14:02:06 Exp 7344 20 female R 3 1 22 moralSelf moralSelf match n n 1 0.6586 
07-Jun-2018_14:02:08 Exp 7344 20 female R 3 1 23 immoralSelf moralOther mismatch m m 1 0.9689 
07-Jun-2018_14:02:11 Exp 7344 20 female R 3 1 24 moralSelf moralSelf match n n 1 0.4970 
07-Jun-2018_14:02:13 Exp 7344 20 female R 3 2 1 immoralSelf immoralSelf match n n 1 1.0251 
07-Jun-2018_14:02:16 Exp 7344 20 female R 3 2 2 moralOther moralSelf mismatch m m 1 0.7512 
07-Jun-2018_14:02:18 Exp 7344 20 female R 3 2 3 immoralSelf moralSelf mismatch m m 1 0.9393 
07-Jun-2018_14:02:21 Exp 7344 20 female R 3 2 4 moralSelf moralOther mismatch m n 0 0.7855 
07-Jun-2018_14:02:23 Exp 7344 20 female R 3 2 5 moralOther immoralOther mismatch m m 1 0.9917 
07-Jun-2018_14:02:25 Exp 7344 20 female R 3 2 6 immoralOther immoralOther match n m 0 0.6360 
07-Jun-2018_14:02:28 Exp 7344 20 female R 3 2 7 moralSelf immoralOther mismatch m m 1 0.7279 
07-Jun-2018_14:02:31 Exp 7344 20 female R 3 2 8 moralOther immoralSelf mismatch m m 1 1.0720 
07-Jun-2018_14:02:33 Exp 7344 20 female R 3 2 9 moralSelf moralSelf match n n 1 0.5722 
07-Jun-2018_14:02:35 Exp 7344 20 female R 3 2 10 immoralOther immoralSelf mismatch m m 1 0.7163 
07-Jun-2018_14:02:37 Exp 7344 20 female R 3 2 11 immoralSelf moralOther mismatch m m 1 0.8245 
07-Jun-2018_14:02:40 Exp 7344 20 female R 3 2 12 moralOther moralOther match n n 1 0.5827 
07-Jun-2018_14:02:42 Exp 7344 20 female R 3 2 13 immoralOther moralSelf mismatch m m 1 0.6128 
07-Jun-2018_14:02:45 Exp 7344 20 female R 3 2 14 moralSelf moralSelf match n n 1 0.9970 
07-Jun-2018_14:02:47 Exp 7344 20 female R 3 2 15 immoralOther immoralOther match n n 1 0.8651 
07-Jun-2018_14:02:49 Exp 7344 20 female R 3 2 16 moralOther moralOther match n n 1 0.7032 
07-Jun-2018_14:02:52 Exp 7344 20 female R 3 2 17 moralOther moralOther match n n 1 0.5893 
07-Jun-2018_14:02:54 Exp 7344 20 female R 3 2 18 immoralOther immoralSelf mismatch m m 1 0.8096 
07-Jun-2018_14:02:56 Exp 7344 20 female R 3 2 19 immoralSelf immoralSelf match n n 1 0.6018 
07-Jun-2018_14:02:59 Exp 7344 20 female R 3 2 20 immoralOther immoralOther match n m 0 0.7957 
07-Jun-2018_14:03:01 Exp 7344 20 female R 3 2 21 moralSelf moralOther mismatch m n 0 0.4559 
07-Jun-2018_14:03:03 Exp 7344 20 female R 3 2 22 immoralSelf moralSelf mismatch m m 1 0.6480 
07-Jun-2018_14:03:05 Exp 7344 20 female R 3 2 23 immoralSelf immoralSelf match n n 1 0.6722 
07-Jun-2018_14:03:08 Exp 7344 20 female R 3 2 24 moralSelf moralSelf match n n 1 0.5402 
07-Jun-2018_14:03:10 Exp 7344 20 female R 3 3 1 immoralSelf immoralSelf match n n 1 0.7303 
07-Jun-2018_14:03:12 Exp 7344 20 female R 3 3 2 moralOther immoralOther mismatch m m 1 0.8425 
07-Jun-2018_14:03:15 Exp 7344 20 female R 3 3 3 immoralOther moralSelf mismatch m m 1 0.8526 
07-Jun-2018_14:03:17 Exp 7344 20 female R 3 3 4 moralOther moralOther match n n 1 0.6688 
07-Jun-2018_14:03:19 Exp 7344 20 female R 3 3 5 immoralOther moralSelf mismatch m m 1 0.6410 
07-Jun-2018_14:03:22 Exp 7344 20 female R 3 3 6 immoralOther immoralOther match n m 0 0.6191 
07-Jun-2018_14:03:24 Exp 7344 20 female R 3 3 7 immoralSelf immoralOther mismatch m m 1 0.7372 
07-Jun-2018_14:03:26 Exp 7344 20 female R 3 3 8 moralSelf moralSelf match n n 1 0.5434 
07-Jun-2018_14:03:29 Exp 7344 20 female R 3 3 9 moralSelf immoralSelf mismatch m m 1 0.8295 
07-Jun-2018_14:03:31 Exp 7344 20 female R 3 3 10 moralSelf moralSelf match n n 1 0.4976 
07-Jun-2018_14:03:33 Exp 7344 20 female R 3 3 11 moralOther moralOther match n n 1 0.8157 
07-Jun-2018_14:03:36 Exp 7344 20 female R 3 3 12 immoralOther moralOther mismatch m m 1 0.7839 
07-Jun-2018_14:03:38 Exp 7344 20 female R 3 3 13 immoralSelf immoralSelf match n n 1 0.8220 
07-Jun-2018_14:03:40 Exp 7344 20 female R 3 3 14 moralSelf moralSelf match n n 1 0.5241 
07-Jun-2018_14:03:43 Exp 7344 20 female R 3 3 15 moralOther immoralOther mismatch m m 1 0.7742 
07-Jun-2018_14:03:45 Exp 7344 20 female R 3 3 16 immoralSelf moralSelf mismatch m m 1 0.7745 
07-Jun-2018_14:03:47 Exp 7344 20 female R 3 3 17 moralOther moralOther match n n 1 0.8386 
07-Jun-2018_14:03:50 Exp 7344 20 female R 3 3 18 immoralSelf immoralSelf match n n 1 0.6647 
07-Jun-2018_14:03:52 Exp 7344 20 female R 3 3 19 immoralOther immoralOther match n n 1 0.7668 
07-Jun-2018_14:03:55 Exp 7344 20 female R 3 3 20 moralOther immoralSelf mismatch m m 1 0.8650 
07-Jun-2018_14:03:57 Exp 7344 20 female R 3 3 21 moralSelf moralOther mismatch m m 1 0.6392 
07-Jun-2018_14:03:59 Exp 7344 20 female R 3 3 22 moralSelf immoralOther mismatch m m 1 0.6493 
07-Jun-2018_14:04:02 Exp 7344 20 female R 3 3 23 immoralSelf moralSelf mismatch m m 1 0.7134 
07-Jun-2018_14:04:04 Exp 7344 20 female R 3 3 24 immoralOther immoralOther match n n 1 0.6455 
07-Jun-2018_14:04:15 Exp 7344 20 female R 3 4 1 moralSelf moralSelf match n n 1 0.4522 
07-Jun-2018_14:04:17 Exp 7344 20 female R 3 4 2 immoralOther moralOther mismatch m m 1 0.8844 
07-Jun-2018_14:04:20 Exp 7344 20 female R 3 4 3 immoralSelf moralSelf mismatch m m 1 0.7825 
07-Jun-2018_14:04:22 Exp 7344 20 female R 3 4 4 moralOther moralOther match n n 1 0.6526 
07-Jun-2018_14:04:24 Exp 7344 20 female R 3 4 5 moralSelf moralSelf match n n 1 0.5167 
07-Jun-2018_14:04:26 Exp 7344 20 female R 3 4 6 immoralSelf immoralSelf match n n 1 0.5608 
07-Jun-2018_14:04:29 Exp 7344 20 female R 3 4 7 moralSelf moralOther mismatch m m 1 0.6509 
07-Jun-2018_14:04:31 Exp 7344 20 female R 3 4 8 immoralSelf moralSelf mismatch m m 1 0.8030 
07-Jun-2018_14:04:33 Exp 7344 20 female R 3 4 9 immoralOther moralOther mismatch m n 0 0.6132 
07-Jun-2018_14:04:36 Exp 7344 20 female R 3 4 10 immoralOther immoralOther match n n 1 0.7175 
07-Jun-2018_14:04:38 Exp 7344 20 female R 3 4 11 immoralSelf immoralSelf match n n 1 0.9035 
07-Jun-2018_14:04:41 Exp 7344 20 female R 3 4 12 immoralOther immoralOther match n n 1 0.8857 
07-Jun-2018_14:04:43 Exp 7344 20 female R 3 4 13 immoralOther immoralOther match n n 1 0.6238 
07-Jun-2018_14:04:45 Exp 7344 20 female R 3 4 14 moralOther moralOther match n n 1 0.5499 
07-Jun-2018_14:04:47 Exp 7344 20 female R 3 4 15 moralOther immoralSelf mismatch m m 1 0.6021 
07-Jun-2018_14:04:50 Exp 7344 20 female R 3 4 16 moralSelf moralSelf match n n 1 0.6682 
07-Jun-2018_14:04:52 Exp 7344 20 female R 3 4 17 moralOther immoralOther mismatch m m 1 0.7442 
07-Jun-2018_14:04:54 Exp 7344 20 female R 3 4 18 moralOther moralOther match n n 1 0.5744 
07-Jun-2018_14:04:57 Exp 7344 20 female R 3 4 19 immoralSelf immoralSelf match n n 1 0.5346 
07-Jun-2018_14:04:59 Exp 7344 20 female R 3 4 20 moralOther immoralSelf mismatch m m 1 0.7108 
07-Jun-2018_14:05:01 Exp 7344 20 female R 3 4 21 moralSelf immoralOther mismatch m m 1 0.6509 
07-Jun-2018_14:05:03 Exp 7344 20 female R 3 4 22 immoralOther immoralSelf mismatch m m 1 0.6909 
07-Jun-2018_14:05:06 Exp 7344 20 female R 3 4 23 immoralSelf moralOther mismatch m m 1 0.7391 
07-Jun-2018_14:05:08 Exp 7344 20 female R 3 4 24 moralSelf immoralOther mismatch m m 1 0.7293 
07-Jun-2018_14:05:11 Exp 7344 20 female R 3 5 1 moralOther moralSelf mismatch m m 1 0.8733 
07-Jun-2018_14:05:13 Exp 7344 20 female R 3 5 2 immoralSelf moralSelf mismatch m m 1 0.7895 
07-Jun-2018_14:05:15 Exp 7344 20 female R 3 5 3 immoralSelf immoralSelf match n n 1 0.6656 
07-Jun-2018_14:05:18 Exp 7344 20 female R 3 5 4 moralOther immoralOther mismatch m NA -1 1.0850 
07-Jun-2018_14:05:20 Exp 7344 20 female R 3 5 5 moralOther moralOther match n n 1 0.5540 
07-Jun-2018_14:05:22 Exp 7344 20 female R 3 5 6 moralOther moralOther match n n 1 0.5101 
07-Jun-2018_14:05:25 Exp 7344 20 female R 3 5 7 immoralOther immoralOther match n n 1 0.7305 
07-Jun-2018_14:05:27 Exp 7344 20 female R 3 5 8 immoralOther moralSelf mismatch m m 1 0.6183 
07-Jun-2018_14:05:29 Exp 7344 20 female R 3 5 9 moralSelf immoralOther mismatch m m 1 0.5444 
07-Jun-2018_14:05:31 Exp 7344 20 female R 3 5 10 immoralSelf immoralOther mismatch m m 1 0.6545 
07-Jun-2018_14:05:34 Exp 7344 20 female R 3 5 11 moralOther moralOther match n n 1 0.5747 
07-Jun-2018_14:05:36 Exp 7344 20 female R 3 5 12 moralSelf moralSelf match n n 1 0.6708 
07-Jun-2018_14:05:38 Exp 7344 20 female R 3 5 13 immoralSelf moralSelf mismatch m m 1 0.8030 
07-Jun-2018_14:05:41 Exp 7344 20 female R 3 5 14 moralSelf moralOther mismatch m n 0 0.5171 
07-Jun-2018_14:05:43 Exp 7344 20 female R 3 5 15 immoralOther immoralOther match n n 1 0.7113 
07-Jun-2018_14:05:45 Exp 7344 20 female R 3 5 16 moralSelf immoralSelf mismatch m m 1 0.7154 
07-Jun-2018_14:05:47 Exp 7344 20 female R 3 5 17 immoralSelf immoralSelf match n n 1 0.5755 
07-Jun-2018_14:05:50 Exp 7344 20 female R 3 5 18 immoralSelf immoralSelf match n m 0 0.7596 
07-Jun-2018_14:05:52 Exp 7344 20 female R 3 5 19 moralOther immoralOther mismatch m m 1 0.9217 
07-Jun-2018_14:05:55 Exp 7344 20 female R 3 5 20 immoralOther immoralOther match n n 1 0.6201 
07-Jun-2018_14:05:57 Exp 7344 20 female R 3 5 21 moralSelf moralSelf match n n 1 0.5541 
07-Jun-2018_14:05:59 Exp 7344 20 female R 3 5 22 immoralOther moralOther mismatch m m 1 0.7582 
07-Jun-2018_14:06:02 Exp 7344 20 female R 3 5 23 moralSelf moralSelf match n n 1 0.7123 
07-Jun-2018_14:06:04 Exp 7344 20 female R 3 5 24 immoralOther moralSelf mismatch m m 1 0.6845 
Date Prac Sub Age Sex Hand Block Bin Trial Shape Label Match CorrResp Resp ACC RT
07-Jun-2018_14:10:30 Exp 7344 20 female R 1 1 1 immoralSelf immoralSelf match n n 1 0.6658 
07-Jun-2018_14:10:32 Exp 7344 20 female R 1 1 2 immoralOther immoralOther match n m 0 0.7520 
07-Jun-2018_14:10:35 Exp 7344 20 female R 1 1 3 immoralOther immoralSelf mismatch m m 1 0.7961 
07-Jun-2018_14:10:37 Exp 7344 20 female R 1 1 4 immoralSelf immoralOther mismatch m m 1 0.7923 
07-Jun-2018_14:10:39 Exp 7344 20 female R 1 1 5 moralOther immoralOther mismatch m n 0 0.7005 
07-Jun-2018_14:10:42 Exp 7344 20 female R 1 1 6 moralOther moralOther match n n 1 0.6906 
07-Jun-2018_14:10:44 Exp 7344 20 female R 1 1 7 moralOther immoralOther mismatch m m 1 0.6747 
07-Jun-2018_14:10:46 Exp 7344 20 female R 1 1 8 moralSelf moralOther mismatch m m 1 0.6388 
07-Jun-2018_14:10:48 Exp 7344 20 female R 1 1 9 moralSelf moralSelf match n n 1 0.4889 
07-Jun-2018_14:10:51 Exp 7344 20 female R 1 1 10 moralSelf immoralOther mismatch m m 1 0.5292 
07-Jun-2018_14:10:53 Exp 7344 20 female R 1 1 11 immoralSelf moralOther mismatch m m 1 0.6811 
07-Jun-2018_14:10:55 Exp 7344 20 female R 1 1 12 immoralOther immoralOther match n m 0 0.6354 
07-Jun-2018_14:10:57 Exp 7344 20 female R 1 1 13 immoralOther immoralOther match n n 1 0.6234 
07-Jun-2018_14:11:00 Exp 7344 20 female R 1 1 14 moralOther immoralSelf mismatch m m 1 0.6376 
07-Jun-2018_14:11:02 Exp 7344 20 female R 1 1 15 moralOther moralOther match n n 1 0.6237 
07-Jun-2018_14:11:04 Exp 7344 20 female R 1 1 16 moralSelf immoralSelf mismatch m m 1 0.6778 
07-Jun-2018_14:11:06 Exp 7344 20 female R 1 1 17 moralSelf moralSelf match n n 1 0.5280 
07-Jun-2018_14:11:09 Exp 7344 20 female R 1 1 18 moralOther moralOther match n n 1 0.5522 
07-Jun-2018_14:11:11 Exp 7344 20 female R 1 1 19 immoralSelf moralSelf mismatch m m 1 0.9482 
07-Jun-2018_14:11:14 Exp 7344 20 female R 1 1 20 immoralOther moralSelf mismatch m m 1 0.7203 
07-Jun-2018_14:11:16 Exp 7344 20 female R 1 1 21 immoralOther immoralSelf mismatch m m 1 1.0745 
07-Jun-2018_14:11:18 Exp 7344 20 female R 1 1 22 immoralSelf immoralSelf match n n 1 0.5827 
07-Jun-2018_14:11:21 Exp 7344 20 female R 1 1 23 immoralSelf immoralSelf match n n 1 0.9088 
07-Jun-2018_14:11:23 Exp 7344 20 female R 1 1 24 moralSelf moralSelf match n n 1 0.5930 
07-Jun-2018_14:11:25 Exp 7344 20 female R 1 2 1 immoralSelf immoralSelf match n n 1 0.6211 
07-Jun-2018_14:11:28 Exp 7344 20 female R 1 2 2 immoralOther immoralOther match n n 1 0.6992 
07-Jun-2018_14:11:30 Exp 7344 20 female R 1 2 3 moralOther moralOther match n n 1 0.4414 
07-Jun-2018_14:11:32 Exp 7344 20 female R 1 2 4 moralOther immoralOther mismatch m m 1 0.8195 
07-Jun-2018_14:11:35 Exp 7344 20 female R 1 2 5 moralSelf moralOther mismatch m m 1 0.6657 
07-Jun-2018_14:11:37 Exp 7344 20 female R 1 2 6 immoralOther moralOther mismatch m m 1 0.6797 
07-Jun-2018_14:11:39 Exp 7344 20 female R 1 2 7 moralSelf moralSelf match n n 1 0.5058 
07-Jun-2018_14:11:42 Exp 7344 20 female R 1 2 8 immoralSelf immoralSelf match n n 1 0.8720 
07-Jun-2018_14:11:44 Exp 7344 20 female R 1 2 9 moralSelf moralSelf match n n 1 0.4921 
07-Jun-2018_14:11:46 Exp 7344 20 female R 1 2 10 moralSelf immoralSelf mismatch m m 1 0.6122 
07-Jun-2018_14:11:48 Exp 7344 20 female R 1 2 11 immoralSelf moralSelf mismatch m m 1 0.7644 
07-Jun-2018_14:11:51 Exp 7344 20 female R 1 2 12 immoralOther immoralSelf mismatch m m 1 0.6306 
07-Jun-2018_14:11:53 Exp 7344 20 female R 1 2 13 immoralSelf moralSelf mismatch m m 1 0.6986 
07-Jun-2018_14:11:55 Exp 7344 20 female R 1 2 14 immoralSelf immoralSelf match n n 1 0.6648 
07-Jun-2018_14:11:57 Exp 7344 20 female R 1 2 15 immoralOther immoralOther match n n 1 0.6949 
07-Jun-2018_14:12:00 Exp 7344 20 female R 1 2 16 moralOther immoralSelf mismatch m m 1 0.6871 
07-Jun-2018_14:12:02 Exp 7344 20 female R 1 2 17 moralOther immoralSelf mismatch m m 1 0.5612 
07-Jun-2018_14:12:04 Exp 7344 20 female R 1 2 18 moralSelf moralSelf match n n 1 0.5794 
07-Jun-2018_14:12:06 Exp 7344 20 female R 1 2 19 immoralSelf immoralOther mismatch m m 1 0.6335 
07-Jun-2018_14:12:09 Exp 7344 20 female R 1 2 20 immoralOther moralOther mismatch m m 1 0.7175 
07-Jun-2018_14:12:11 Exp 7344 20 female R 1 2 21 moralOther moralOther match n n 1 0.5278 
07-Jun-2018_14:12:13 Exp 7344 20 female R 1 2 22 moralSelf moralOther mismatch m m 1 0.6398 
07-Jun-2018_14:12:16 Exp 7344 20 female R 1 2 23 immoralOther immoralOther match n n 1 0.6339 
07-Jun-2018_14:12:18 Exp 7344 20 female R 1 2 24 moralOther moralOther match n n 1 0.5181 
Date Prac Sub Age Sex Hand Block Bin Trial Shape Label Match CorrResp Resp ACC RT
07-Jun-2018_14:16:29 Exp 7344 20 female R 1 1 1 moralOther moralSelf mismatch m m 1 0.7286 
07-Jun-2018_14:16:32 Exp 7344 20 female R 1 1 2 immoralSelf immoralSelf match n n 1 0.6728 
07-Jun-2018_14:16:34 Exp 7344 20 female R 1 1 3 moralSelf immoralOther mismatch m m 1 0.6369 
07-Jun-2018_14:16:36 Exp 7344 20 female R 1 1 4 immoralOther moralSelf mismatch m m 1 0.6890 
07-Jun-2018_14:16:38 Exp 7344 20 female R 1 1 5 moralOther immoralSelf mismatch m n 0 0.4492 
07-Jun-2018_14:16:41 Exp 7344 20 female R 1 1 6 immoralOther immoralOther match n m 0 0.8892 
07-Jun-2018_14:16:43 Exp 7344 20 female R 1 1 7 immoralSelf immoralSelf match n n 1 0.6486 
07-Jun-2018_14:16:45 Exp 7344 20 female R 1 1 8 moralOther moralOther match n n 1 0.4816 
07-Jun-2018_14:16:47 Exp 7344 20 female R 1 1 9 moralSelf immoralOther mismatch m m 1 0.5397 
07-Jun-2018_14:16:50 Exp 7344 20 female R 1 1 10 moralSelf moralSelf match n n 1 0.4579 
07-Jun-2018_14:16:52 Exp 7344 20 female R 1 1 11 immoralOther immoralOther match n n 1 0.6881 
07-Jun-2018_14:16:54 Exp 7344 20 female R 1 1 12 immoralOther immoralSelf mismatch m m 1 0.7201 
07-Jun-2018_14:16:56 Exp 7344 20 female R 1 1 13 moralOther moralOther match n n 1 0.5702 
07-Jun-2018_14:16:59 Exp 7344 20 female R 1 1 14 moralOther moralOther match n n 1 0.5304 
07-Jun-2018_14:17:01 Exp 7344 20 female R 1 1 15 moralSelf moralSelf match n n 1 0.5385 
07-Jun-2018_14:17:03 Exp 7344 20 female R 1 1 16 immoralSelf moralOther mismatch m m 1 0.7526 
07-Jun-2018_14:17:06 Exp 7344 20 female R 1 1 17 immoralSelf immoralOther mismatch m m 1 0.8607 
07-Jun-2018_14:17:08 Exp 7344 20 female R 1 1 18 immoralOther immoralOther match n n 1 0.6108 
07-Jun-2018_14:17:10 Exp 7344 20 female R 1 1 19 moralSelf immoralOther mismatch m m 1 0.5470 
07-Jun-2018_14:17:12 Exp 7344 20 female R 1 1 20 moralSelf moralSelf match n n 1 0.4811 
07-Jun-2018_14:17:15 Exp 7344 20 female R 1 1 21 moralOther moralSelf mismatch m m 1 0.9072 
07-Jun-2018_14:17:17 Exp 7344 20 female R 1 1 22 immoralOther moralSelf mismatch m m 1 0.5514 
07-Jun-2018_14:17:19 Exp 7344 20 female R 1 1 23 immoralSelf immoralSelf match n n 1 0.5236 
07-Jun-2018_14:17:21 Exp 7344 20 female R 1 1 24 immoralSelf immoralOther mismatch m m 1 0.5497 
07-Jun-2018_14:17:23 Exp 7344 20 female R 1 2 1 moralSelf moralOther mismatch m m 1 0.5218 
07-Jun-2018_14:17:26 Exp 7344 20 female R 1 2 2 moralOther immoralSelf mismatch m m 1 0.6919 
07-Jun-2018_14:17:28 Exp 7344 20 female R 1 2 3 immoralSelf immoralSelf match n n 1 0.6524 
07-Jun-2018_14:17:30 Exp 7344 20 female R 1 2 4 moralSelf moralSelf match n n 1 0.6522 
07-Jun-2018_14:17:33 Exp 7344 20 female R 1 2 5 immoralSelf moralOther mismatch m m 1 0.7563 
07-Jun-2018_14:17:35 Exp 7344 20 female R 1 2 6 moralSelf immoralSelf mismatch m m 1 0.7925 
07-Jun-2018_14:17:37 Exp 7344 20 female R 1 2 7 moralOther moralOther match n n 1 0.6766 
07-Jun-2018_14:17:40 Exp 7344 20 female R 1 2 8 moralSelf moralSelf match n n 1 0.6168 
07-Jun-2018_14:17:42 Exp 7344 20 female R 1 2 9 immoralOther immoralOther match n m 0 0.4649 
07-Jun-2018_14:17:44 Exp 7344 20 female R 1 2 10 immoralSelf immoralOther mismatch m m 1 0.5510 
07-Jun-2018_14:17:46 Exp 7344 20 female R 1 2 11 immoralOther immoralOther match n n 1 0.5711 
07-Jun-2018_14:17:48 Exp 7344 20 female R 1 2 12 immoralOther moralSelf mismatch m m 1 0.5632 
07-Jun-2018_14:17:51 Exp 7344 20 female R 1 2 13 immoralSelf immoralSelf match n n 1 0.8133 
07-Jun-2018_14:17:53 Exp 7344 20 female R 1 2 14 immoralOther moralOther mismatch m n 0 0.5415 
07-Jun-2018_14:17:55 Exp 7344 20 female R 1 2 15 moralSelf moralSelf match n n 1 0.4516 
07-Jun-2018_14:17:57 Exp 7344 20 female R 1 2 16 immoralSelf immoralSelf match n n 1 0.8518 
07-Jun-2018_14:18:00 Exp 7344 20 female R 1 2 17 moralSelf immoralSelf mismatch m m 1 0.6360 
07-Jun-2018_14:18:02 Exp 7344 20 female R 1 2 18 moralOther immoralOther mismatch m m 1 0.8240 
07-Jun-2018_14:18:04 Exp 7344 20 female R 1 2 19 immoralOther immoralSelf mismatch m m 1 0.6541 
07-Jun-2018_14:18:07 Exp 7344 20 female R 1 2 20 moralOther moralOther match n n 1 0.6462 
07-Jun-2018_14:18:09 Exp 7344 20 female R 1 2 21 moralOther immoralSelf mismatch m m 1 0.8804 
07-Jun-2018_14:18:11 Exp 7344 20 female R 1 2 22 moralOther moralOther match n n 1 0.5545 
07-Jun-2018_14:18:14 Exp 7344 20 female R 1 2 23 immoralSelf moralOther mismatch m m 1 0.6713 
07-Jun-2018_14:18:16 Exp 7344 20 female R 1 2 24 immoralOther immoralOther match n n 1 0.7788 
Date Prac Sub Age Sex Hand Block Bin Trial Shape Label Match CorrResp Resp ACC RT
07-Jun-2018_14:22:01 Exp 7344 20 female R 1 1 1 moralOther immoralOther mismatch m m 1 0.7538 
07-Jun-2018_14:22:03 Exp 7344 20 female R 1 1 2 moralSelf moralSelf match n n 1 0.4462 
07-Jun-2018_14:22:05 Exp 7344 20 female R 1 1 3 moralOther immoralSelf mismatch m m 1 0.4561 
07-Jun-2018_14:22:07 Exp 7344 20 female R 1 1 4 immoralOther immoralOther match n n 1 0.7603 
07-Jun-2018_14:22:09 Exp 7344 20 female R 1 1 5 immoralSelf immoralOther mismatch m m 1 0.5943 
07-Jun-2018_14:22:12 Exp 7344 20 female R 1 1 6 immoralSelf immoralSelf match n n 1 0.5104 
07-Jun-2018_14:22:14 Exp 7344 20 female R 1 1 7 immoralOther moralOther mismatch m n 0 0.5786 
07-Jun-2018_14:22:16 Exp 7344 20 female R 1 1 8 immoralSelf immoralOther mismatch m m 1 0.6648 
07-Jun-2018_14:22:18 Exp 7344 20 female R 1 1 9 immoralOther immoralOther match n n 1 0.7590 
07-Jun-2018_14:22:21 Exp 7344 20 female R 1 1 10 moralOther moralOther match n n 1 1.0569 
07-Jun-2018_14:22:23 Exp 7344 20 female R 1 1 11 immoralSelf immoralOther mismatch m m 1 0.6411 
07-Jun-2018_14:22:26 Exp 7344 20 female R 1 1 12 immoralOther moralOther mismatch m m 1 0.8433 
07-Jun-2018_14:22:28 Exp 7344 20 female R 1 1 13 moralSelf immoralSelf mismatch m m 1 0.8614 
07-Jun-2018_14:22:30 Exp 7344 20 female R 1 1 14 moralSelf immoralSelf mismatch m n 0 0.4596 
07-Jun-2018_14:22:33 Exp 7344 20 female R 1 1 15 immoralSelf immoralSelf match n n 1 0.7456 
07-Jun-2018_14:22:35 Exp 7344 20 female R 1 1 16 moralOther immoralSelf mismatch m m 1 0.6558 
07-Jun-2018_14:22:37 Exp 7344 20 female R 1 1 17 immoralSelf immoralSelf match n n 1 0.5920 
07-Jun-2018_14:22:40 Exp 7344 20 female R 1 1 18 immoralOther immoralOther match n n 1 0.8281 
07-Jun-2018_14:22:42 Exp 7344 20 female R 1 1 19 moralOther moralOther match n n 1 0.6322 
07-Jun-2018_14:22:44 Exp 7344 20 female R 1 1 20 moralOther moralOther match n n 1 0.4203 
07-Jun-2018_14:22:47 Exp 7344 20 female R 1 1 21 immoralOther moralOther mismatch m m 1 0.9144 
07-Jun-2018_14:22:49 Exp 7344 20 female R 1 1 22 moralSelf immoralOther mismatch m m 1 0.6467 
07-Jun-2018_14:22:51 Exp 7344 20 female R 1 1 23 moralSelf moralSelf match n n 1 0.8567 
07-Jun-2018_14:22:53 Exp 7344 20 female R 1 1 24 moralSelf moralSelf match n n 1 0.4809 
07-Jun-2018_14:22:56 Exp 7344 20 female R 1 2 1 moralOther moralSelf mismatch m m 1 0.6510 
07-Jun-2018_14:22:58 Exp 7344 20 female R 1 2 2 immoralOther immoralOther match n n 1 0.5551 
07-Jun-2018_14:23:00 Exp 7344 20 female R 1 2 3 moralSelf moralOther mismatch m m 1 0.4953 
07-Jun-2018_14:23:02 Exp 7344 20 female R 1 2 4 immoralSelf immoralOther mismatch m m 1 0.6954 
07-Jun-2018_14:23:05 Exp 7344 20 female R 1 2 5 immoralSelf immoralSelf match n n 1 0.6236 
07-Jun-2018_14:23:07 Exp 7344 20 female R 1 2 6 moralSelf moralOther mismatch m m 1 0.5416 
07-Jun-2018_14:23:09 Exp 7344 20 female R 1 2 7 immoralOther moralSelf mismatch m m 1 0.6518 
07-Jun-2018_14:23:11 Exp 7344 20 female R 1 2 8 immoralSelf immoralSelf match n n 1 0.5080 
07-Jun-2018_14:23:13 Exp 7344 20 female R 1 2 9 moralSelf moralSelf match n m 0 0.5441 
07-Jun-2018_14:23:16 Exp 7344 20 female R 1 2 10 moralSelf immoralSelf mismatch m m 1 0.5502 
07-Jun-2018_14:23:18 Exp 7344 20 female R 1 2 11 immoralOther immoralOther match n n 1 0.8182 
07-Jun-2018_14:23:20 Exp 7344 20 female R 1 2 12 immoralSelf moralOther mismatch m m 1 0.7845 
07-Jun-2018_14:23:23 Exp 7344 20 female R 1 2 13 moralOther moralOther match n n 1 0.6305 
07-Jun-2018_14:23:25 Exp 7344 20 female R 1 2 14 immoralOther immoralOther match n n 1 0.5067 
07-Jun-2018_14:23:27 Exp 7344 20 female R 1 2 15 moralOther moralOther match n m 0 0.8968 
07-Jun-2018_14:23:30 Exp 7344 20 female R 1 2 16 immoralSelf moralOther mismatch m m 1 0.7290 
07-Jun-2018_14:23:32 Exp 7344 20 female R 1 2 17 moralSelf moralSelf match n n 1 0.4891 
07-Jun-2018_14:23:34 Exp 7344 20 female R 1 2 18 moralOther moralSelf mismatch m n 0 0.7132 
07-Jun-2018_14:23:36 Exp 7344 20 female R 1 2 19 immoralOther moralSelf mismatch m m 1 0.5894 
07-Jun-2018_14:23:39 Exp 7344 20 female R 1 2 20 immoralSelf immoralSelf match n n 1 0.6096 
07-Jun-2018_14:23:41 Exp 7344 20 female R 1 2 21 moralOther immoralSelf mismatch m m 1 0.6656 
07-Jun-2018_14:23:43 Exp 7344 20 female R 1 2 22 immoralOther moralOther mismatch m m 1 0.6317 
07-Jun-2018_14:23:45 Exp 7344 20 female R 1 2 23 moralSelf moralSelf match n n 1 0.4599 
07-Jun-2018_14:23:47 Exp 7344 20 female R 1 2 24 moralOther moralOther match n n 1 0.5540 
Date Prac Sub Age Sex Hand Block Bin Trial Shape Label Match CorrResp Resp ACC RT
07-Jun-2018_14:27:38 Exp 7344 20 female R 1 1 1 immoralSelf immoralSelf match n n 1 0.7114 
07-Jun-2018_14:27:41 Exp 7344 20 female R 1 1 2 immoralOther moralSelf mismatch m m 1 0.4036 
07-Jun-2018_14:27:43 Exp 7344 20 female R 1 1 3 immoralOther moralOther mismatch m m 1 0.7896 
07-Jun-2018_14:27:45 Exp 7344 20 female R 1 1 4 immoralOther moralOther mismatch m m 1 0.5857 
07-Jun-2018_14:27:48 Exp 7344 20 female R 1 1 5 moralOther moralSelf mismatch m n 0 0.7280 
07-Jun-2018_14:27:50 Exp 7344 20 female R 1 1 6 immoralOther immoralOther match n n 1 0.7360 
07-Jun-2018_14:27:52 Exp 7344 20 female R 1 1 7 moralOther immoralSelf mismatch m m 1 0.6962 
07-Jun-2018_14:27:55 Exp 7344 20 female R 1 1 8 moralSelf moralSelf match n n 1 0.9203 
07-Jun-2018_14:27:57 Exp 7344 20 female R 1 1 9 immoralOther immoralOther match n m 0 0.5385 
07-Jun-2018_14:27:59 Exp 7344 20 female R 1 1 10 immoralSelf immoralSelf match n n 1 0.6325 
07-Jun-2018_14:28:01 Exp 7344 20 female R 1 1 11 moralSelf immoralSelf mismatch m n 0 0.4127 
07-Jun-2018_14:28:04 Exp 7344 20 female R 1 1 12 immoralSelf moralSelf mismatch m m 1 0.7887 
07-Jun-2018_14:28:06 Exp 7344 20 female R 1 1 13 immoralSelf immoralOther mismatch m m 1 0.6169 
07-Jun-2018_14:28:08 Exp 7344 20 female R 1 1 14 immoralSelf immoralSelf match n n 1 0.6491 
07-Jun-2018_14:28:10 Exp 7344 20 female R 1 1 15 moralSelf immoralSelf mismatch m m 1 0.6891 
07-Jun-2018_14:28:13 Exp 7344 20 female R 1 1 16 moralOther immoralOther mismatch m m 1 0.6733 
07-Jun-2018_14:28:15 Exp 7344 20 female R 1 1 17 immoralSelf immoralOther mismatch m m 1 0.5494 
07-Jun-2018_14:28:18 Exp 7344 20 female R 1 1 18 moralSelf moralSelf match n n 1 0.9936 
07-Jun-2018_14:28:20 Exp 7344 20 female R 1 1 19 immoralOther immoralOther match n n 1 0.6218 
07-Jun-2018_14:28:22 Exp 7344 20 female R 1 1 20 moralOther moralOther match n n 1 0.5958 
07-Jun-2018_14:28:24 Exp 7344 20 female R 1 1 21 moralOther moralOther match n n 1 0.4400 
07-Jun-2018_14:28:26 Exp 7344 20 female R 1 1 22 moralSelf moralSelf match n n 1 0.4822 
07-Jun-2018_14:28:29 Exp 7344 20 female R 1 1 23 moralSelf immoralSelf mismatch m m 1 0.7162 
07-Jun-2018_14:28:31 Exp 7344 20 female R 1 1 24 moralOther moralOther match n n 1 0.6964 
07-Jun-2018_14:28:33 Exp 7344 20 female R 1 2 1 moralOther moralOther match n n 1 0.5365 
07-Jun-2018_14:28:36 Exp 7344 20 female R 1 2 2 moralSelf immoralOther mismatch m m 1 0.8406 
07-Jun-2018_14:28:38 Exp 7344 20 female R 1 2 3 immoralSelf immoralSelf match n n 1 0.6907 
07-Jun-2018_14:28:40 Exp 7344 20 female R 1 2 4 moralOther moralOther match n n 1 0.4909 
07-Jun-2018_14:28:42 Exp 7344 20 female R 1 2 5 moralOther immoralSelf mismatch m m 1 0.7310 
07-Jun-2018_14:28:44 Exp 7344 20 female R 1 2 6 immoralOther immoralOther match n n 1 0.4352 
07-Jun-2018_14:28:47 Exp 7344 20 female R 1 2 7 immoralOther immoralSelf mismatch m m 1 0.5833 
07-Jun-2018_14:28:49 Exp 7344 20 female R 1 2 8 immoralSelf immoralSelf match n NA -1 1.0850 
07-Jun-2018_14:28:52 Exp 7344 20 female R 1 2 9 immoralSelf moralOther mismatch m m 1 0.6396 
07-Jun-2018_14:28:54 Exp 7344 20 female R 1 2 10 immoralSelf immoralOther mismatch m m 1 0.7618 
07-Jun-2018_14:28:56 Exp 7344 20 female R 1 2 11 moralSelf immoralSelf mismatch m n 0 0.5078 
07-Jun-2018_14:28:58 Exp 7344 20 female R 1 2 12 moralSelf moralSelf match n n 1 0.5680 
07-Jun-2018_14:29:01 Exp 7344 20 female R 1 2 13 moralSelf moralSelf match n n 1 0.7681 
07-Jun-2018_14:29:03 Exp 7344 20 female R 1 2 14 immoralOther immoralSelf mismatch m m 1 0.4803 
07-Jun-2018_14:29:05 Exp 7344 20 female R 1 2 15 immoralOther immoralOther match n n 1 0.6743 
07-Jun-2018_14:29:07 Exp 7344 20 female R 1 2 16 immoralOther immoralOther match n n 1 0.6545 
07-Jun-2018_14:29:10 Exp 7344 20 female R 1 2 17 moralSelf moralOther mismatch m m 1 0.5907 
07-Jun-2018_14:29:12 Exp 7344 20 female R 1 2 18 immoralSelf immoralSelf match n m 0 0.5627 
07-Jun-2018_14:29:14 Exp 7344 20 female R 1 2 19 moralOther moralOther match n n 1 0.6689 
07-Jun-2018_14:29:16 Exp 7344 20 female R 1 2 20 moralOther moralSelf mismatch m m 1 0.6010 
07-Jun-2018_14:29:19 Exp 7344 20 female R 1 2 21 immoralOther immoralSelf mismatch m m 1 0.6512 
07-Jun-2018_14:29:21 Exp 7344 20 female R 1 2 22 moralOther immoralOther mismatch m m 1 0.6273 
07-Jun-2018_14:29:23 Exp 7344 20 female R 1 2 23 moralSelf moralSelf match n n 1 0.5194 
07-Jun-2018_14:29:25 Exp 7344 20 female R 1 2 24 immoralSelf moralSelf mismatch m m 1 0.6255 
Date Prac Sub Age Sex Hand Block Bin Trial Shape Label Match CorrResp Resp ACC RT
07-Jun-2018_14:33:18 Exp 7344 20 female R 1 1 1 moralSelf moralSelf match n n 1 0.4530 
07-Jun-2018_14:33:21 Exp 7344 20 female R 1 1 2 immoralSelf immoralSelf match n n 1 0.6612 
07-Jun-2018_14:33:23 Exp 7344 20 female R 1 1 3 immoralSelf moralOther mismatch m m 1 0.8753 
07-Jun-2018_14:33:25 Exp 7344 20 female R 1 1 4 immoralSelf immoralSelf match n n 1 0.4794 
07-Jun-2018_14:33:27 Exp 7344 20 female R 1 1 5 moralSelf immoralOther mismatch m m 1 0.5372 
07-Jun-2018_14:33:29 Exp 7344 20 female R 1 1 6 moralSelf moralSelf match n n 1 0.4797 
07-Jun-2018_14:33:32 Exp 7344 20 female R 1 1 7 immoralOther immoralOther match n n 1 0.6899 
07-Jun-2018_14:33:34 Exp 7344 20 female R 1 1 8 moralOther moralSelf mismatch m m 1 0.8739 
07-Jun-2018_14:33:36 Exp 7344 20 female R 1 1 9 moralOther moralOther match n n 1 0.5582 
07-Jun-2018_14:33:39 Exp 7344 20 female R 1 1 10 moralOther moralOther match n n 1 0.4723 
07-Jun-2018_14:33:41 Exp 7344 20 female R 1 1 11 immoralOther immoralOther match n n 1 0.6284 
07-Jun-2018_14:33:43 Exp 7344 20 female R 1 1 12 moralOther moralSelf mismatch m m 1 0.6165 
07-Jun-2018_14:33:45 Exp 7344 20 female R 1 1 13 moralSelf immoralSelf mismatch m m 1 0.5606 
07-Jun-2018_14:33:47 Exp 7344 20 female R 1 1 14 moralSelf moralSelf match n n 1 0.5546 
07-Jun-2018_14:33:50 Exp 7344 20 female R 1 1 15 immoralSelf immoralSelf match n n 1 0.6948 
07-Jun-2018_14:33:52 Exp 7344 20 female R 1 1 16 moralSelf immoralOther mismatch m m 1 0.5989 
07-Jun-2018_14:33:54 Exp 7344 20 female R 1 1 17 immoralOther immoralSelf mismatch m m 1 0.6572 
07-Jun-2018_14:33:57 Exp 7344 20 female R 1 1 18 immoralSelf moralSelf mismatch m m 1 0.7433 
07-Jun-2018_14:33:59 Exp 7344 20 female R 1 1 19 immoralOther immoralOther match n NA -1 1.0850 
07-Jun-2018_14:34:02 Exp 7344 20 female R 1 1 20 immoralOther immoralSelf mismatch m m 1 0.5835 
07-Jun-2018_14:34:04 Exp 7344 20 female R 1 1 21 immoralSelf moralOther mismatch m m 1 0.5976 
07-Jun-2018_14:34:06 Exp 7344 20 female R 1 1 22 moralOther moralOther match n n 1 0.7917 
07-Jun-2018_14:34:08 Exp 7344 20 female R 1 1 23 moralOther immoralSelf mismatch m m 1 0.5479 
07-Jun-2018_14:34:11 Exp 7344 20 female R 1 1 24 immoralOther moralOther mismatch m m 1 0.7762 
07-Jun-2018_14:34:13 Exp 7344 20 female R 1 2 1 immoralOther immoralSelf mismatch m m 1 0.4723 
07-Jun-2018_14:34:15 Exp 7344 20 female R 1 2 2 immoralSelf immoralOther mismatch m m 1 0.6923 
07-Jun-2018_14:34:17 Exp 7344 20 female R 1 2 3 immoralSelf moralOther mismatch m m 1 0.6445 
07-Jun-2018_14:34:20 Exp 7344 20 female R 1 2 4 moralSelf moralSelf match n n 1 0.5106 
07-Jun-2018_14:34:22 Exp 7344 20 female R 1 2 5 immoralOther immoralSelf mismatch m m 1 0.5628 
07-Jun-2018_14:34:24 Exp 7344 20 female R 1 2 6 immoralOther immoralOther match n m 0 0.6048 
07-Jun-2018_14:34:26 Exp 7344 20 female R 1 2 7 moralSelf immoralSelf mismatch m n 0 0.5109 
07-Jun-2018_14:34:28 Exp 7344 20 female R 1 2 8 moralOther moralOther match n m 0 0.6911 
07-Jun-2018_14:34:31 Exp 7344 20 female R 1 2 9 immoralOther immoralOther match n n 1 0.6912 
07-Jun-2018_14:34:33 Exp 7344 20 female R 1 2 10 moralSelf moralOther mismatch m m 1 0.6034 
07-Jun-2018_14:34:35 Exp 7344 20 female R 1 2 11 immoralSelf immoralSelf match n n 1 0.5816 
07-Jun-2018_14:34:38 Exp 7344 20 female R 1 2 12 immoralSelf immoralSelf match n n 1 0.6357 
07-Jun-2018_14:34:40 Exp 7344 20 female R 1 2 13 moralOther immoralOther mismatch m m 1 0.6477 
07-Jun-2018_14:34:42 Exp 7344 20 female R 1 2 14 moralOther immoralSelf mismatch m m 1 0.5758 
07-Jun-2018_14:34:44 Exp 7344 20 female R 1 2 15 moralSelf immoralOther mismatch m m 1 0.5360 
07-Jun-2018_14:34:46 Exp 7344 20 female R 1 2 16 immoralOther immoralOther match n n 1 0.5281 
07-Jun-2018_14:34:48 Exp 7344 20 female R 1 2 17 moralSelf moralSelf match n n 1 0.4885 
07-Jun-2018_14:34:51 Exp 7344 20 female R 1 2 18 moralOther immoralOther mismatch m n 0 0.5604 
07-Jun-2018_14:34:53 Exp 7344 20 female R 1 2 19 moralOther moralOther match n n 1 0.5225 
07-Jun-2018_14:34:55 Exp 7344 20 female R 1 2 20 immoralSelf moralSelf mismatch m m 1 0.5806 
07-Jun-2018_14:34:57 Exp 7344 20 female R 1 2 21 immoralOther moralSelf mismatch m m 1 0.5708 
07-Jun-2018_14:34:59 Exp 7344 20 female R 1 2 22 moralOther moralOther match n n 1 0.5549 
07-Jun-2018_14:35:02 Exp 7344 20 female R 1 2 23 immoralSelf immoralSelf match n n 1 0.5510 
07-Jun-2018_14:35:04 Exp 7344 20 female R 1 2 24 moralSelf moralSelf match n n 1 0.4991 
