Date Prac Sub Age Sex Hand Block Bin Trial Shape Label Match CorrResp Resp ACC RT
31-May-2018_13:42:07 Exp 7334 25 female R 1 1 1 moralOther moralOther match m m 1 0.7028 
31-May-2018_13:42:09 Exp 7334 25 female R 1 1 2 moralOther moralSelf mismatch n m 0 0.4337 
31-May-2018_13:42:11 Exp 7334 25 female R 1 1 3 moralSelf moralOther mismatch n m 0 0.5232 
31-May-2018_13:42:14 Exp 7334 25 female R 1 1 4 immoralSelf immoralSelf match m m 1 0.9143 
31-May-2018_13:42:16 Exp 7334 25 female R 1 1 5 moralOther immoralSelf mismatch n m 0 0.6533 
31-May-2018_13:42:18 Exp 7334 25 female R 1 1 6 immoralSelf moralOther mismatch n m 0 0.5950 
31-May-2018_13:42:21 Exp 7334 25 female R 1 1 7 moralSelf moralOther mismatch n m 0 0.6356 
31-May-2018_13:42:23 Exp 7334 25 female R 1 1 8 immoralOther immoralOther match m m 1 0.8531 
31-May-2018_13:42:26 Exp 7334 25 female R 1 1 9 immoralOther immoralOther match m NA -1 1.0841 
31-May-2018_13:42:28 Exp 7334 25 female R 1 1 10 immoralOther moralSelf mismatch n n 1 0.8852 
31-May-2018_13:42:31 Exp 7334 25 female R 1 1 11 moralSelf moralSelf match m m 1 0.5678 
31-May-2018_13:42:33 Exp 7334 25 female R 1 1 12 moralSelf moralSelf match m m 1 0.5519 
31-May-2018_13:42:35 Exp 7334 25 female R 1 1 13 immoralOther moralOther mismatch n n 1 0.6998 
31-May-2018_13:42:37 Exp 7334 25 female R 1 1 14 immoralOther moralOther mismatch n m 0 0.6824 
31-May-2018_13:42:40 Exp 7334 25 female R 1 1 15 moralSelf moralSelf match m m 1 0.7808 
31-May-2018_13:42:42 Exp 7334 25 female R 1 1 16 moralSelf moralOther mismatch n m 0 0.5532 
31-May-2018_13:42:45 Exp 7334 25 female R 1 1 17 immoralSelf immoralOther mismatch n n 1 0.9331 
31-May-2018_13:42:47 Exp 7334 25 female R 1 1 18 immoralOther immoralOther match m m 1 0.9764 
31-May-2018_13:42:50 Exp 7334 25 female R 1 1 19 immoralSelf immoralSelf match m n 0 0.7568 
31-May-2018_13:42:52 Exp 7334 25 female R 1 1 20 immoralSelf immoralOther mismatch n n 1 0.6886 
31-May-2018_13:42:54 Exp 7334 25 female R 1 1 21 moralOther moralSelf mismatch n n 1 0.8511 
31-May-2018_13:42:57 Exp 7334 25 female R 1 1 22 immoralSelf immoralSelf match m m 1 0.9929 
31-May-2018_13:43:00 Exp 7334 25 female R 1 1 23 moralOther moralOther match m m 1 0.9455 
31-May-2018_13:43:02 Exp 7334 25 female R 1 1 24 moralOther moralOther match m m 1 0.4811 
31-May-2018_13:43:04 Exp 7334 25 female R 1 2 1 moralSelf immoralOther mismatch n n 1 1.0435 
31-May-2018_13:43:07 Exp 7334 25 female R 1 2 2 immoralOther immoralOther match m m 1 0.5730 
31-May-2018_13:43:09 Exp 7334 25 female R 1 2 3 moralSelf moralSelf match m m 1 0.7011 
31-May-2018_13:43:11 Exp 7334 25 female R 1 2 4 immoralOther immoralOther match m n 0 0.8758 
31-May-2018_13:43:14 Exp 7334 25 female R 1 2 5 immoralOther moralOther mismatch n n 1 0.6580 
31-May-2018_13:43:16 Exp 7334 25 female R 1 2 6 moralOther moralOther match m m 1 0.6280 
31-May-2018_13:43:18 Exp 7334 25 female R 1 2 7 immoralOther immoralSelf mismatch n n 1 0.6093 
31-May-2018_13:43:21 Exp 7334 25 female R 1 2 8 immoralSelf moralSelf mismatch n n 1 0.9223 
31-May-2018_13:43:23 Exp 7334 25 female R 1 2 9 immoralSelf immoralSelf match m m 1 1.0655 
31-May-2018_13:43:26 Exp 7334 25 female R 1 2 10 immoralSelf immoralSelf match m m 1 0.6995 
31-May-2018_13:43:28 Exp 7334 25 female R 1 2 11 moralSelf moralSelf match m m 1 0.8182 
31-May-2018_13:43:30 Exp 7334 25 female R 1 2 12 immoralSelf moralSelf mismatch n m 0 0.4432 
31-May-2018_13:43:32 Exp 7334 25 female R 1 2 13 immoralSelf immoralSelf match m m 1 0.5487 
31-May-2018_13:43:35 Exp 7334 25 female R 1 2 14 moralOther moralOther match m m 1 0.5404 
31-May-2018_13:43:37 Exp 7334 25 female R 1 2 15 moralSelf immoralSelf mismatch n n 1 0.6199 
31-May-2018_13:43:39 Exp 7334 25 female R 1 2 16 immoralSelf immoralOther mismatch n m 0 0.5650 
31-May-2018_13:43:42 Exp 7334 25 female R 1 2 17 moralOther immoralOther mismatch n n 1 0.8690 
31-May-2018_13:43:44 Exp 7334 25 female R 1 2 18 moralOther moralOther match m m 1 0.4034 
31-May-2018_13:43:46 Exp 7334 25 female R 1 2 19 moralSelf moralSelf match m m 1 0.6241 
31-May-2018_13:43:48 Exp 7334 25 female R 1 2 20 moralOther immoralOther mismatch n n 1 0.6614 
31-May-2018_13:43:50 Exp 7334 25 female R 1 2 21 immoralOther immoralOther match m m 1 0.5673 
31-May-2018_13:43:53 Exp 7334 25 female R 1 2 22 immoralOther moralSelf mismatch n m 0 0.6074 
31-May-2018_13:43:55 Exp 7334 25 female R 1 2 23 moralOther moralSelf mismatch n m 0 0.5802 
31-May-2018_13:43:57 Exp 7334 25 female R 1 2 24 moralSelf moralOther mismatch n n 1 1.0086 
31-May-2018_13:44:00 Exp 7334 25 female R 1 3 1 moralSelf immoralOther mismatch n m 0 0.7814 
31-May-2018_13:44:02 Exp 7334 25 female R 1 3 2 moralOther immoralOther mismatch n n 1 0.8256 
31-May-2018_13:44:05 Exp 7334 25 female R 1 3 3 moralOther moralOther match m m 1 0.6790 
31-May-2018_13:44:07 Exp 7334 25 female R 1 3 4 immoralSelf immoralOther mismatch n m 0 0.6692 
31-May-2018_13:44:09 Exp 7334 25 female R 1 3 5 moralOther moralOther match m m 1 0.6034 
31-May-2018_13:44:12 Exp 7334 25 female R 1 3 6 immoralSelf immoralSelf match m m 1 0.7043 
31-May-2018_13:44:14 Exp 7334 25 female R 1 3 7 immoralOther immoralOther match m m 1 1.0351 
31-May-2018_13:44:16 Exp 7334 25 female R 1 3 8 immoralOther immoralOther match m m 1 0.4447 
31-May-2018_13:44:19 Exp 7334 25 female R 1 3 9 immoralSelf immoralOther mismatch n n 1 0.6745 
31-May-2018_13:44:21 Exp 7334 25 female R 1 3 10 immoralSelf immoralSelf match m m 1 0.5687 
31-May-2018_13:44:23 Exp 7334 25 female R 1 3 11 moralSelf moralSelf match m m 1 0.7607 
31-May-2018_13:44:25 Exp 7334 25 female R 1 3 12 moralSelf moralOther mismatch n m 0 0.5245 
31-May-2018_13:44:28 Exp 7334 25 female R 1 3 13 moralOther moralOther match m m 1 0.8438 
31-May-2018_13:44:31 Exp 7334 25 female R 1 3 14 moralOther immoralOther mismatch n NA -1 1.0841 
31-May-2018_13:44:33 Exp 7334 25 female R 1 3 15 immoralSelf moralSelf mismatch n m 0 0.5437 
31-May-2018_13:44:35 Exp 7334 25 female R 1 3 16 immoralOther immoralSelf mismatch n n 1 0.8873 
31-May-2018_13:44:38 Exp 7334 25 female R 1 3 17 immoralSelf immoralSelf match m NA -1 1.0841 
31-May-2018_13:44:40 Exp 7334 25 female R 1 3 18 moralOther immoralOther mismatch n m 0 0.8042 
31-May-2018_13:44:43 Exp 7334 25 female R 1 3 19 moralSelf moralOther mismatch n m 0 0.5610 
31-May-2018_13:44:45 Exp 7334 25 female R 1 3 20 immoralOther moralOther mismatch n n 1 0.7009 
31-May-2018_13:44:47 Exp 7334 25 female R 1 3 21 immoralOther immoralOther match m n 0 0.8276 
31-May-2018_13:44:50 Exp 7334 25 female R 1 3 22 moralSelf moralSelf match m m 1 0.6649 
31-May-2018_13:44:52 Exp 7334 25 female R 1 3 23 immoralOther immoralSelf mismatch n n 1 0.6028 
31-May-2018_13:44:54 Exp 7334 25 female R 1 3 24 moralSelf moralSelf match m m 1 0.5836 
31-May-2018_13:45:09 Exp 7334 25 female R 1 4 1 moralSelf moralSelf match m m 1 0.6779 
31-May-2018_13:45:12 Exp 7334 25 female R 1 4 2 immoralOther immoralOther match m m 1 0.8761 
31-May-2018_13:45:14 Exp 7334 25 female R 1 4 3 immoralSelf immoralSelf match m m 1 0.6103 
31-May-2018_13:45:16 Exp 7334 25 female R 1 4 4 immoralSelf moralOther mismatch n n 1 0.6114 
31-May-2018_13:45:19 Exp 7334 25 female R 1 4 5 moralOther moralOther match m m 1 0.5644 
31-May-2018_13:45:21 Exp 7334 25 female R 1 4 6 moralOther moralSelf mismatch n NA -1 1.0841 
31-May-2018_13:45:24 Exp 7334 25 female R 1 4 7 immoralSelf moralSelf mismatch n n 1 0.7749 
31-May-2018_13:45:26 Exp 7334 25 female R 1 4 8 immoralOther moralSelf mismatch n m 0 0.5793 
31-May-2018_13:45:28 Exp 7334 25 female R 1 4 9 immoralOther immoralOther match m m 1 0.6396 
31-May-2018_13:45:31 Exp 7334 25 female R 1 4 10 immoralSelf immoralSelf match m m 1 0.8412 
31-May-2018_13:45:33 Exp 7334 25 female R 1 4 11 immoralSelf moralOther mismatch n n 1 0.7307 
31-May-2018_13:45:35 Exp 7334 25 female R 1 4 12 immoralOther immoralSelf mismatch n m 0 0.6701 
31-May-2018_13:45:38 Exp 7334 25 female R 1 4 13 moralOther moralOther match m m 1 0.6443 
31-May-2018_13:45:40 Exp 7334 25 female R 1 4 14 immoralSelf immoralSelf match m m 1 0.9939 
31-May-2018_13:45:43 Exp 7334 25 female R 1 4 15 moralSelf immoralSelf mismatch n n 1 0.6185 
31-May-2018_13:45:45 Exp 7334 25 female R 1 4 16 moralOther moralOther match m m 1 0.5957 
31-May-2018_13:45:47 Exp 7334 25 female R 1 4 17 moralOther immoralSelf mismatch n n 1 0.7002 
31-May-2018_13:45:50 Exp 7334 25 female R 1 4 18 moralSelf immoralSelf mismatch n n 1 0.7868 
31-May-2018_13:45:52 Exp 7334 25 female R 1 4 19 moralOther immoralSelf mismatch n n 1 0.8115 
31-May-2018_13:45:54 Exp 7334 25 female R 1 4 20 immoralOther immoralOther match m m 1 0.7005 
31-May-2018_13:45:57 Exp 7334 25 female R 1 4 21 moralSelf moralSelf match m m 1 0.6751 
31-May-2018_13:45:59 Exp 7334 25 female R 1 4 22 moralSelf moralSelf match m m 1 0.8254 
31-May-2018_13:46:01 Exp 7334 25 female R 1 4 23 moralSelf immoralOther mismatch n n 1 0.7747 
31-May-2018_13:46:04 Exp 7334 25 female R 1 4 24 immoralOther immoralSelf mismatch n n 1 0.7550 
31-May-2018_13:46:06 Exp 7334 25 female R 1 5 1 moralOther moralOther match m m 1 0.8708 
31-May-2018_13:46:09 Exp 7334 25 female R 1 5 2 immoralSelf immoralSelf match m n 0 0.7330 
31-May-2018_13:46:11 Exp 7334 25 female R 1 5 3 immoralSelf immoralOther mismatch n m 0 0.5525 
31-May-2018_13:46:13 Exp 7334 25 female R 1 5 4 moralSelf moralSelf match m m 1 0.5803 
31-May-2018_13:46:16 Exp 7334 25 female R 1 5 5 immoralSelf immoralSelf match m n 0 0.7446 
31-May-2018_13:46:18 Exp 7334 25 female R 1 5 6 immoralSelf immoralSelf match m m 1 0.4803 
31-May-2018_13:46:20 Exp 7334 25 female R 1 5 7 immoralOther immoralOther match m m 1 0.8187 
31-May-2018_13:46:22 Exp 7334 25 female R 1 5 8 moralOther immoralSelf mismatch n n 1 0.7398 
31-May-2018_13:46:25 Exp 7334 25 female R 1 5 9 moralOther moralOther match m m 1 0.6514 
31-May-2018_13:46:27 Exp 7334 25 female R 1 5 10 immoralOther immoralSelf mismatch n NA -1 1.0841 
31-May-2018_13:46:30 Exp 7334 25 female R 1 5 11 immoralSelf moralSelf mismatch n m 0 0.5796 
31-May-2018_13:46:32 Exp 7334 25 female R 1 5 12 moralSelf immoralSelf mismatch n n 1 0.8800 
31-May-2018_13:46:35 Exp 7334 25 female R 1 5 13 immoralOther immoralOther match m NA -1 1.0841 
31-May-2018_13:46:37 Exp 7334 25 female R 1 5 14 moralOther moralSelf mismatch n m 0 0.5329 
31-May-2018_13:46:39 Exp 7334 25 female R 1 5 15 moralSelf moralOther mismatch n m 0 0.5603 
31-May-2018_13:46:42 Exp 7334 25 female R 1 5 16 immoralOther immoralOther match m m 1 0.8600 
31-May-2018_13:46:44 Exp 7334 25 female R 1 5 17 moralOther moralSelf mismatch n n 1 0.7182 
31-May-2018_13:46:47 Exp 7334 25 female R 1 5 18 moralSelf immoralOther mismatch n n 1 0.7653 
31-May-2018_13:46:49 Exp 7334 25 female R 1 5 19 immoralSelf immoralOther mismatch n n 1 1.0374 
31-May-2018_13:46:52 Exp 7334 25 female R 1 5 20 moralSelf moralSelf match m m 1 0.9189 
31-May-2018_13:46:54 Exp 7334 25 female R 1 5 21 immoralOther immoralSelf mismatch n n 1 0.5420 
31-May-2018_13:46:56 Exp 7334 25 female R 1 5 22 moralSelf moralSelf match m m 1 0.6297 
31-May-2018_13:46:58 Exp 7334 25 female R 1 5 23 moralOther moralOther match m m 1 0.6189 
31-May-2018_13:47:01 Exp 7334 25 female R 1 5 24 immoralOther immoralSelf mismatch n n 1 0.7080 
31-May-2018_13:47:07 Exp 7334 25 female R 2 1 1 immoralOther immoralOther match m NA -1 1.0841 
31-May-2018_13:47:08 Exp 7334 25 female R 2 1 2 moralOther immoralOther mismatch n m 0 0.3346 
31-May-2018_13:47:11 Exp 7334 25 female R 2 1 3 moralSelf moralSelf match m m 1 0.5299 
31-May-2018_13:47:13 Exp 7334 25 female R 2 1 4 moralOther immoralSelf mismatch n n 1 0.7334 
31-May-2018_13:47:15 Exp 7334 25 female R 2 1 5 moralOther moralOther match m m 1 0.5287 
31-May-2018_13:47:17 Exp 7334 25 female R 2 1 6 immoralSelf immoralSelf match m m 1 0.6602 
31-May-2018_13:47:20 Exp 7334 25 female R 2 1 7 immoralOther immoralSelf mismatch n n 1 0.5582 
31-May-2018_13:47:22 Exp 7334 25 female R 2 1 8 immoralSelf immoralSelf match m m 1 0.6420 
31-May-2018_13:47:24 Exp 7334 25 female R 2 1 9 immoralSelf moralOther mismatch n n 1 0.6994 
31-May-2018_13:47:27 Exp 7334 25 female R 2 1 10 moralSelf moralSelf match m m 1 0.6822 
31-May-2018_13:47:29 Exp 7334 25 female R 2 1 11 immoralSelf moralOther mismatch n n 1 0.6926 
31-May-2018_13:47:31 Exp 7334 25 female R 2 1 12 immoralOther immoralOther match m m 1 0.6433 
31-May-2018_13:47:33 Exp 7334 25 female R 2 1 13 moralSelf immoralSelf mismatch n m 0 0.5569 
31-May-2018_13:47:35 Exp 7334 25 female R 2 1 14 immoralSelf immoralSelf match m m 1 0.4727 
31-May-2018_13:47:38 Exp 7334 25 female R 2 1 15 moralOther immoralSelf mismatch n n 1 0.7510 
31-May-2018_13:47:40 Exp 7334 25 female R 2 1 16 moralSelf immoralSelf mismatch n n 1 0.7867 
31-May-2018_13:47:42 Exp 7334 25 female R 2 1 17 immoralOther moralOther mismatch n m 0 0.5633 
31-May-2018_13:47:45 Exp 7334 25 female R 2 1 18 moralSelf moralSelf match m n 0 0.6434 
31-May-2018_13:47:47 Exp 7334 25 female R 2 1 19 moralSelf immoralOther mismatch n n 1 0.7410 
31-May-2018_13:47:49 Exp 7334 25 female R 2 1 20 moralOther moralOther match m m 1 0.6206 
31-May-2018_13:47:52 Exp 7334 25 female R 2 1 21 immoralSelf moralOther mismatch n n 1 0.5657 
31-May-2018_13:47:54 Exp 7334 25 female R 2 1 22 immoralOther immoralOther match m n 0 0.6137 
31-May-2018_13:47:56 Exp 7334 25 female R 2 1 23 immoralOther immoralSelf mismatch n n 1 0.7107 
31-May-2018_13:47:58 Exp 7334 25 female R 2 1 24 moralOther moralOther match m m 1 0.5056 
31-May-2018_13:48:00 Exp 7334 25 female R 2 2 1 moralOther moralOther match m m 1 0.5085 
31-May-2018_13:48:03 Exp 7334 25 female R 2 2 2 moralOther immoralSelf mismatch n n 1 0.5673 
31-May-2018_13:48:05 Exp 7334 25 female R 2 2 3 moralSelf moralSelf match m m 1 0.5755 
31-May-2018_13:48:07 Exp 7334 25 female R 2 2 4 immoralSelf immoralSelf match m m 1 0.6119 
31-May-2018_13:48:09 Exp 7334 25 female R 2 2 5 immoralSelf immoralSelf match m m 1 0.5809 
31-May-2018_13:48:11 Exp 7334 25 female R 2 2 6 immoralOther immoralSelf mismatch n n 1 0.5212 
31-May-2018_13:48:14 Exp 7334 25 female R 2 2 7 moralOther immoralSelf mismatch n n 1 0.6403 
31-May-2018_13:48:16 Exp 7334 25 female R 2 2 8 moralSelf immoralSelf mismatch n m 0 0.6099 
31-May-2018_13:48:18 Exp 7334 25 female R 2 2 9 immoralOther moralSelf mismatch n n 1 0.7549 
31-May-2018_13:48:21 Exp 7334 25 female R 2 2 10 moralOther moralOther match m m 1 0.6948 
31-May-2018_13:48:23 Exp 7334 25 female R 2 2 11 immoralSelf moralSelf mismatch n n 1 0.7174 
31-May-2018_13:48:25 Exp 7334 25 female R 2 2 12 moralSelf immoralSelf mismatch n n 1 0.7965 
31-May-2018_13:48:28 Exp 7334 25 female R 2 2 13 immoralOther immoralSelf mismatch n NA -1 1.0841 
31-May-2018_13:48:31 Exp 7334 25 female R 2 2 14 moralSelf moralSelf match m m 1 0.6796 
31-May-2018_13:48:33 Exp 7334 25 female R 2 2 15 moralOther moralSelf mismatch n m 0 0.5781 
31-May-2018_13:48:35 Exp 7334 25 female R 2 2 16 moralSelf moralSelf match m m 1 0.5264 
31-May-2018_13:48:37 Exp 7334 25 female R 2 2 17 immoralOther immoralOther match m n 0 0.6376 
31-May-2018_13:48:39 Exp 7334 25 female R 2 2 18 moralSelf immoralOther mismatch n n 1 0.6790 
31-May-2018_13:48:42 Exp 7334 25 female R 2 2 19 immoralSelf immoralSelf match m m 1 1.0053 
31-May-2018_13:48:44 Exp 7334 25 female R 2 2 20 moralOther moralOther match m m 1 0.5062 
31-May-2018_13:48:47 Exp 7334 25 female R 2 2 21 immoralOther immoralOther match m m 1 0.6610 
31-May-2018_13:48:49 Exp 7334 25 female R 2 2 22 immoralSelf moralSelf mismatch n m 0 0.7350 
31-May-2018_13:48:51 Exp 7334 25 female R 2 2 23 immoralOther immoralOther match m m 1 0.5063 
31-May-2018_13:48:53 Exp 7334 25 female R 2 2 24 immoralSelf immoralOther mismatch n n 1 0.7732 
31-May-2018_13:48:56 Exp 7334 25 female R 2 3 1 immoralOther immoralOther match m m 1 0.6774 
31-May-2018_13:48:58 Exp 7334 25 female R 2 3 2 moralOther immoralSelf mismatch n m 0 0.8916 
31-May-2018_13:49:01 Exp 7334 25 female R 2 3 3 immoralSelf immoralSelf match m m 1 0.8583 
31-May-2018_13:49:03 Exp 7334 25 female R 2 3 4 immoralOther immoralSelf mismatch n m 0 0.5323 
31-May-2018_13:49:06 Exp 7334 25 female R 2 3 5 moralOther immoralOther mismatch n NA -1 1.0841 
31-May-2018_13:49:08 Exp 7334 25 female R 2 3 6 moralOther moralOther match m m 1 0.5941 
31-May-2018_13:49:10 Exp 7334 25 female R 2 3 7 immoralOther immoralOther match m m 1 0.5948 
31-May-2018_13:49:12 Exp 7334 25 female R 2 3 8 moralSelf moralOther mismatch n m 0 0.4913 
31-May-2018_13:49:15 Exp 7334 25 female R 2 3 9 immoralSelf immoralOther mismatch n n 1 0.6900 
31-May-2018_13:49:17 Exp 7334 25 female R 2 3 10 immoralSelf moralSelf mismatch n m 0 0.6683 
31-May-2018_13:49:19 Exp 7334 25 female R 2 3 11 moralSelf moralOther mismatch n m 0 0.7146 
31-May-2018_13:49:21 Exp 7334 25 female R 2 3 12 moralSelf moralSelf match m m 1 0.6135 
31-May-2018_13:49:24 Exp 7334 25 female R 2 3 13 moralSelf immoralSelf mismatch n m 0 0.5586 
31-May-2018_13:49:26 Exp 7334 25 female R 2 3 14 immoralOther moralSelf mismatch n n 1 0.9224 
31-May-2018_13:49:28 Exp 7334 25 female R 2 3 15 moralSelf moralSelf match m m 1 0.6094 
31-May-2018_13:49:31 Exp 7334 25 female R 2 3 16 immoralSelf immoralSelf match m m 1 0.7066 
31-May-2018_13:49:33 Exp 7334 25 female R 2 3 17 immoralOther immoralOther match m n 0 0.5975 
31-May-2018_13:49:35 Exp 7334 25 female R 2 3 18 immoralSelf immoralOther mismatch n n 1 0.6503 
31-May-2018_13:49:37 Exp 7334 25 female R 2 3 19 immoralOther moralOther mismatch n n 1 0.5441 
31-May-2018_13:49:40 Exp 7334 25 female R 2 3 20 moralOther moralOther match m m 1 0.7996 
31-May-2018_13:49:42 Exp 7334 25 female R 2 3 21 immoralSelf immoralSelf match m n 0 0.6365 
31-May-2018_13:49:44 Exp 7334 25 female R 2 3 22 moralOther moralOther match m m 1 0.5180 
31-May-2018_13:49:47 Exp 7334 25 female R 2 3 23 moralOther immoralOther mismatch n n 1 0.7971 
31-May-2018_13:49:49 Exp 7334 25 female R 2 3 24 moralSelf moralSelf match m m 1 0.6020 
31-May-2018_13:49:59 Exp 7334 25 female R 2 4 1 moralSelf moralSelf match m m 1 0.7260 
31-May-2018_13:50:02 Exp 7334 25 female R 2 4 2 moralOther immoralSelf mismatch n n 1 0.9653 
31-May-2018_13:50:04 Exp 7334 25 female R 2 4 3 immoralSelf immoralSelf match m m 1 0.7574 
31-May-2018_13:50:07 Exp 7334 25 female R 2 4 4 moralOther immoralOther mismatch n n 1 0.8733 
31-May-2018_13:50:09 Exp 7334 25 female R 2 4 5 immoralOther immoralSelf mismatch n n 1 0.9035 
31-May-2018_13:50:12 Exp 7334 25 female R 2 4 6 moralSelf immoralOther mismatch n n 1 0.7944 
31-May-2018_13:50:14 Exp 7334 25 female R 2 4 7 immoralOther immoralOther match m m 1 0.7310 
31-May-2018_13:50:16 Exp 7334 25 female R 2 4 8 moralOther moralOther match m m 1 0.5744 
31-May-2018_13:50:19 Exp 7334 25 female R 2 4 9 immoralOther moralSelf mismatch n n 1 0.8266 
31-May-2018_13:50:21 Exp 7334 25 female R 2 4 10 moralOther immoralSelf mismatch n n 1 0.6959 
31-May-2018_13:50:23 Exp 7334 25 female R 2 4 11 moralSelf moralSelf match m m 1 0.6147 
31-May-2018_13:50:26 Exp 7334 25 female R 2 4 12 immoralOther immoralOther match m n 0 0.8397 
31-May-2018_13:50:28 Exp 7334 25 female R 2 4 13 immoralSelf moralOther mismatch n n 1 0.7052 
31-May-2018_13:50:30 Exp 7334 25 female R 2 4 14 immoralSelf immoralSelf match m m 1 0.6281 
31-May-2018_13:50:33 Exp 7334 25 female R 2 4 15 moralSelf immoralSelf mismatch n n 1 0.7213 
31-May-2018_13:50:35 Exp 7334 25 female R 2 4 16 moralOther moralOther match m m 1 0.6086 
31-May-2018_13:50:37 Exp 7334 25 female R 2 4 17 moralOther moralOther match m m 1 0.7253 
31-May-2018_13:50:40 Exp 7334 25 female R 2 4 18 immoralSelf immoralSelf match m m 1 0.7565 
31-May-2018_13:50:42 Exp 7334 25 female R 2 4 19 immoralSelf moralOther mismatch n n 1 0.8323 
31-May-2018_13:50:44 Exp 7334 25 female R 2 4 20 moralSelf moralSelf match m m 1 0.6258 
31-May-2018_13:50:47 Exp 7334 25 female R 2 4 21 immoralSelf immoralOther mismatch n n 1 0.6631 
31-May-2018_13:50:49 Exp 7334 25 female R 2 4 22 immoralOther moralOther mismatch n n 1 0.7051 
31-May-2018_13:50:51 Exp 7334 25 female R 2 4 23 immoralOther immoralOther match m m 1 0.5479 
31-May-2018_13:50:53 Exp 7334 25 female R 2 4 24 moralSelf immoralSelf mismatch n m 0 0.7157 
31-May-2018_13:50:56 Exp 7334 25 female R 2 5 1 moralSelf moralOther mismatch n m 0 0.5628 
31-May-2018_13:50:58 Exp 7334 25 female R 2 5 2 moralOther moralOther match m m 1 0.6988 
31-May-2018_13:51:00 Exp 7334 25 female R 2 5 3 immoralOther immoralOther match m m 1 0.8175 
31-May-2018_13:51:03 Exp 7334 25 female R 2 5 4 moralOther immoralOther mismatch n n 1 0.6906 
31-May-2018_13:51:05 Exp 7334 25 female R 2 5 5 moralOther moralOther match m m 1 0.6130 
31-May-2018_13:51:07 Exp 7334 25 female R 2 5 6 immoralSelf immoralSelf match m m 1 0.7100 
31-May-2018_13:51:10 Exp 7334 25 female R 2 5 7 moralOther moralSelf mismatch n n 1 0.6170 
31-May-2018_13:51:12 Exp 7334 25 female R 2 5 8 immoralSelf immoralOther mismatch n n 1 0.7140 
31-May-2018_13:51:15 Exp 7334 25 female R 2 5 9 immoralSelf immoralSelf match m NA -1 1.0841 
31-May-2018_13:51:17 Exp 7334 25 female R 2 5 10 moralSelf moralSelf match m m 1 0.5193 
31-May-2018_13:51:19 Exp 7334 25 female R 2 5 11 immoralSelf immoralSelf match m m 1 0.6946 
31-May-2018_13:51:21 Exp 7334 25 female R 2 5 12 moralOther moralOther match m m 1 0.5733 
31-May-2018_13:51:24 Exp 7334 25 female R 2 5 13 moralSelf moralOther mismatch n m 0 0.7974 
31-May-2018_13:51:26 Exp 7334 25 female R 2 5 14 immoralOther moralSelf mismatch n n 1 0.6581 
31-May-2018_13:51:28 Exp 7334 25 female R 2 5 15 immoralOther moralSelf mismatch n n 1 0.7401 
31-May-2018_13:51:31 Exp 7334 25 female R 2 5 16 immoralOther moralOther mismatch n n 1 0.8598 
31-May-2018_13:51:33 Exp 7334 25 female R 2 5 17 moralSelf moralSelf match m m 1 0.8457 
31-May-2018_13:51:36 Exp 7334 25 female R 2 5 18 moralSelf moralOther mismatch n n 1 0.7395 
31-May-2018_13:51:38 Exp 7334 25 female R 2 5 19 immoralSelf moralSelf mismatch n n 1 0.9791 
31-May-2018_13:51:41 Exp 7334 25 female R 2 5 20 immoralSelf moralSelf mismatch n n 1 0.5675 
31-May-2018_13:51:43 Exp 7334 25 female R 2 5 21 moralSelf moralSelf match m NA -1 1.0841 
31-May-2018_13:51:46 Exp 7334 25 female R 2 5 22 moralOther immoralOther mismatch n n 1 0.8100 
31-May-2018_13:51:48 Exp 7334 25 female R 2 5 23 immoralOther immoralOther match m m 1 0.9070 
31-May-2018_13:51:50 Exp 7334 25 female R 2 5 24 immoralOther immoralOther match m m 1 0.5100 
31-May-2018_13:51:56 Exp 7334 25 female R 3 1 1 immoralSelf immoralSelf match m NA -1 1.0841 
31-May-2018_13:51:58 Exp 7334 25 female R 3 1 2 immoralOther immoralOther match m m 1 0.5479 
31-May-2018_13:52:00 Exp 7334 25 female R 3 1 3 immoralOther immoralOther match m m 1 0.4356 
31-May-2018_13:52:03 Exp 7334 25 female R 3 1 4 immoralOther immoralSelf mismatch n m 0 0.4691 
31-May-2018_13:52:05 Exp 7334 25 female R 3 1 5 moralOther moralOther match m m 1 0.5793 
31-May-2018_13:52:07 Exp 7334 25 female R 3 1 6 immoralOther moralOther mismatch n m 0 0.4475 
31-May-2018_13:52:09 Exp 7334 25 female R 3 1 7 immoralSelf moralSelf mismatch n m 0 0.6213 
31-May-2018_13:52:11 Exp 7334 25 female R 3 1 8 moralOther immoralSelf mismatch n n 1 0.6826 
31-May-2018_13:52:14 Exp 7334 25 female R 3 1 9 moralOther moralSelf mismatch n n 1 0.5010 
31-May-2018_13:52:16 Exp 7334 25 female R 3 1 10 immoralSelf moralOther mismatch n n 1 0.6997 
31-May-2018_13:52:18 Exp 7334 25 female R 3 1 11 moralSelf immoralOther mismatch n n 1 0.5223 
31-May-2018_13:52:20 Exp 7334 25 female R 3 1 12 immoralSelf immoralSelf match m n 0 0.6735 
31-May-2018_13:52:23 Exp 7334 25 female R 3 1 13 immoralOther moralOther mismatch n n 1 0.7197 
31-May-2018_13:52:25 Exp 7334 25 female R 3 1 14 moralSelf moralSelf match m m 1 0.6229 
31-May-2018_13:52:27 Exp 7334 25 female R 3 1 15 moralSelf moralSelf match m m 1 0.5241 
31-May-2018_13:52:29 Exp 7334 25 female R 3 1 16 moralOther moralOther match m m 1 0.5874 
31-May-2018_13:52:32 Exp 7334 25 female R 3 1 17 moralSelf immoralOther mismatch n n 1 0.8119 
31-May-2018_13:52:34 Exp 7334 25 female R 3 1 18 moralOther immoralSelf mismatch n n 1 0.6529 
31-May-2018_13:52:36 Exp 7334 25 female R 3 1 19 immoralSelf immoralSelf match m m 1 0.6666 
31-May-2018_13:52:38 Exp 7334 25 female R 3 1 20 moralSelf moralSelf match m m 1 0.4206 
31-May-2018_13:52:41 Exp 7334 25 female R 3 1 21 immoralSelf moralOther mismatch n n 1 0.6776 
31-May-2018_13:52:43 Exp 7334 25 female R 3 1 22 moralOther moralOther match m m 1 0.6678 
31-May-2018_13:52:45 Exp 7334 25 female R 3 1 23 immoralOther immoralOther match m n 0 0.7221 
31-May-2018_13:52:48 Exp 7334 25 female R 3 1 24 moralSelf moralOther mismatch n m 0 0.6092 
31-May-2018_13:52:50 Exp 7334 25 female R 3 2 1 immoralSelf immoralSelf match m m 1 0.6183 
31-May-2018_13:52:53 Exp 7334 25 female R 3 2 2 immoralOther immoralSelf mismatch n NA -1 1.0841 
31-May-2018_13:52:55 Exp 7334 25 female R 3 2 3 moralSelf moralSelf match m m 1 0.7338 
31-May-2018_13:52:57 Exp 7334 25 female R 3 2 4 immoralSelf immoralSelf match m m 1 0.4332 
31-May-2018_13:52:59 Exp 7334 25 female R 3 2 5 moralSelf moralSelf match m m 1 0.6826 
31-May-2018_13:53:01 Exp 7334 25 female R 3 2 6 immoralOther moralSelf mismatch n m 0 0.4451 
31-May-2018_13:53:04 Exp 7334 25 female R 3 2 7 immoralSelf immoralSelf match m m 1 0.5149 
31-May-2018_13:53:06 Exp 7334 25 female R 3 2 8 moralSelf immoralOther mismatch n n 1 0.7700 
31-May-2018_13:53:08 Exp 7334 25 female R 3 2 9 moralOther immoralOther mismatch n n 1 0.6420 
31-May-2018_13:53:11 Exp 7334 25 female R 3 2 10 immoralSelf moralOther mismatch n n 1 0.8036 
31-May-2018_13:53:13 Exp 7334 25 female R 3 2 11 moralOther moralOther match m m 1 0.7924 
31-May-2018_13:53:16 Exp 7334 25 female R 3 2 12 moralOther moralOther match m m 1 0.8250 
31-May-2018_13:53:18 Exp 7334 25 female R 3 2 13 moralOther immoralOther mismatch n n 1 0.6302 
31-May-2018_13:53:20 Exp 7334 25 female R 3 2 14 immoralSelf immoralOther mismatch n n 1 0.8115 
31-May-2018_13:53:23 Exp 7334 25 female R 3 2 15 moralSelf moralSelf match m m 1 0.7165 
31-May-2018_13:53:25 Exp 7334 25 female R 3 2 16 moralSelf immoralOther mismatch n n 1 0.8996 
31-May-2018_13:53:28 Exp 7334 25 female R 3 2 17 immoralOther immoralOther match m NA -1 1.0841 
31-May-2018_13:53:30 Exp 7334 25 female R 3 2 18 immoralSelf moralOther mismatch n n 1 0.7408 
31-May-2018_13:53:33 Exp 7334 25 female R 3 2 19 moralOther moralOther match m m 1 0.7004 
31-May-2018_13:53:35 Exp 7334 25 female R 3 2 20 moralOther immoralOther mismatch n n 1 0.7151 
31-May-2018_13:53:37 Exp 7334 25 female R 3 2 21 immoralOther moralOther mismatch n m 0 0.5623 
31-May-2018_13:53:39 Exp 7334 25 female R 3 2 22 immoralOther immoralOther match m m 1 0.6184 
31-May-2018_13:53:42 Exp 7334 25 female R 3 2 23 immoralOther immoralOther match m m 1 0.5794 
31-May-2018_13:53:44 Exp 7334 25 female R 3 2 24 moralSelf moralOther mismatch n n 1 0.7918 
31-May-2018_13:53:46 Exp 7334 25 female R 3 3 1 moralSelf moralSelf match m m 1 0.5043 
31-May-2018_13:53:48 Exp 7334 25 female R 3 3 2 immoralSelf immoralSelf match m m 1 0.4272 
31-May-2018_13:53:51 Exp 7334 25 female R 3 3 3 immoralOther immoralOther match m m 1 0.7765 
31-May-2018_13:53:53 Exp 7334 25 female R 3 3 4 immoralSelf moralSelf mismatch n n 1 0.6849 
31-May-2018_13:53:55 Exp 7334 25 female R 3 3 5 moralSelf moralSelf match m m 1 0.5833 
31-May-2018_13:53:57 Exp 7334 25 female R 3 3 6 moralOther immoralSelf mismatch n n 1 0.7396 
31-May-2018_13:54:00 Exp 7334 25 female R 3 3 7 moralOther immoralOther mismatch n n 1 0.9473 
31-May-2018_13:54:03 Exp 7334 25 female R 3 3 8 immoralOther moralOther mismatch n n 1 0.8189 
31-May-2018_13:54:05 Exp 7334 25 female R 3 3 9 moralOther moralOther match m m 1 0.9559 
31-May-2018_13:54:08 Exp 7334 25 female R 3 3 10 immoralSelf moralOther mismatch n n 1 0.7678 
31-May-2018_13:54:10 Exp 7334 25 female R 3 3 11 immoralOther immoralOther match m m 1 0.6879 
31-May-2018_13:54:12 Exp 7334 25 female R 3 3 12 moralSelf immoralOther mismatch n n 1 0.6823 
31-May-2018_13:54:15 Exp 7334 25 female R 3 3 13 immoralOther immoralOther match m m 1 0.9087 
31-May-2018_13:54:17 Exp 7334 25 female R 3 3 14 moralOther moralSelf mismatch n n 1 0.8637 
31-May-2018_13:54:20 Exp 7334 25 female R 3 3 15 immoralSelf immoralSelf match m n 0 0.8737 
31-May-2018_13:54:22 Exp 7334 25 female R 3 3 16 moralSelf moralOther mismatch n n 1 0.7039 
31-May-2018_13:54:25 Exp 7334 25 female R 3 3 17 immoralSelf immoralSelf match m m 1 1.0108 
31-May-2018_13:54:27 Exp 7334 25 female R 3 3 18 moralOther moralOther match m m 1 0.6679 
31-May-2018_13:54:30 Exp 7334 25 female R 3 3 19 immoralOther moralOther mismatch n n 1 0.9061 
31-May-2018_13:54:32 Exp 7334 25 female R 3 3 20 moralSelf moralSelf match m m 1 0.5570 
31-May-2018_13:54:34 Exp 7334 25 female R 3 3 21 immoralSelf moralOther mismatch n n 1 0.7449 
31-May-2018_13:54:36 Exp 7334 25 female R 3 3 22 moralOther moralOther match m m 1 0.5765 
31-May-2018_13:54:38 Exp 7334 25 female R 3 3 23 immoralOther moralOther mismatch n m 0 0.4928 
31-May-2018_13:54:41 Exp 7334 25 female R 3 3 24 moralSelf immoralOther mismatch n n 1 0.7955 
31-May-2018_13:54:51 Exp 7334 25 female R 3 4 1 moralSelf moralSelf match m m 1 0.5611 
31-May-2018_13:54:54 Exp 7334 25 female R 3 4 2 moralOther immoralSelf mismatch n n 1 0.6050 
31-May-2018_13:54:56 Exp 7334 25 female R 3 4 3 immoralOther moralSelf mismatch n m 0 0.5297 
31-May-2018_13:54:58 Exp 7334 25 female R 3 4 4 moralSelf moralSelf match m m 1 0.5092 
31-May-2018_13:55:00 Exp 7334 25 female R 3 4 5 moralOther moralSelf mismatch n n 1 0.8561 
31-May-2018_13:55:02 Exp 7334 25 female R 3 4 6 moralSelf moralSelf match m m 1 0.5061 
31-May-2018_13:55:05 Exp 7334 25 female R 3 4 7 moralOther immoralSelf mismatch n n 1 0.4849 
31-May-2018_13:55:07 Exp 7334 25 female R 3 4 8 moralOther moralOther match m m 1 0.5754 
31-May-2018_13:55:09 Exp 7334 25 female R 3 4 9 immoralSelf immoralSelf match m m 1 0.6757 
31-May-2018_13:55:11 Exp 7334 25 female R 3 4 10 immoralSelf moralOther mismatch n n 1 0.7460 
31-May-2018_13:55:14 Exp 7334 25 female R 3 4 11 immoralOther moralOther mismatch n n 1 0.7695 
31-May-2018_13:55:16 Exp 7334 25 female R 3 4 12 immoralSelf moralSelf mismatch n m 0 0.7136 
31-May-2018_13:55:19 Exp 7334 25 female R 3 4 13 moralSelf immoralSelf mismatch n n 1 0.7485 
31-May-2018_13:55:21 Exp 7334 25 female R 3 4 14 moralOther moralOther match m m 1 0.8282 
31-May-2018_13:55:23 Exp 7334 25 female R 3 4 15 immoralSelf immoralOther mismatch n n 1 0.6975 
31-May-2018_13:55:26 Exp 7334 25 female R 3 4 16 moralSelf immoralSelf mismatch n n 1 0.6962 
31-May-2018_13:55:28 Exp 7334 25 female R 3 4 17 immoralSelf immoralSelf match m m 1 0.9028 
31-May-2018_13:55:31 Exp 7334 25 female R 3 4 18 immoralOther immoralOther match m n 0 1.0135 
31-May-2018_13:55:33 Exp 7334 25 female R 3 4 19 moralSelf immoralSelf mismatch n m 0 0.8787 
31-May-2018_13:55:36 Exp 7334 25 female R 3 4 20 immoralOther immoralSelf mismatch n n 1 0.9007 
31-May-2018_13:55:38 Exp 7334 25 female R 3 4 21 immoralSelf immoralSelf match m m 1 0.8595 
31-May-2018_13:55:41 Exp 7334 25 female R 3 4 22 immoralOther immoralOther match m m 1 0.5975 
31-May-2018_13:55:43 Exp 7334 25 female R 3 4 23 moralOther moralOther match m m 1 0.7062 
31-May-2018_13:55:45 Exp 7334 25 female R 3 4 24 immoralOther immoralOther match m m 1 0.8691 
31-May-2018_13:55:48 Exp 7334 25 female R 3 5 1 immoralOther immoralOther match m m 1 0.5793 
31-May-2018_13:55:50 Exp 7334 25 female R 3 5 2 moralOther moralOther match m m 1 0.5597 
31-May-2018_13:55:52 Exp 7334 25 female R 3 5 3 moralOther moralSelf mismatch n m 0 0.7236 
31-May-2018_13:55:55 Exp 7334 25 female R 3 5 4 immoralOther moralOther mismatch n n 1 0.6428 
31-May-2018_13:55:57 Exp 7334 25 female R 3 5 5 immoralOther moralSelf mismatch n NA -1 1.0841 
31-May-2018_13:56:00 Exp 7334 25 female R 3 5 6 moralOther immoralSelf mismatch n NA -1 1.0841 
31-May-2018_13:56:02 Exp 7334 25 female R 3 5 7 moralOther moralSelf mismatch n n 1 0.6011 
31-May-2018_13:56:05 Exp 7334 25 female R 3 5 8 moralSelf immoralOther mismatch n n 1 0.8939 
31-May-2018_13:56:07 Exp 7334 25 female R 3 5 9 moralOther moralOther match m m 1 0.6286 
31-May-2018_13:56:09 Exp 7334 25 female R 3 5 10 immoralSelf immoralSelf match m m 1 0.8499 
31-May-2018_13:56:12 Exp 7334 25 female R 3 5 11 moralSelf immoralOther mismatch n n 1 0.8476 
31-May-2018_13:56:14 Exp 7334 25 female R 3 5 12 immoralOther immoralOther match m m 1 0.7974 
31-May-2018_13:56:17 Exp 7334 25 female R 3 5 13 immoralSelf moralSelf mismatch n n 1 0.8901 
31-May-2018_13:56:19 Exp 7334 25 female R 3 5 14 immoralOther moralSelf mismatch n n 1 0.8606 
31-May-2018_13:56:22 Exp 7334 25 female R 3 5 15 moralOther moralOther match m m 1 0.5907 
31-May-2018_13:56:24 Exp 7334 25 female R 3 5 16 moralSelf immoralOther mismatch n n 1 0.7992 
31-May-2018_13:56:26 Exp 7334 25 female R 3 5 17 moralSelf moralSelf match m m 1 0.6440 
31-May-2018_13:56:28 Exp 7334 25 female R 3 5 18 immoralOther immoralOther match m n 0 0.5495 
31-May-2018_13:56:31 Exp 7334 25 female R 3 5 19 immoralSelf moralOther mismatch n n 1 0.5651 
31-May-2018_13:56:33 Exp 7334 25 female R 3 5 20 immoralSelf immoralSelf match m NA -1 1.0841 
31-May-2018_13:56:36 Exp 7334 25 female R 3 5 21 immoralSelf immoralSelf match m m 1 0.5757 
31-May-2018_13:56:38 Exp 7334 25 female R 3 5 22 moralSelf moralSelf match m m 1 0.5560 
31-May-2018_13:56:40 Exp 7334 25 female R 3 5 23 immoralSelf moralOther mismatch n n 1 0.7278 
31-May-2018_13:56:42 Exp 7334 25 female R 3 5 24 moralSelf moralSelf match m m 1 0.6033 
Date Prac Sub Age Sex Hand Block Bin Trial Shape Label Match CorrResp Resp ACC RT
31-May-2018_14:01:55 Exp 7334 25 female R 1 1 1 immoralSelf immoralSelf match m NA -1 1.0841 
31-May-2018_14:01:57 Exp 7334 25 female R 1 1 2 moralSelf moralOther mismatch n m 0 0.7015 
31-May-2018_14:01:59 Exp 7334 25 female R 1 1 3 moralSelf moralSelf match m m 1 0.6763 
31-May-2018_14:02:02 Exp 7334 25 female R 1 1 4 immoralOther immoralSelf mismatch n n 1 0.8024 
31-May-2018_14:02:04 Exp 7334 25 female R 1 1 5 moralOther moralOther match m m 1 0.7193 
31-May-2018_14:02:07 Exp 7334 25 female R 1 1 6 immoralSelf moralOther mismatch n n 1 0.7505 
31-May-2018_14:02:09 Exp 7334 25 female R 1 1 7 immoralSelf moralOther mismatch n n 1 0.6103 
31-May-2018_14:02:11 Exp 7334 25 female R 1 1 8 moralSelf moralSelf match m m 1 0.6032 
31-May-2018_14:02:14 Exp 7334 25 female R 1 1 9 immoralOther immoralOther match m m 1 0.8321 
31-May-2018_14:02:16 Exp 7334 25 female R 1 1 10 moralOther moralSelf mismatch n m 0 0.6454 
31-May-2018_14:02:18 Exp 7334 25 female R 1 1 11 moralOther moralOther match m m 1 0.5711 
31-May-2018_14:02:20 Exp 7334 25 female R 1 1 12 moralSelf immoralSelf mismatch n n 1 0.7792 
31-May-2018_14:02:23 Exp 7334 25 female R 1 1 13 immoralSelf immoralOther mismatch n n 1 0.8156 
31-May-2018_14:02:25 Exp 7334 25 female R 1 1 14 immoralOther immoralOther match m m 1 0.6246 
31-May-2018_14:02:28 Exp 7334 25 female R 1 1 15 immoralSelf immoralSelf match m n 0 0.7258 
31-May-2018_14:02:30 Exp 7334 25 female R 1 1 16 moralSelf immoralSelf mismatch n n 1 0.7330 
31-May-2018_14:02:32 Exp 7334 25 female R 1 1 17 immoralSelf immoralSelf match m m 1 0.5604 
31-May-2018_14:02:34 Exp 7334 25 female R 1 1 18 moralOther moralOther match m m 1 0.4202 
31-May-2018_14:02:36 Exp 7334 25 female R 1 1 19 immoralOther immoralOther match m m 1 0.5732 
31-May-2018_14:02:39 Exp 7334 25 female R 1 1 20 moralSelf moralSelf match m m 1 0.8933 
31-May-2018_14:02:41 Exp 7334 25 female R 1 1 21 moralOther moralSelf mismatch n n 1 0.6601 
31-May-2018_14:02:44 Exp 7334 25 female R 1 1 22 immoralOther moralSelf mismatch n n 1 0.8300 
31-May-2018_14:02:46 Exp 7334 25 female R 1 1 23 moralOther immoralOther mismatch n n 1 0.7632 
31-May-2018_14:02:49 Exp 7334 25 female R 1 1 24 immoralOther immoralSelf mismatch n n 1 0.8674 
31-May-2018_14:02:51 Exp 7334 25 female R 1 2 1 immoralOther moralSelf mismatch n n 1 0.6054 
31-May-2018_14:02:53 Exp 7334 25 female R 1 2 2 moralOther moralOther match m m 1 0.7062 
31-May-2018_14:02:55 Exp 7334 25 female R 1 2 3 immoralOther immoralOther match m m 1 0.7651 
31-May-2018_14:02:58 Exp 7334 25 female R 1 2 4 moralSelf moralSelf match m m 1 0.5972 
31-May-2018_14:03:00 Exp 7334 25 female R 1 2 5 immoralSelf immoralSelf match m m 1 0.6339 
31-May-2018_14:03:02 Exp 7334 25 female R 1 2 6 moralOther moralOther match m m 1 0.4835 
31-May-2018_14:03:04 Exp 7334 25 female R 1 2 7 moralOther moralOther match m m 1 0.5179 
31-May-2018_14:03:06 Exp 7334 25 female R 1 2 8 moralSelf moralSelf match m m 1 0.5810 
31-May-2018_14:03:09 Exp 7334 25 female R 1 2 9 immoralSelf moralSelf mismatch n m 0 0.5454 
31-May-2018_14:03:11 Exp 7334 25 female R 1 2 10 moralSelf immoralSelf mismatch n n 1 0.6410 
31-May-2018_14:03:13 Exp 7334 25 female R 1 2 11 moralSelf immoralSelf mismatch n n 1 0.9065 
31-May-2018_14:03:16 Exp 7334 25 female R 1 2 12 immoralSelf moralSelf mismatch n m 0 0.5734 
31-May-2018_14:03:18 Exp 7334 25 female R 1 2 13 moralOther immoralOther mismatch n n 1 0.8215 
31-May-2018_14:03:20 Exp 7334 25 female R 1 2 14 moralSelf immoralSelf mismatch n n 1 0.6828 
31-May-2018_14:03:23 Exp 7334 25 female R 1 2 15 immoralOther immoralSelf mismatch n n 1 0.6292 
31-May-2018_14:03:25 Exp 7334 25 female R 1 2 16 moralOther moralSelf mismatch n n 1 0.7065 
31-May-2018_14:03:27 Exp 7334 25 female R 1 2 17 moralSelf moralSelf match m m 1 0.6614 
31-May-2018_14:03:29 Exp 7334 25 female R 1 2 18 immoralSelf immoralSelf match m m 1 0.5194 
31-May-2018_14:03:32 Exp 7334 25 female R 1 2 19 immoralOther immoralOther match m m 1 0.6945 
31-May-2018_14:03:34 Exp 7334 25 female R 1 2 20 moralOther immoralOther mismatch n n 1 0.5812 
31-May-2018_14:03:36 Exp 7334 25 female R 1 2 21 immoralOther moralOther mismatch n n 1 0.6495 
31-May-2018_14:03:39 Exp 7334 25 female R 1 2 22 immoralOther immoralOther match m m 1 0.7193 
31-May-2018_14:03:41 Exp 7334 25 female R 1 2 23 immoralSelf immoralSelf match m m 1 0.8225 
31-May-2018_14:03:44 Exp 7334 25 female R 1 2 24 immoralSelf moralOther mismatch n n 1 0.8917 
Date Prac Sub Age Sex Hand Block Bin Trial Shape Label Match CorrResp Resp ACC RT
31-May-2018_14:08:13 Exp 7334 25 female R 1 1 1 immoralSelf immoralSelf match m m 1 0.9682 
31-May-2018_14:08:16 Exp 7334 25 female R 1 1 2 moralOther immoralOther mismatch n n 1 0.8644 
31-May-2018_14:08:19 Exp 7334 25 female R 1 1 3 moralOther moralSelf mismatch n n 1 0.9944 
31-May-2018_14:08:21 Exp 7334 25 female R 1 1 4 immoralSelf immoralSelf match m m 1 0.6111 
31-May-2018_14:08:23 Exp 7334 25 female R 1 1 5 moralOther moralOther match m n 0 0.6681 
31-May-2018_14:08:26 Exp 7334 25 female R 1 1 6 moralSelf immoralSelf mismatch n n 1 0.9863 
31-May-2018_14:08:28 Exp 7334 25 female R 1 1 7 immoralSelf immoralSelf match m m 1 0.6588 
31-May-2018_14:08:30 Exp 7334 25 female R 1 1 8 moralSelf immoralOther mismatch n n 1 0.6128 
31-May-2018_14:08:32 Exp 7334 25 female R 1 1 9 moralSelf immoralSelf mismatch n n 1 0.4859 
31-May-2018_14:08:35 Exp 7334 25 female R 1 1 10 immoralOther immoralOther match m m 1 0.5283 
31-May-2018_14:08:37 Exp 7334 25 female R 1 1 11 immoralOther moralSelf mismatch n n 1 0.6677 
31-May-2018_14:08:39 Exp 7334 25 female R 1 1 12 immoralOther moralSelf mismatch n n 1 0.8579 
31-May-2018_14:08:41 Exp 7334 25 female R 1 1 13 moralSelf moralSelf match m m 1 0.5478 
31-May-2018_14:08:44 Exp 7334 25 female R 1 1 14 immoralSelf moralSelf mismatch n n 1 0.5555 
31-May-2018_14:08:46 Exp 7334 25 female R 1 1 15 moralSelf moralSelf match m m 1 0.5354 
31-May-2018_14:08:48 Exp 7334 25 female R 1 1 16 immoralOther immoralOther match m m 1 0.7947 
31-May-2018_14:08:51 Exp 7334 25 female R 1 1 17 moralOther moralOther match m m 1 0.6833 
31-May-2018_14:08:53 Exp 7334 25 female R 1 1 18 moralSelf moralSelf match m m 1 0.6217 
31-May-2018_14:08:55 Exp 7334 25 female R 1 1 19 moralOther moralOther match m m 1 0.4511 
31-May-2018_14:08:57 Exp 7334 25 female R 1 1 20 immoralOther immoralSelf mismatch n n 1 0.5527 
31-May-2018_14:08:59 Exp 7334 25 female R 1 1 21 immoralOther immoralOther match m m 1 0.5245 
31-May-2018_14:09:02 Exp 7334 25 female R 1 1 22 moralOther immoralSelf mismatch n n 1 0.6997 
31-May-2018_14:09:04 Exp 7334 25 female R 1 1 23 immoralSelf moralOther mismatch n n 1 0.7704 
31-May-2018_14:09:06 Exp 7334 25 female R 1 1 24 immoralSelf immoralOther mismatch n n 1 0.5384 
31-May-2018_14:09:09 Exp 7334 25 female R 1 2 1 immoralSelf immoralSelf match m m 1 0.8340 
31-May-2018_14:09:11 Exp 7334 25 female R 1 2 2 immoralOther moralOther mismatch n n 1 0.8196 
31-May-2018_14:09:13 Exp 7334 25 female R 1 2 3 immoralOther moralOther mismatch n n 1 0.7007 
31-May-2018_14:09:16 Exp 7334 25 female R 1 2 4 moralOther moralOther match m m 1 0.6353 
31-May-2018_14:09:18 Exp 7334 25 female R 1 2 5 immoralSelf moralSelf mismatch n n 1 1.0049 
31-May-2018_14:09:21 Exp 7334 25 female R 1 2 6 immoralSelf moralOther mismatch n n 1 0.6337 
31-May-2018_14:09:23 Exp 7334 25 female R 1 2 7 immoralOther immoralOther match m m 1 0.6512 
31-May-2018_14:09:25 Exp 7334 25 female R 1 2 8 moralSelf moralSelf match m m 1 0.6568 
31-May-2018_14:09:28 Exp 7334 25 female R 1 2 9 immoralSelf immoralSelf match m m 1 0.9309 
31-May-2018_14:09:30 Exp 7334 25 female R 1 2 10 immoralSelf immoralSelf match m m 1 0.8382 
31-May-2018_14:09:32 Exp 7334 25 female R 1 2 11 moralSelf immoralSelf mismatch n m 0 0.4877 
31-May-2018_14:09:35 Exp 7334 25 female R 1 2 12 moralSelf moralSelf match m m 1 0.5862 
31-May-2018_14:09:37 Exp 7334 25 female R 1 2 13 moralSelf moralOther mismatch n m 0 0.5227 
31-May-2018_14:09:39 Exp 7334 25 female R 1 2 14 moralSelf immoralSelf mismatch n n 1 1.0259 
31-May-2018_14:09:42 Exp 7334 25 female R 1 2 15 immoralSelf moralSelf mismatch n n 1 0.8391 
31-May-2018_14:09:44 Exp 7334 25 female R 1 2 16 moralOther immoralSelf mismatch n n 1 0.6488 
31-May-2018_14:09:46 Exp 7334 25 female R 1 2 17 moralOther immoralOther mismatch n n 1 0.5824 
31-May-2018_14:09:49 Exp 7334 25 female R 1 2 18 immoralOther moralSelf mismatch n n 1 0.7707 
31-May-2018_14:09:51 Exp 7334 25 female R 1 2 19 moralOther moralSelf mismatch n n 1 0.7548 
31-May-2018_14:09:54 Exp 7334 25 female R 1 2 20 immoralOther immoralOther match m m 1 1.0227 
31-May-2018_14:09:56 Exp 7334 25 female R 1 2 21 moralOther moralOther match m m 1 0.6200 
31-May-2018_14:09:59 Exp 7334 25 female R 1 2 22 immoralOther immoralOther match m m 1 0.8610 
31-May-2018_14:10:01 Exp 7334 25 female R 1 2 23 moralSelf moralSelf match m m 1 0.6391 
31-May-2018_14:10:03 Exp 7334 25 female R 1 2 24 moralOther moralOther match m m 1 0.4805 
Date Prac Sub Age Sex Hand Block Bin Trial Shape Label Match CorrResp Resp ACC RT
31-May-2018_14:14:48 Exp 7334 25 female R 1 1 1 moralOther moralOther match m j 2 0.9096 
31-May-2018_14:14:49 Exp 7334 25 female R 1 1 2 moralSelf immoralOther mismatch n m 0 0.1061 
31-May-2018_14:14:52 Exp 7334 25 female R 1 1 3 moralOther moralSelf mismatch n n 1 0.6195 
31-May-2018_14:14:54 Exp 7334 25 female R 1 1 4 moralOther immoralSelf mismatch n n 1 0.8845 
31-May-2018_14:14:56 Exp 7334 25 female R 1 1 5 immoralOther moralSelf mismatch n n 1 0.5510 
31-May-2018_14:14:59 Exp 7334 25 female R 1 1 6 moralOther immoralSelf mismatch n n 1 0.5788 
31-May-2018_14:15:01 Exp 7334 25 female R 1 1 7 immoralOther immoralOther match m m 1 1.0312 
31-May-2018_14:15:04 Exp 7334 25 female R 1 1 8 immoralOther moralSelf mismatch n n 1 0.7564 
31-May-2018_14:15:06 Exp 7334 25 female R 1 1 9 immoralSelf moralSelf mismatch n m 0 0.6003 
31-May-2018_14:15:08 Exp 7334 25 female R 1 1 10 immoralOther immoralOther match m m 1 0.7011 
31-May-2018_14:15:10 Exp 7334 25 female R 1 1 11 immoralSelf immoralSelf match m m 1 0.7398 
31-May-2018_14:15:13 Exp 7334 25 female R 1 1 12 moralSelf moralOther mismatch n m 0 0.4915 
31-May-2018_14:15:15 Exp 7334 25 female R 1 1 13 immoralOther immoralOther match m m 1 0.9621 
31-May-2018_14:15:18 Exp 7334 25 female R 1 1 14 moralSelf immoralOther mismatch n n 1 0.8262 
31-May-2018_14:15:20 Exp 7334 25 female R 1 1 15 immoralSelf immoralSelf match m m 1 0.6714 
31-May-2018_14:15:22 Exp 7334 25 female R 1 1 16 immoralOther moralSelf mismatch n n 1 0.5417 
31-May-2018_14:15:24 Exp 7334 25 female R 1 1 17 immoralSelf immoralSelf match m m 1 0.6053 
31-May-2018_14:15:27 Exp 7334 25 female R 1 1 18 immoralSelf moralSelf mismatch n n 1 0.6820 
31-May-2018_14:15:29 Exp 7334 25 female R 1 1 19 immoralSelf moralSelf mismatch n n 1 0.5645 
31-May-2018_14:15:31 Exp 7334 25 female R 1 1 20 moralOther moralOther match m m 1 0.7806 
31-May-2018_14:15:34 Exp 7334 25 female R 1 1 21 moralSelf moralSelf match m m 1 0.6889 
31-May-2018_14:15:36 Exp 7334 25 female R 1 1 22 moralSelf moralSelf match m n 0 0.5875 
31-May-2018_14:15:38 Exp 7334 25 female R 1 1 23 moralSelf moralSelf match m m 1 0.7319 
31-May-2018_14:15:40 Exp 7334 25 female R 1 1 24 moralOther moralOther match m m 1 0.5753 
31-May-2018_14:15:43 Exp 7334 25 female R 1 2 1 immoralSelf moralOther mismatch n n 1 0.7157 
31-May-2018_14:15:45 Exp 7334 25 female R 1 2 2 immoralSelf immoralSelf match m m 1 0.6428 
31-May-2018_14:15:48 Exp 7334 25 female R 1 2 3 moralOther immoralOther mismatch n n 1 0.9963 
31-May-2018_14:15:50 Exp 7334 25 female R 1 2 4 immoralOther immoralOther match m m 1 0.4289 
31-May-2018_14:15:52 Exp 7334 25 female R 1 2 5 immoralOther moralSelf mismatch n n 1 0.7461 
31-May-2018_14:15:54 Exp 7334 25 female R 1 2 6 immoralOther immoralOther match m m 1 0.6337 
31-May-2018_14:15:57 Exp 7334 25 female R 1 2 7 moralOther moralOther match m m 1 0.8353 
31-May-2018_14:15:59 Exp 7334 25 female R 1 2 8 immoralOther immoralSelf mismatch n n 1 0.5808 
31-May-2018_14:16:01 Exp 7334 25 female R 1 2 9 moralOther moralOther match m m 1 0.7772 
31-May-2018_14:16:04 Exp 7334 25 female R 1 2 10 immoralSelf immoralSelf match m m 1 0.5814 
31-May-2018_14:16:06 Exp 7334 25 female R 1 2 11 moralSelf immoralOther mismatch n n 1 0.5535 
31-May-2018_14:16:08 Exp 7334 25 female R 1 2 12 immoralSelf moralSelf mismatch n n 1 0.7656 
31-May-2018_14:16:11 Exp 7334 25 female R 1 2 13 immoralSelf immoralSelf match m m 1 0.7097 
31-May-2018_14:16:13 Exp 7334 25 female R 1 2 14 moralSelf immoralOther mismatch n n 1 0.7286 
31-May-2018_14:16:15 Exp 7334 25 female R 1 2 15 moralOther moralOther match m m 1 0.5239 
31-May-2018_14:16:17 Exp 7334 25 female R 1 2 16 moralSelf moralSelf match m m 1 0.6991 
31-May-2018_14:16:20 Exp 7334 25 female R 1 2 17 moralOther moralSelf mismatch n NA -1 1.0841 
31-May-2018_14:16:22 Exp 7334 25 female R 1 2 18 moralSelf moralSelf match m m 1 0.5563 
31-May-2018_14:16:25 Exp 7334 25 female R 1 2 19 moralSelf immoralSelf mismatch n n 1 0.9121 
31-May-2018_14:16:27 Exp 7334 25 female R 1 2 20 moralOther immoralSelf mismatch n n 1 0.6190 
31-May-2018_14:16:30 Exp 7334 25 female R 1 2 21 immoralSelf moralSelf mismatch n n 1 0.8921 
31-May-2018_14:16:32 Exp 7334 25 female R 1 2 22 immoralOther immoralSelf mismatch n n 1 0.7068 
31-May-2018_14:16:35 Exp 7334 25 female R 1 2 23 moralSelf moralSelf match m n 0 0.8296 
31-May-2018_14:16:37 Exp 7334 25 female R 1 2 24 immoralOther immoralOther match m m 1 0.6830 
Date Prac Sub Age Sex Hand Block Bin Trial Shape Label Match CorrResp Resp ACC RT
31-May-2018_14:20:49 Exp 7334 25 female R 1 1 1 immoralOther moralOther mismatch n m 0 0.6716 
31-May-2018_14:20:51 Exp 7334 25 female R 1 1 2 immoralOther immoralOther match m m 1 0.6939 
31-May-2018_14:20:54 Exp 7334 25 female R 1 1 3 moralOther moralOther match m m 1 0.6526 
31-May-2018_14:20:56 Exp 7334 25 female R 1 1 4 moralOther moralOther match m m 1 0.7543 
31-May-2018_14:20:58 Exp 7334 25 female R 1 1 5 moralOther moralOther match m m 1 0.5983 
31-May-2018_14:21:01 Exp 7334 25 female R 1 1 6 immoralSelf moralSelf mismatch n n 1 0.8910 
31-May-2018_14:21:03 Exp 7334 25 female R 1 1 7 moralSelf moralSelf match m m 1 0.4455 
31-May-2018_14:21:05 Exp 7334 25 female R 1 1 8 immoralOther immoralOther match m m 1 0.7552 
31-May-2018_14:21:08 Exp 7334 25 female R 1 1 9 moralOther immoralOther mismatch n NA -1 1.0841 
31-May-2018_14:21:10 Exp 7334 25 female R 1 1 10 moralOther moralSelf mismatch n m 0 0.7775 
31-May-2018_14:21:13 Exp 7334 25 female R 1 1 11 immoralOther immoralSelf mismatch n n 1 0.6779 
31-May-2018_14:21:15 Exp 7334 25 female R 1 1 12 immoralSelf moralSelf mismatch n n 1 0.8760 
31-May-2018_14:21:17 Exp 7334 25 female R 1 1 13 moralSelf immoralSelf mismatch n n 1 0.6103 
31-May-2018_14:21:20 Exp 7334 25 female R 1 1 14 moralSelf moralSelf match m m 1 0.7473 
31-May-2018_14:21:22 Exp 7334 25 female R 1 1 15 moralSelf moralOther mismatch n m 0 0.5949 
31-May-2018_14:21:24 Exp 7334 25 female R 1 1 16 immoralOther immoralOther match m m 1 0.7075 
31-May-2018_14:21:27 Exp 7334 25 female R 1 1 17 immoralSelf immoralSelf match m n 0 0.7024 
31-May-2018_14:21:29 Exp 7334 25 female R 1 1 18 immoralSelf immoralSelf match m m 1 0.8132 
31-May-2018_14:21:31 Exp 7334 25 female R 1 1 19 moralOther immoralOther mismatch n n 1 0.8061 
31-May-2018_14:21:34 Exp 7334 25 female R 1 1 20 immoralSelf moralOther mismatch n n 1 0.7149 
31-May-2018_14:21:36 Exp 7334 25 female R 1 1 21 immoralSelf immoralSelf match m m 1 0.7301 
31-May-2018_14:21:38 Exp 7334 25 female R 1 1 22 moralSelf moralOther mismatch n n 1 0.5734 
31-May-2018_14:21:41 Exp 7334 25 female R 1 1 23 moralSelf moralSelf match m m 1 0.6056 
31-May-2018_14:21:43 Exp 7334 25 female R 1 1 24 immoralOther moralOther mismatch n n 1 1.0184 
31-May-2018_14:21:46 Exp 7334 25 female R 1 2 1 immoralOther immoralSelf mismatch n m 0 0.8593 
31-May-2018_14:21:48 Exp 7334 25 female R 1 2 2 moralSelf immoralSelf mismatch n n 1 0.8133 
31-May-2018_14:21:51 Exp 7334 25 female R 1 2 3 immoralSelf moralSelf mismatch n n 1 0.6624 
31-May-2018_14:21:53 Exp 7334 25 female R 1 2 4 moralOther moralOther match m m 1 0.6963 
31-May-2018_14:21:55 Exp 7334 25 female R 1 2 5 immoralSelf immoralSelf match m n 0 0.6471 
31-May-2018_14:21:57 Exp 7334 25 female R 1 2 6 moralSelf moralSelf match m m 1 0.4288 
31-May-2018_14:21:59 Exp 7334 25 female R 1 2 7 moralSelf immoralOther mismatch n n 1 0.5141 
31-May-2018_14:22:02 Exp 7334 25 female R 1 2 8 immoralOther moralSelf mismatch n n 1 0.5650 
31-May-2018_14:22:04 Exp 7334 25 female R 1 2 9 immoralSelf immoralSelf match m m 1 0.6610 
31-May-2018_14:22:06 Exp 7334 25 female R 1 2 10 moralSelf immoralSelf mismatch n n 1 0.6712 
31-May-2018_14:22:08 Exp 7334 25 female R 1 2 11 immoralOther moralOther mismatch n m 0 0.6692 
31-May-2018_14:22:11 Exp 7334 25 female R 1 2 12 moralSelf moralSelf match m m 1 0.6035 
31-May-2018_14:22:13 Exp 7334 25 female R 1 2 13 moralOther immoralSelf mismatch n n 1 0.7762 
31-May-2018_14:22:16 Exp 7334 25 female R 1 2 14 immoralOther immoralOther match m m 1 0.8686 
31-May-2018_14:22:18 Exp 7334 25 female R 1 2 15 moralOther immoralOther mismatch n n 1 0.6188 
31-May-2018_14:22:20 Exp 7334 25 female R 1 2 16 immoralOther immoralOther match m n 0 0.4678 
31-May-2018_14:22:22 Exp 7334 25 female R 1 2 17 moralOther moralOther match m m 1 0.6500 
31-May-2018_14:22:25 Exp 7334 25 female R 1 2 18 immoralSelf immoralOther mismatch n n 1 0.7518 
31-May-2018_14:22:27 Exp 7334 25 female R 1 2 19 immoralSelf immoralSelf match m n 0 0.5476 
31-May-2018_14:22:29 Exp 7334 25 female R 1 2 20 moralOther immoralSelf mismatch n n 1 0.6352 
31-May-2018_14:22:31 Exp 7334 25 female R 1 2 21 immoralSelf moralSelf mismatch n n 1 0.7167 
31-May-2018_14:22:34 Exp 7334 25 female R 1 2 22 immoralOther immoralOther match m m 1 0.6759 
31-May-2018_14:22:36 Exp 7334 25 female R 1 2 23 moralOther moralOther match m m 1 0.7701 
31-May-2018_14:22:38 Exp 7334 25 female R 1 2 24 moralSelf moralSelf match m m 1 0.4342 
Date Prac Sub Age Sex Hand Block Bin Trial Shape Label Match CorrResp Resp ACC RT
31-May-2018_14:26:54 Exp 7334 25 female R 1 1 1 immoralOther moralOther mismatch n m 0 0.5820 
31-May-2018_14:26:56 Exp 7334 25 female R 1 1 2 immoralOther immoralSelf mismatch n n 1 0.7144 
31-May-2018_14:26:59 Exp 7334 25 female R 1 1 3 immoralSelf immoralSelf match m m 1 0.7093 
31-May-2018_14:27:01 Exp 7334 25 female R 1 1 4 immoralOther immoralOther match m m 1 0.7602 
31-May-2018_14:27:03 Exp 7334 25 female R 1 1 5 moralOther immoralSelf mismatch n n 1 0.6201 
31-May-2018_14:27:05 Exp 7334 25 female R 1 1 6 immoralSelf immoralSelf match m m 1 0.6451 
31-May-2018_14:27:08 Exp 7334 25 female R 1 1 7 moralSelf moralSelf match m m 1 0.5308 
31-May-2018_14:27:10 Exp 7334 25 female R 1 1 8 moralOther moralOther match m m 1 0.5022 
31-May-2018_14:27:12 Exp 7334 25 female R 1 1 9 immoralSelf immoralOther mismatch n n 1 0.9728 
31-May-2018_14:27:15 Exp 7334 25 female R 1 1 10 moralOther moralOther match m m 1 0.5889 
31-May-2018_14:27:17 Exp 7334 25 female R 1 1 11 immoralSelf immoralOther mismatch n n 1 0.8136 
31-May-2018_14:27:19 Exp 7334 25 female R 1 1 12 moralOther immoralOther mismatch n n 1 0.5587 
31-May-2018_14:27:21 Exp 7334 25 female R 1 1 13 moralSelf immoralSelf mismatch n m 0 0.6265 
31-May-2018_14:27:24 Exp 7334 25 female R 1 1 14 moralOther immoralOther mismatch n n 1 0.6797 
31-May-2018_14:27:26 Exp 7334 25 female R 1 1 15 moralSelf moralSelf match m m 1 0.5462 
31-May-2018_14:27:28 Exp 7334 25 female R 1 1 16 immoralSelf immoralOther mismatch n n 1 0.5777 
31-May-2018_14:27:31 Exp 7334 25 female R 1 1 17 immoralSelf immoralSelf match m m 1 0.7341 
31-May-2018_14:27:33 Exp 7334 25 female R 1 1 18 moralSelf moralOther mismatch n m 0 0.7056 
31-May-2018_14:27:35 Exp 7334 25 female R 1 1 19 immoralOther moralOther mismatch n n 1 0.8284 
31-May-2018_14:27:38 Exp 7334 25 female R 1 1 20 moralSelf moralSelf match m m 1 0.7376 
31-May-2018_14:27:40 Exp 7334 25 female R 1 1 21 immoralOther immoralOther match m n 0 0.7090 
31-May-2018_14:27:42 Exp 7334 25 female R 1 1 22 immoralOther immoralOther match m m 1 0.4880 
31-May-2018_14:27:44 Exp 7334 25 female R 1 1 23 moralSelf immoralOther mismatch n n 1 0.6185 
31-May-2018_14:27:47 Exp 7334 25 female R 1 1 24 moralOther moralOther match m m 1 0.6514 
31-May-2018_14:27:49 Exp 7334 25 female R 1 2 1 immoralOther immoralOther match m m 1 0.8491 
31-May-2018_14:27:51 Exp 7334 25 female R 1 2 2 moralOther moralOther match m m 1 0.6069 
31-May-2018_14:27:54 Exp 7334 25 female R 1 2 3 immoralOther immoralOther match m NA -1 1.0841 
31-May-2018_14:27:56 Exp 7334 25 female R 1 2 4 moralSelf moralSelf match m m 1 0.5822 
31-May-2018_14:27:59 Exp 7334 25 female R 1 2 5 moralSelf moralSelf match m n 0 0.6345 
31-May-2018_14:28:01 Exp 7334 25 female R 1 2 6 immoralSelf moralSelf mismatch n n 1 0.8040 
31-May-2018_14:28:04 Exp 7334 25 female R 1 2 7 immoralSelf immoralOther mismatch n n 1 0.9368 
31-May-2018_14:28:06 Exp 7334 25 female R 1 2 8 immoralOther moralOther mismatch n n 1 0.6362 
31-May-2018_14:28:08 Exp 7334 25 female R 1 2 9 moralSelf immoralSelf mismatch n m 0 0.5737 
31-May-2018_14:28:11 Exp 7334 25 female R 1 2 10 immoralOther immoralOther match m m 1 0.8261 
31-May-2018_14:28:13 Exp 7334 25 female R 1 2 11 moralOther moralOther match m m 1 0.4233 
31-May-2018_14:28:15 Exp 7334 25 female R 1 2 12 moralOther immoralOther mismatch n n 1 0.6526 
31-May-2018_14:28:17 Exp 7334 25 female R 1 2 13 moralSelf moralOther mismatch n n 1 0.8023 
31-May-2018_14:28:20 Exp 7334 25 female R 1 2 14 immoralSelf immoralOther mismatch n n 1 0.6711 
31-May-2018_14:28:22 Exp 7334 25 female R 1 2 15 moralOther immoralSelf mismatch n n 1 0.6935 
31-May-2018_14:28:24 Exp 7334 25 female R 1 2 16 moralOther moralSelf mismatch n n 1 0.9000 
31-May-2018_14:28:27 Exp 7334 25 female R 1 2 17 immoralOther moralSelf mismatch n n 1 0.6107 
31-May-2018_14:28:29 Exp 7334 25 female R 1 2 18 immoralSelf immoralSelf match m m 1 0.7237 
31-May-2018_14:28:31 Exp 7334 25 female R 1 2 19 moralSelf moralOther mismatch n n 1 0.6188 
31-May-2018_14:28:34 Exp 7334 25 female R 1 2 20 immoralSelf immoralSelf match m m 1 0.7639 
31-May-2018_14:28:36 Exp 7334 25 female R 1 2 21 moralOther moralOther match m m 1 0.6440 
31-May-2018_14:28:38 Exp 7334 25 female R 1 2 22 immoralSelf immoralSelf match m m 1 0.6294 
31-May-2018_14:28:41 Exp 7334 25 female R 1 2 23 moralSelf moralSelf match m m 1 0.6748 
31-May-2018_14:28:43 Exp 7334 25 female R 1 2 24 immoralOther moralSelf mismatch n n 1 0.8649 
