Date Prac Sub Age Sex Hand Block Bin Trial Shape Label Match CorrResp Resp ACC RT
06-Jun-2018_15:40:34 Exp 7341 24 male R 1 1 1 moralOther moralOther match m m 1 0.4893 
06-Jun-2018_15:40:37 Exp 7341 24 male R 1 1 2 moralOther immoralSelf mismatch n n 1 0.5159 
06-Jun-2018_15:40:39 Exp 7341 24 male R 1 1 3 moralSelf moralSelf match m m 1 0.5070 
06-Jun-2018_15:40:41 Exp 7341 24 male R 1 1 4 immoralSelf immoralSelf match m n 0 0.7739 
06-Jun-2018_15:40:43 Exp 7341 24 male R 1 1 5 immoralSelf immoralSelf match m m 1 0.6183 
06-Jun-2018_15:40:46 Exp 7341 24 male R 1 1 6 immoralOther immoralSelf mismatch n n 1 0.6113 
06-Jun-2018_15:40:48 Exp 7341 24 male R 1 1 7 moralOther immoralSelf mismatch n n 1 0.7884 
06-Jun-2018_15:40:50 Exp 7341 24 male R 1 1 8 moralSelf immoralSelf mismatch n n 1 0.6209 
06-Jun-2018_15:40:53 Exp 7341 24 male R 1 1 9 immoralOther moralSelf mismatch n m 0 0.8181 
06-Jun-2018_15:40:55 Exp 7341 24 male R 1 1 10 moralOther moralOther match m m 1 0.5791 
06-Jun-2018_15:40:57 Exp 7341 24 male R 1 1 11 immoralSelf moralSelf mismatch n n 1 0.5755 
06-Jun-2018_15:40:59 Exp 7341 24 male R 1 1 12 moralSelf immoralSelf mismatch n n 1 0.6199 
06-Jun-2018_15:41:02 Exp 7341 24 male R 1 1 13 immoralOther immoralSelf mismatch n n 1 0.5969 
06-Jun-2018_15:41:04 Exp 7341 24 male R 1 1 14 moralSelf moralSelf match m m 1 0.6214 
06-Jun-2018_15:41:06 Exp 7341 24 male R 1 1 15 moralOther moralSelf mismatch n m 0 0.6907 
06-Jun-2018_15:41:08 Exp 7341 24 male R 1 1 16 moralSelf moralSelf match m m 1 0.4852 
06-Jun-2018_15:41:10 Exp 7341 24 male R 1 1 17 immoralOther immoralOther match m m 1 0.5356 
06-Jun-2018_15:41:13 Exp 7341 24 male R 1 1 18 moralSelf immoralOther mismatch n n 1 0.5550 
06-Jun-2018_15:41:15 Exp 7341 24 male R 1 1 19 immoralSelf immoralSelf match m m 1 0.7428 
06-Jun-2018_15:41:17 Exp 7341 24 male R 1 1 20 moralOther moralOther match m m 1 0.5985 
06-Jun-2018_15:41:19 Exp 7341 24 male R 1 1 21 immoralOther immoralOther match m m 1 0.5792 
06-Jun-2018_15:41:22 Exp 7341 24 male R 1 1 22 immoralSelf moralSelf mismatch n n 1 0.4716 
06-Jun-2018_15:41:24 Exp 7341 24 male R 1 1 23 immoralOther immoralOther match m m 1 0.5018 
06-Jun-2018_15:41:26 Exp 7341 24 male R 1 1 24 immoralSelf immoralOther mismatch n n 1 0.7005 
06-Jun-2018_15:41:28 Exp 7341 24 male R 1 2 1 immoralOther immoralOther match m m 1 0.5231 
06-Jun-2018_15:41:30 Exp 7341 24 male R 1 2 2 moralOther immoralSelf mismatch n n 1 0.5383 
06-Jun-2018_15:41:33 Exp 7341 24 male R 1 2 3 immoralSelf immoralSelf match m m 1 0.8899 
06-Jun-2018_15:41:35 Exp 7341 24 male R 1 2 4 immoralOther immoralSelf mismatch n n 1 0.5644 
06-Jun-2018_15:41:37 Exp 7341 24 male R 1 2 5 moralOther immoralOther mismatch n m 0 0.4685 
06-Jun-2018_15:41:39 Exp 7341 24 male R 1 2 6 moralOther moralOther match m m 1 0.4426 
06-Jun-2018_15:41:42 Exp 7341 24 male R 1 2 7 immoralOther immoralOther match m m 1 0.6282 
06-Jun-2018_15:41:44 Exp 7341 24 male R 1 2 8 moralSelf moralOther mismatch n n 1 0.5454 
06-Jun-2018_15:41:46 Exp 7341 24 male R 1 2 9 immoralSelf immoralOther mismatch n n 1 0.6330 
06-Jun-2018_15:41:48 Exp 7341 24 male R 1 2 10 immoralSelf moralSelf mismatch n n 1 0.7625 
06-Jun-2018_15:41:51 Exp 7341 24 male R 1 2 11 moralSelf moralOther mismatch n m 0 0.5787 
06-Jun-2018_15:41:53 Exp 7341 24 male R 1 2 12 moralSelf moralSelf match m m 1 0.5430 
06-Jun-2018_15:41:55 Exp 7341 24 male R 1 2 13 moralSelf immoralSelf mismatch n n 1 0.5346 
06-Jun-2018_15:41:57 Exp 7341 24 male R 1 2 14 immoralOther moralSelf mismatch n n 1 0.7060 
06-Jun-2018_15:42:00 Exp 7341 24 male R 1 2 15 moralSelf moralSelf match m n 0 0.6128 
06-Jun-2018_15:42:02 Exp 7341 24 male R 1 2 16 immoralSelf immoralSelf match m m 1 0.5979 
06-Jun-2018_15:42:04 Exp 7341 24 male R 1 2 17 immoralOther immoralOther match m n 0 0.6348 
06-Jun-2018_15:42:06 Exp 7341 24 male R 1 2 18 immoralSelf immoralOther mismatch n n 1 0.6843 
06-Jun-2018_15:42:09 Exp 7341 24 male R 1 2 19 immoralOther moralOther mismatch n n 1 0.7106 
06-Jun-2018_15:42:11 Exp 7341 24 male R 1 2 20 moralOther moralOther match m m 1 0.5296 
06-Jun-2018_15:42:13 Exp 7341 24 male R 1 2 21 immoralSelf immoralSelf match m n 0 0.7729 
06-Jun-2018_15:42:15 Exp 7341 24 male R 1 2 22 moralOther moralOther match m m 1 0.4931 
06-Jun-2018_15:42:18 Exp 7341 24 male R 1 2 23 moralOther immoralOther mismatch n n 1 0.5238 
06-Jun-2018_15:42:20 Exp 7341 24 male R 1 2 24 moralSelf moralSelf match m m 1 0.4909 
06-Jun-2018_15:42:22 Exp 7341 24 male R 1 3 1 moralSelf moralSelf match m m 1 0.6453 
06-Jun-2018_15:42:24 Exp 7341 24 male R 1 3 2 moralOther immoralSelf mismatch n n 1 0.8590 
06-Jun-2018_15:42:27 Exp 7341 24 male R 1 3 3 immoralSelf immoralSelf match m m 1 0.5171 
06-Jun-2018_15:42:29 Exp 7341 24 male R 1 3 4 moralOther immoralOther mismatch n n 1 0.6282 
06-Jun-2018_15:42:31 Exp 7341 24 male R 1 3 5 immoralOther immoralSelf mismatch n n 1 0.7855 
06-Jun-2018_15:42:34 Exp 7341 24 male R 1 3 6 moralSelf immoralOther mismatch n n 1 0.7940 
06-Jun-2018_15:42:36 Exp 7341 24 male R 1 3 7 immoralOther immoralOther match m m 1 0.4906 
06-Jun-2018_15:42:38 Exp 7341 24 male R 1 3 8 moralOther moralOther match m m 1 0.8690 
06-Jun-2018_15:42:41 Exp 7341 24 male R 1 3 9 immoralOther moralSelf mismatch n n 1 0.6113 
06-Jun-2018_15:42:43 Exp 7341 24 male R 1 3 10 moralOther immoralSelf mismatch n n 1 0.6203 
06-Jun-2018_15:42:45 Exp 7341 24 male R 1 3 11 moralSelf moralSelf match m m 1 0.5093 
06-Jun-2018_15:42:47 Exp 7341 24 male R 1 3 12 immoralOther immoralOther match m m 1 0.6082 
06-Jun-2018_15:42:49 Exp 7341 24 male R 1 3 13 immoralSelf moralOther mismatch n m 0 0.5970 
06-Jun-2018_15:42:52 Exp 7341 24 male R 1 3 14 immoralSelf immoralSelf match m n 0 0.6099 
06-Jun-2018_15:42:54 Exp 7341 24 male R 1 3 15 moralSelf immoralSelf mismatch n n 1 0.6028 
06-Jun-2018_15:42:56 Exp 7341 24 male R 1 3 16 moralOther moralOther match m m 1 0.6236 
06-Jun-2018_15:42:58 Exp 7341 24 male R 1 3 17 moralOther moralOther match m m 1 0.5330 
06-Jun-2018_15:43:01 Exp 7341 24 male R 1 3 18 immoralSelf immoralSelf match m m 1 0.6003 
06-Jun-2018_15:43:03 Exp 7341 24 male R 1 3 19 immoralSelf moralOther mismatch n n 1 0.5570 
06-Jun-2018_15:43:05 Exp 7341 24 male R 1 3 20 moralSelf moralSelf match m m 1 0.5690 
06-Jun-2018_15:43:07 Exp 7341 24 male R 1 3 21 immoralSelf immoralOther mismatch n n 1 0.8890 
06-Jun-2018_15:43:10 Exp 7341 24 male R 1 3 22 immoralOther moralOther mismatch n n 1 0.6275 
06-Jun-2018_15:43:12 Exp 7341 24 male R 1 3 23 immoralOther immoralOther match m m 1 0.8168 
06-Jun-2018_15:43:14 Exp 7341 24 male R 1 3 24 moralSelf immoralSelf mismatch n n 1 0.5538 
06-Jun-2018_15:43:42 Exp 7341 24 male R 1 4 1 moralSelf moralOther mismatch n m 0 0.6835 
06-Jun-2018_15:43:44 Exp 7341 24 male R 1 4 2 moralOther moralOther match m m 1 0.5978 
06-Jun-2018_15:43:46 Exp 7341 24 male R 1 4 3 immoralOther immoralOther match m n 0 0.4266 
06-Jun-2018_15:43:48 Exp 7341 24 male R 1 4 4 moralOther immoralOther mismatch n n 1 0.5999 
06-Jun-2018_15:43:51 Exp 7341 24 male R 1 4 5 moralOther moralOther match m m 1 0.6126 
06-Jun-2018_15:43:53 Exp 7341 24 male R 1 4 6 immoralSelf immoralSelf match m m 1 0.5577 
06-Jun-2018_15:43:55 Exp 7341 24 male R 1 4 7 moralOther moralSelf mismatch n n 1 0.6415 
06-Jun-2018_15:43:58 Exp 7341 24 male R 1 4 8 immoralSelf immoralOther mismatch n n 1 0.8990 
06-Jun-2018_15:44:00 Exp 7341 24 male R 1 4 9 immoralSelf immoralSelf match m m 1 0.8097 
06-Jun-2018_15:44:02 Exp 7341 24 male R 1 4 10 moralSelf moralSelf match m m 1 0.7068 
06-Jun-2018_15:44:05 Exp 7341 24 male R 1 4 11 immoralSelf immoralSelf match m m 1 0.9257 
06-Jun-2018_15:44:07 Exp 7341 24 male R 1 4 12 moralOther moralOther match m m 1 0.6128 
06-Jun-2018_15:44:10 Exp 7341 24 male R 1 4 13 moralSelf moralOther mismatch n n 1 0.6539 
06-Jun-2018_15:44:12 Exp 7341 24 male R 1 4 14 immoralOther moralSelf mismatch n n 1 0.6837 
06-Jun-2018_15:44:14 Exp 7341 24 male R 1 4 15 immoralOther moralSelf mismatch n n 1 0.8221 
06-Jun-2018_15:44:17 Exp 7341 24 male R 1 4 16 immoralOther moralOther mismatch n n 1 0.5713 
06-Jun-2018_15:44:19 Exp 7341 24 male R 1 4 17 moralSelf moralSelf match m m 1 0.5954 
06-Jun-2018_15:44:21 Exp 7341 24 male R 1 4 18 moralSelf moralOther mismatch n n 1 0.5320 
06-Jun-2018_15:44:23 Exp 7341 24 male R 1 4 19 immoralSelf moralSelf mismatch n m 0 0.5673 
06-Jun-2018_15:44:25 Exp 7341 24 male R 1 4 20 immoralSelf moralSelf mismatch n n 1 0.5914 
06-Jun-2018_15:44:28 Exp 7341 24 male R 1 4 21 moralSelf moralSelf match m m 1 0.6880 
06-Jun-2018_15:44:30 Exp 7341 24 male R 1 4 22 moralOther immoralOther mismatch n n 1 0.4744 
06-Jun-2018_15:44:32 Exp 7341 24 male R 1 4 23 immoralOther immoralOther match m m 1 0.4807 
06-Jun-2018_15:44:34 Exp 7341 24 male R 1 4 24 immoralOther immoralOther match m n 0 0.5551 
06-Jun-2018_15:44:36 Exp 7341 24 male R 1 5 1 immoralSelf immoralSelf match m m 1 0.6469 
06-Jun-2018_15:44:38 Exp 7341 24 male R 1 5 2 immoralOther immoralOther match m n 0 0.5327 
06-Jun-2018_15:44:41 Exp 7341 24 male R 1 5 3 immoralOther immoralOther match m m 1 0.5281 
06-Jun-2018_15:44:43 Exp 7341 24 male R 1 5 4 immoralOther immoralSelf mismatch n n 1 0.4674 
06-Jun-2018_15:44:45 Exp 7341 24 male R 1 5 5 moralOther moralOther match m m 1 0.4934 
06-Jun-2018_15:44:47 Exp 7341 24 male R 1 5 6 immoralOther moralOther mismatch n n 1 0.5161 
06-Jun-2018_15:44:49 Exp 7341 24 male R 1 5 7 immoralSelf moralSelf mismatch n m 0 0.5713 
06-Jun-2018_15:44:51 Exp 7341 24 male R 1 5 8 moralOther immoralSelf mismatch n n 1 0.6194 
06-Jun-2018_15:44:54 Exp 7341 24 male R 1 5 9 moralOther moralSelf mismatch n m 0 0.5643 
06-Jun-2018_15:44:56 Exp 7341 24 male R 1 5 10 immoralSelf moralOther mismatch n n 1 0.5644 
06-Jun-2018_15:44:58 Exp 7341 24 male R 1 5 11 moralSelf immoralOther mismatch n n 1 0.5726 
06-Jun-2018_15:45:00 Exp 7341 24 male R 1 5 12 immoralSelf immoralSelf match m m 1 0.5486 
06-Jun-2018_15:45:03 Exp 7341 24 male R 1 5 13 immoralOther moralOther mismatch n n 1 0.6842 
06-Jun-2018_15:45:05 Exp 7341 24 male R 1 5 14 moralSelf moralSelf match m m 1 0.5586 
06-Jun-2018_15:45:07 Exp 7341 24 male R 1 5 15 moralSelf moralSelf match m m 1 0.6666 
06-Jun-2018_15:45:09 Exp 7341 24 male R 1 5 16 moralOther moralOther match m n 0 0.4445 
06-Jun-2018_15:45:11 Exp 7341 24 male R 1 5 17 moralSelf immoralOther mismatch n n 1 0.4742 
06-Jun-2018_15:45:14 Exp 7341 24 male R 1 5 18 moralOther immoralSelf mismatch n n 1 0.6805 
06-Jun-2018_15:45:16 Exp 7341 24 male R 1 5 19 immoralSelf immoralSelf match m m 1 0.4349 
06-Jun-2018_15:45:18 Exp 7341 24 male R 1 5 20 moralSelf moralSelf match m m 1 0.6764 
06-Jun-2018_15:45:20 Exp 7341 24 male R 1 5 21 immoralSelf moralOther mismatch n n 1 0.5466 
06-Jun-2018_15:45:22 Exp 7341 24 male R 1 5 22 moralOther moralOther match m m 1 0.5783 
06-Jun-2018_15:45:24 Exp 7341 24 male R 1 5 23 immoralOther immoralOther match m n 0 0.5025 
06-Jun-2018_15:45:27 Exp 7341 24 male R 1 5 24 moralSelf moralOther mismatch n m 0 0.4932 
06-Jun-2018_15:45:32 Exp 7341 24 male R 2 1 1 immoralSelf immoralSelf match m NA -1 1.0841 
06-Jun-2018_15:45:35 Exp 7341 24 male R 2 1 2 immoralOther immoralSelf mismatch n n 1 0.7350 
06-Jun-2018_15:45:37 Exp 7341 24 male R 2 1 3 moralSelf moralSelf match m m 1 0.5703 
06-Jun-2018_15:45:39 Exp 7341 24 male R 2 1 4 immoralSelf immoralSelf match m n 0 0.5224 
06-Jun-2018_15:45:41 Exp 7341 24 male R 2 1 5 moralSelf moralSelf match m m 1 0.7056 
06-Jun-2018_15:45:44 Exp 7341 24 male R 2 1 6 immoralOther moralSelf mismatch n n 1 0.5486 
06-Jun-2018_15:45:46 Exp 7341 24 male R 2 1 7 immoralSelf immoralSelf match m m 1 0.7081 
06-Jun-2018_15:45:48 Exp 7341 24 male R 2 1 8 moralSelf immoralOther mismatch n n 1 0.5430 
06-Jun-2018_15:45:50 Exp 7341 24 male R 2 1 9 moralOther immoralOther mismatch n n 1 0.7027 
06-Jun-2018_15:45:53 Exp 7341 24 male R 2 1 10 immoralSelf moralOther mismatch n n 1 0.5696 
06-Jun-2018_15:45:55 Exp 7341 24 male R 2 1 11 moralOther moralOther match m m 1 0.4577 
06-Jun-2018_15:45:57 Exp 7341 24 male R 2 1 12 moralOther moralOther match m m 1 0.5636 
06-Jun-2018_15:45:59 Exp 7341 24 male R 2 1 13 moralOther immoralOther mismatch n m 0 0.3638 
06-Jun-2018_15:46:01 Exp 7341 24 male R 2 1 14 immoralSelf immoralOther mismatch n n 1 0.6438 
06-Jun-2018_15:46:03 Exp 7341 24 male R 2 1 15 moralSelf moralSelf match m m 1 0.4133 
06-Jun-2018_15:46:05 Exp 7341 24 male R 2 1 16 moralSelf immoralOther mismatch n n 1 0.4383 
06-Jun-2018_15:46:08 Exp 7341 24 male R 2 1 17 immoralOther immoralOther match m m 1 0.6718 
06-Jun-2018_15:46:10 Exp 7341 24 male R 2 1 18 immoralSelf moralOther mismatch n n 1 0.5661 
06-Jun-2018_15:46:12 Exp 7341 24 male R 2 1 19 moralOther moralOther match m m 1 0.6461 
06-Jun-2018_15:46:14 Exp 7341 24 male R 2 1 20 moralOther immoralOther mismatch n n 1 0.4919 
06-Jun-2018_15:46:17 Exp 7341 24 male R 2 1 21 immoralOther moralOther mismatch n n 1 0.6586 
06-Jun-2018_15:46:19 Exp 7341 24 male R 2 1 22 immoralOther immoralOther match m m 1 0.5805 
06-Jun-2018_15:46:21 Exp 7341 24 male R 2 1 23 immoralOther immoralOther match m m 1 0.4008 
06-Jun-2018_15:46:23 Exp 7341 24 male R 2 1 24 moralSelf moralOther mismatch n n 1 0.4456 
06-Jun-2018_15:46:25 Exp 7341 24 male R 2 2 1 moralSelf moralSelf match m m 1 0.5393 
06-Jun-2018_15:46:27 Exp 7341 24 male R 2 2 2 immoralSelf immoralSelf match m n 0 0.3790 
06-Jun-2018_15:46:29 Exp 7341 24 male R 2 2 3 immoralOther immoralOther match m m 1 0.4713 
06-Jun-2018_15:46:31 Exp 7341 24 male R 2 2 4 immoralSelf moralSelf mismatch n m 0 0.6215 
06-Jun-2018_15:46:34 Exp 7341 24 male R 2 2 5 moralSelf moralSelf match m m 1 0.4827 
06-Jun-2018_15:46:36 Exp 7341 24 male R 2 2 6 moralOther immoralSelf mismatch n n 1 0.5571 
06-Jun-2018_15:46:38 Exp 7341 24 male R 2 2 7 moralOther immoralOther mismatch n n 1 0.5210 
06-Jun-2018_15:46:40 Exp 7341 24 male R 2 2 8 immoralOther moralOther mismatch n n 1 0.6402 
06-Jun-2018_15:46:42 Exp 7341 24 male R 2 2 9 moralOther moralOther match m m 1 0.5937 
06-Jun-2018_15:46:45 Exp 7341 24 male R 2 2 10 immoralSelf moralOther mismatch n n 1 0.5782 
06-Jun-2018_15:46:47 Exp 7341 24 male R 2 2 11 immoralOther immoralOther match m m 1 0.5506 
06-Jun-2018_15:46:49 Exp 7341 24 male R 2 2 12 moralSelf immoralOther mismatch n n 1 0.6024 
06-Jun-2018_15:46:51 Exp 7341 24 male R 2 2 13 immoralOther immoralOther match m m 1 0.6552 
06-Jun-2018_15:46:54 Exp 7341 24 male R 2 2 14 moralOther moralSelf mismatch n m 0 0.6370 
06-Jun-2018_15:46:56 Exp 7341 24 male R 2 2 15 immoralSelf immoralSelf match m m 1 0.7904 
06-Jun-2018_15:46:58 Exp 7341 24 male R 2 2 16 moralSelf moralOther mismatch n n 1 0.6950 
06-Jun-2018_15:47:01 Exp 7341 24 male R 2 2 17 immoralSelf immoralSelf match m m 1 0.5897 
06-Jun-2018_15:47:03 Exp 7341 24 male R 2 2 18 moralOther moralOther match m m 1 0.6623 
06-Jun-2018_15:47:05 Exp 7341 24 male R 2 2 19 immoralOther moralOther mismatch n n 1 0.5122 
06-Jun-2018_15:47:07 Exp 7341 24 male R 2 2 20 moralSelf moralSelf match m m 1 0.6351 
06-Jun-2018_15:47:10 Exp 7341 24 male R 2 2 21 immoralSelf moralOther mismatch n n 1 0.7007 
06-Jun-2018_15:47:12 Exp 7341 24 male R 2 2 22 moralOther moralOther match m m 1 0.4993 
06-Jun-2018_15:47:14 Exp 7341 24 male R 2 2 23 immoralOther moralOther mismatch n n 1 0.5700 
06-Jun-2018_15:47:16 Exp 7341 24 male R 2 2 24 moralSelf immoralOther mismatch n n 1 0.5781 
06-Jun-2018_15:47:18 Exp 7341 24 male R 2 3 1 moralSelf moralSelf match m m 1 0.5504 
06-Jun-2018_15:47:21 Exp 7341 24 male R 2 3 2 moralOther immoralSelf mismatch n n 1 0.6102 
06-Jun-2018_15:47:23 Exp 7341 24 male R 2 3 3 immoralOther moralSelf mismatch n n 1 0.7073 
06-Jun-2018_15:47:25 Exp 7341 24 male R 2 3 4 moralSelf moralSelf match m m 1 0.5262 
06-Jun-2018_15:47:27 Exp 7341 24 male R 2 3 5 moralOther moralSelf mismatch n n 1 0.3894 
06-Jun-2018_15:47:29 Exp 7341 24 male R 2 3 6 moralSelf moralSelf match m m 1 0.7339 
06-Jun-2018_15:47:31 Exp 7341 24 male R 2 3 7 moralOther immoralSelf mismatch n n 1 0.3933 
06-Jun-2018_15:47:34 Exp 7341 24 male R 2 3 8 moralOther moralOther match m n 0 0.7219 
06-Jun-2018_15:47:36 Exp 7341 24 male R 2 3 9 immoralSelf immoralSelf match m n 0 0.6891 
06-Jun-2018_15:47:38 Exp 7341 24 male R 2 3 10 immoralSelf moralOther mismatch n n 1 0.6434 
06-Jun-2018_15:47:41 Exp 7341 24 male R 2 3 11 immoralOther moralOther mismatch n n 1 0.6050 
06-Jun-2018_15:47:43 Exp 7341 24 male R 2 3 12 immoralSelf moralSelf mismatch n n 1 0.8258 
06-Jun-2018_15:47:45 Exp 7341 24 male R 2 3 13 moralSelf immoralSelf mismatch n n 1 0.5750 
06-Jun-2018_15:47:47 Exp 7341 24 male R 2 3 14 moralOther moralOther match m m 1 0.5714 
06-Jun-2018_15:47:50 Exp 7341 24 male R 2 3 15 immoralSelf immoralOther mismatch n n 1 0.5394 
06-Jun-2018_15:47:52 Exp 7341 24 male R 2 3 16 moralSelf immoralSelf mismatch n n 1 0.6510 
06-Jun-2018_15:47:54 Exp 7341 24 male R 2 3 17 immoralSelf immoralSelf match m m 1 0.4968 
06-Jun-2018_15:47:56 Exp 7341 24 male R 2 3 18 immoralOther immoralOther match m n 0 0.5035 
06-Jun-2018_15:47:58 Exp 7341 24 male R 2 3 19 moralSelf immoralSelf mismatch n n 1 0.6183 
06-Jun-2018_15:48:01 Exp 7341 24 male R 2 3 20 immoralOther immoralSelf mismatch n n 1 0.6434 
06-Jun-2018_15:48:03 Exp 7341 24 male R 2 3 21 immoralSelf immoralSelf match m m 1 0.6290 
06-Jun-2018_15:48:05 Exp 7341 24 male R 2 3 22 immoralOther immoralOther match m m 1 0.6182 
06-Jun-2018_15:48:07 Exp 7341 24 male R 2 3 23 moralOther moralOther match m m 1 0.6113 
06-Jun-2018_15:48:10 Exp 7341 24 male R 2 3 24 immoralOther immoralOther match m m 1 0.7483 
06-Jun-2018_15:48:26 Exp 7341 24 male R 2 4 1 immoralOther immoralOther match m m 1 0.5460 
06-Jun-2018_15:48:28 Exp 7341 24 male R 2 4 2 moralOther moralOther match m m 1 0.5058 
06-Jun-2018_15:48:30 Exp 7341 24 male R 2 4 3 moralOther moralSelf mismatch n space 2 0.5406 
06-Jun-2018_15:48:33 Exp 7341 24 male R 2 4 4 immoralOther moralOther mismatch n n 1 1.0202 
06-Jun-2018_15:48:35 Exp 7341 24 male R 2 4 5 immoralOther moralSelf mismatch n n 1 0.8772 
06-Jun-2018_15:48:38 Exp 7341 24 male R 2 4 6 moralOther immoralSelf mismatch n n 1 0.7954 
06-Jun-2018_15:48:40 Exp 7341 24 male R 2 4 7 moralOther moralSelf mismatch n n 1 0.7640 
06-Jun-2018_15:48:43 Exp 7341 24 male R 2 4 8 moralSelf immoralOther mismatch n n 1 0.7801 
06-Jun-2018_15:48:45 Exp 7341 24 male R 2 4 9 moralOther moralOther match m m 1 0.6085 
06-Jun-2018_15:48:47 Exp 7341 24 male R 2 4 10 immoralSelf immoralSelf match m m 1 0.7012 
06-Jun-2018_15:48:49 Exp 7341 24 male R 2 4 11 moralSelf immoralOther mismatch n n 1 0.5240 
06-Jun-2018_15:48:52 Exp 7341 24 male R 2 4 12 immoralOther immoralOther match m n 0 0.6991 
06-Jun-2018_15:48:54 Exp 7341 24 male R 2 4 13 immoralSelf moralSelf mismatch n n 1 0.7137 
06-Jun-2018_15:48:56 Exp 7341 24 male R 2 4 14 immoralOther moralSelf mismatch n n 1 0.7007 
06-Jun-2018_15:48:58 Exp 7341 24 male R 2 4 15 moralOther moralOther match m m 1 0.5314 
06-Jun-2018_15:49:01 Exp 7341 24 male R 2 4 16 moralSelf immoralOther mismatch n n 1 0.5427 
06-Jun-2018_15:49:03 Exp 7341 24 male R 2 4 17 moralSelf moralSelf match m m 1 0.6305 
06-Jun-2018_15:49:05 Exp 7341 24 male R 2 4 18 immoralOther immoralOther match m m 1 0.5077 
06-Jun-2018_15:49:07 Exp 7341 24 male R 2 4 19 immoralSelf moralOther mismatch n n 1 0.5506 
06-Jun-2018_15:49:10 Exp 7341 24 male R 2 4 20 immoralSelf immoralSelf match m n 0 0.6344 
06-Jun-2018_15:49:12 Exp 7341 24 male R 2 4 21 immoralSelf immoralSelf match m n 0 0.6759 
06-Jun-2018_15:49:14 Exp 7341 24 male R 2 4 22 moralSelf moralSelf match m m 1 0.6901 
06-Jun-2018_15:49:16 Exp 7341 24 male R 2 4 23 immoralSelf moralOther mismatch n n 1 0.6126 
06-Jun-2018_15:49:19 Exp 7341 24 male R 2 4 24 moralSelf moralSelf match m m 1 0.5176 
06-Jun-2018_15:49:21 Exp 7341 24 male R 2 5 1 immoralSelf immoralSelf match m m 1 0.7328 
06-Jun-2018_15:49:23 Exp 7341 24 male R 2 5 2 moralOther moralSelf mismatch n m 0 0.5121 
06-Jun-2018_15:49:25 Exp 7341 24 male R 2 5 3 immoralSelf moralSelf mismatch n n 1 0.6190 
06-Jun-2018_15:49:28 Exp 7341 24 male R 2 5 4 moralSelf moralOther mismatch n n 1 0.6601 
06-Jun-2018_15:49:30 Exp 7341 24 male R 2 5 5 moralOther immoralOther mismatch n n 1 0.6220 
06-Jun-2018_15:49:32 Exp 7341 24 male R 2 5 6 immoralOther immoralOther match m m 1 0.4754 
06-Jun-2018_15:49:34 Exp 7341 24 male R 2 5 7 moralSelf immoralOther mismatch n n 1 0.5136 
06-Jun-2018_15:49:36 Exp 7341 24 male R 2 5 8 moralOther immoralSelf mismatch n n 1 0.7325 
06-Jun-2018_15:49:39 Exp 7341 24 male R 2 5 9 moralSelf moralSelf match m m 1 0.5758 
06-Jun-2018_15:49:41 Exp 7341 24 male R 2 5 10 immoralOther immoralSelf mismatch n n 1 0.7001 
06-Jun-2018_15:49:43 Exp 7341 24 male R 2 5 11 immoralSelf moralOther mismatch n n 1 0.6108 
06-Jun-2018_15:49:45 Exp 7341 24 male R 2 5 12 moralOther moralOther match m m 1 0.5078 
06-Jun-2018_15:49:48 Exp 7341 24 male R 2 5 13 immoralOther moralSelf mismatch n n 1 0.4948 
06-Jun-2018_15:49:50 Exp 7341 24 male R 2 5 14 moralSelf moralSelf match m m 1 0.8055 
06-Jun-2018_15:49:52 Exp 7341 24 male R 2 5 15 immoralOther immoralOther match m m 1 0.7943 
06-Jun-2018_15:49:55 Exp 7341 24 male R 2 5 16 moralOther moralOther match m m 1 0.7388 
06-Jun-2018_15:49:57 Exp 7341 24 male R 2 5 17 moralOther moralOther match m m 1 0.4825 
06-Jun-2018_15:49:59 Exp 7341 24 male R 2 5 18 immoralOther immoralSelf mismatch n n 1 0.7248 
06-Jun-2018_15:50:01 Exp 7341 24 male R 2 5 19 immoralSelf immoralSelf match m m 1 0.4601 
06-Jun-2018_15:50:04 Exp 7341 24 male R 2 5 20 immoralOther immoralOther match m m 1 0.6460 
06-Jun-2018_15:50:06 Exp 7341 24 male R 2 5 21 moralSelf moralOther mismatch n n 1 0.7157 
06-Jun-2018_15:50:08 Exp 7341 24 male R 2 5 22 immoralSelf moralSelf mismatch n n 1 0.7709 
06-Jun-2018_15:50:11 Exp 7341 24 male R 2 5 23 immoralSelf immoralSelf match m m 1 0.6590 
06-Jun-2018_15:50:13 Exp 7341 24 male R 2 5 24 moralSelf moralSelf match m n 0 0.6530 
06-Jun-2018_15:50:19 Exp 7341 24 male R 3 1 1 immoralSelf immoralSelf match m NA -1 1.0841 
06-Jun-2018_15:50:21 Exp 7341 24 male R 3 1 2 moralOther immoralOther mismatch n n 1 0.7657 
06-Jun-2018_15:50:23 Exp 7341 24 male R 3 1 3 immoralOther moralSelf mismatch n n 1 0.7019 
06-Jun-2018_15:50:26 Exp 7341 24 male R 3 1 4 moralOther moralOther match m m 1 0.7165 
06-Jun-2018_15:50:28 Exp 7341 24 male R 3 1 5 immoralOther moralSelf mismatch n n 1 0.6757 
06-Jun-2018_15:50:30 Exp 7341 24 male R 3 1 6 immoralOther immoralOther match m m 1 0.7298 
06-Jun-2018_15:50:33 Exp 7341 24 male R 3 1 7 immoralSelf immoralOther mismatch n n 1 0.5173 
06-Jun-2018_15:50:35 Exp 7341 24 male R 3 1 8 moralSelf moralSelf match m m 1 0.8524 
06-Jun-2018_15:50:37 Exp 7341 24 male R 3 1 9 moralSelf immoralSelf mismatch n n 1 0.5782 
06-Jun-2018_15:50:39 Exp 7341 24 male R 3 1 10 moralSelf moralSelf match m m 1 0.5585 
06-Jun-2018_15:50:42 Exp 7341 24 male R 3 1 11 moralOther moralOther match m m 1 0.6024 
06-Jun-2018_15:50:44 Exp 7341 24 male R 3 1 12 immoralOther moralOther mismatch n n 1 0.4711 
06-Jun-2018_15:50:46 Exp 7341 24 male R 3 1 13 immoralSelf immoralSelf match m m 1 0.5253 
06-Jun-2018_15:50:48 Exp 7341 24 male R 3 1 14 moralSelf moralSelf match m m 1 0.6125 
06-Jun-2018_15:50:50 Exp 7341 24 male R 3 1 15 moralOther immoralOther mismatch n n 1 0.4376 
06-Jun-2018_15:50:53 Exp 7341 24 male R 3 1 16 immoralSelf moralSelf mismatch n n 1 0.6790 
06-Jun-2018_15:50:55 Exp 7341 24 male R 3 1 17 moralOther moralOther match m n 0 0.7253 
06-Jun-2018_15:50:57 Exp 7341 24 male R 3 1 18 immoralSelf immoralSelf match m m 1 0.6844 
06-Jun-2018_15:50:59 Exp 7341 24 male R 3 1 19 immoralOther immoralOther match m m 1 0.5908 
06-Jun-2018_15:51:02 Exp 7341 24 male R 3 1 20 moralOther immoralSelf mismatch n n 1 0.5914 
06-Jun-2018_15:51:04 Exp 7341 24 male R 3 1 21 moralSelf moralOther mismatch n n 1 0.7679 
06-Jun-2018_15:51:06 Exp 7341 24 male R 3 1 22 moralSelf immoralOther mismatch n n 1 0.5761 
06-Jun-2018_15:51:09 Exp 7341 24 male R 3 1 23 immoralSelf moralSelf mismatch n n 1 0.7404 
06-Jun-2018_15:51:11 Exp 7341 24 male R 3 1 24 immoralOther immoralOther match m m 1 0.4920 
06-Jun-2018_15:51:13 Exp 7341 24 male R 3 2 1 moralSelf moralSelf match m n 0 0.5706 
06-Jun-2018_15:51:15 Exp 7341 24 male R 3 2 2 immoralOther moralOther mismatch n n 1 0.6348 
06-Jun-2018_15:51:18 Exp 7341 24 male R 3 2 3 immoralSelf moralSelf mismatch n n 1 0.6923 
06-Jun-2018_15:51:20 Exp 7341 24 male R 3 2 4 moralOther moralOther match m m 1 0.6429 
06-Jun-2018_15:51:22 Exp 7341 24 male R 3 2 5 moralSelf moralSelf match m m 1 0.5725 
06-Jun-2018_15:51:24 Exp 7341 24 male R 3 2 6 immoralSelf immoralSelf match m m 1 0.7165 
06-Jun-2018_15:51:27 Exp 7341 24 male R 3 2 7 moralSelf moralOther mismatch n n 1 0.6358 
06-Jun-2018_15:51:29 Exp 7341 24 male R 3 2 8 immoralSelf moralSelf mismatch n n 1 0.6611 
06-Jun-2018_15:51:31 Exp 7341 24 male R 3 2 9 immoralOther moralOther mismatch n n 1 0.6872 
06-Jun-2018_15:51:33 Exp 7341 24 male R 3 2 10 immoralOther immoralOther match m m 1 0.5216 
06-Jun-2018_15:51:36 Exp 7341 24 male R 3 2 11 immoralSelf immoralSelf match m n 0 0.5048 
06-Jun-2018_15:51:38 Exp 7341 24 male R 3 2 12 immoralOther immoralOther match m m 1 0.7957 
06-Jun-2018_15:51:40 Exp 7341 24 male R 3 2 13 immoralOther immoralOther match m m 1 0.6762 
06-Jun-2018_15:51:42 Exp 7341 24 male R 3 2 14 moralOther moralOther match m n 0 0.4824 
06-Jun-2018_15:51:45 Exp 7341 24 male R 3 2 15 moralOther immoralSelf mismatch n n 1 0.5408 
06-Jun-2018_15:51:47 Exp 7341 24 male R 3 2 16 moralSelf moralSelf match m m 1 0.5725 
06-Jun-2018_15:51:49 Exp 7341 24 male R 3 2 17 moralOther immoralOther mismatch n n 1 0.7246 
06-Jun-2018_15:51:51 Exp 7341 24 male R 3 2 18 moralOther moralOther match m m 1 0.6117 
06-Jun-2018_15:51:54 Exp 7341 24 male R 3 2 19 immoralSelf immoralSelf match m m 1 0.8207 
06-Jun-2018_15:51:56 Exp 7341 24 male R 3 2 20 moralOther immoralSelf mismatch n n 1 0.5941 
06-Jun-2018_15:51:58 Exp 7341 24 male R 3 2 21 moralSelf immoralOther mismatch n n 1 0.6186 
06-Jun-2018_15:52:01 Exp 7341 24 male R 3 2 22 immoralOther immoralSelf mismatch n n 1 0.7397 
06-Jun-2018_15:52:03 Exp 7341 24 male R 3 2 23 immoralSelf moralOther mismatch n n 1 0.7072 
06-Jun-2018_15:52:05 Exp 7341 24 male R 3 2 24 moralSelf immoralOther mismatch n n 1 0.6702 
06-Jun-2018_15:52:07 Exp 7341 24 male R 3 3 1 moralOther moralSelf mismatch n m 0 0.4684 
06-Jun-2018_15:52:10 Exp 7341 24 male R 3 3 2 immoralSelf moralSelf mismatch n n 1 0.7386 
06-Jun-2018_15:52:12 Exp 7341 24 male R 3 3 3 immoralSelf immoralSelf match m m 1 0.7062 
06-Jun-2018_15:52:14 Exp 7341 24 male R 3 3 4 moralOther immoralOther mismatch n m 0 0.5091 
06-Jun-2018_15:52:17 Exp 7341 24 male R 3 3 5 moralOther moralOther match m m 1 0.5200 
06-Jun-2018_15:52:19 Exp 7341 24 male R 3 3 6 moralOther moralOther match m m 1 0.5272 
06-Jun-2018_15:52:21 Exp 7341 24 male R 3 3 7 immoralOther immoralOther match m n 0 0.4426 
06-Jun-2018_15:52:23 Exp 7341 24 male R 3 3 8 immoralOther moralSelf mismatch n n 1 0.5481 
06-Jun-2018_15:52:25 Exp 7341 24 male R 3 3 9 moralSelf immoralOther mismatch n n 1 0.6116 
06-Jun-2018_15:52:28 Exp 7341 24 male R 3 3 10 immoralSelf immoralOther mismatch n n 1 0.8526 
06-Jun-2018_15:52:30 Exp 7341 24 male R 3 3 11 moralOther moralOther match m m 1 0.5384 
06-Jun-2018_15:52:32 Exp 7341 24 male R 3 3 12 moralSelf moralSelf match m m 1 0.6741 
06-Jun-2018_15:52:34 Exp 7341 24 male R 3 3 13 immoralSelf moralSelf mismatch n n 1 0.7362 
06-Jun-2018_15:52:37 Exp 7341 24 male R 3 3 14 moralSelf moralOther mismatch n m 0 0.6997 
06-Jun-2018_15:52:39 Exp 7341 24 male R 3 3 15 immoralOther immoralOther match m m 1 0.5703 
06-Jun-2018_15:52:41 Exp 7341 24 male R 3 3 16 moralSelf immoralSelf mismatch n n 1 0.5544 
06-Jun-2018_15:52:43 Exp 7341 24 male R 3 3 17 immoralSelf immoralSelf match m m 1 0.5822 
06-Jun-2018_15:52:46 Exp 7341 24 male R 3 3 18 immoralSelf immoralSelf match m m 1 0.6186 
06-Jun-2018_15:52:48 Exp 7341 24 male R 3 3 19 moralOther immoralOther mismatch n n 1 0.4437 
06-Jun-2018_15:52:50 Exp 7341 24 male R 3 3 20 immoralOther immoralOther match m m 1 0.5090 
06-Jun-2018_15:52:52 Exp 7341 24 male R 3 3 21 moralSelf moralSelf match m m 1 0.7920 
06-Jun-2018_15:52:54 Exp 7341 24 male R 3 3 22 immoralOther moralOther mismatch n n 1 0.5526 
06-Jun-2018_15:52:57 Exp 7341 24 male R 3 3 23 moralSelf moralSelf match m m 1 0.6285 
06-Jun-2018_15:52:59 Exp 7341 24 male R 3 3 24 immoralOther moralSelf mismatch n m 0 0.5297 
06-Jun-2018_15:53:28 Exp 7341 24 male R 3 4 1 immoralSelf immoralSelf match m m 1 0.9930 
06-Jun-2018_15:53:30 Exp 7341 24 male R 3 4 2 moralSelf moralOther mismatch n n 1 0.6335 
06-Jun-2018_15:53:33 Exp 7341 24 male R 3 4 3 moralSelf moralSelf match m m 1 0.5391 
06-Jun-2018_15:53:35 Exp 7341 24 male R 3 4 4 immoralOther immoralSelf mismatch n n 1 0.8907 
06-Jun-2018_15:53:37 Exp 7341 24 male R 3 4 5 moralOther moralOther match m m 1 0.5251 
06-Jun-2018_15:53:40 Exp 7341 24 male R 3 4 6 immoralSelf moralOther mismatch n n 1 0.6922 
06-Jun-2018_15:53:42 Exp 7341 24 male R 3 4 7 immoralSelf moralOther mismatch n n 1 0.7709 
06-Jun-2018_15:53:44 Exp 7341 24 male R 3 4 8 moralSelf moralSelf match m m 1 0.6591 
06-Jun-2018_15:53:47 Exp 7341 24 male R 3 4 9 immoralOther immoralOther match m m 1 0.7171 
06-Jun-2018_15:53:49 Exp 7341 24 male R 3 4 10 moralOther moralSelf mismatch n n 1 0.5961 
06-Jun-2018_15:53:51 Exp 7341 24 male R 3 4 11 moralOther moralOther match m m 1 0.6687 
06-Jun-2018_15:53:54 Exp 7341 24 male R 3 4 12 moralSelf immoralSelf mismatch n n 1 0.8029 
06-Jun-2018_15:53:56 Exp 7341 24 male R 3 4 13 immoralSelf immoralOther mismatch n n 1 0.7118 
06-Jun-2018_15:53:58 Exp 7341 24 male R 3 4 14 immoralOther immoralOther match m m 1 0.9066 
06-Jun-2018_15:54:01 Exp 7341 24 male R 3 4 15 immoralSelf immoralSelf match m m 1 0.8216 
06-Jun-2018_15:54:03 Exp 7341 24 male R 3 4 16 moralSelf immoralSelf mismatch n n 1 0.5708 
06-Jun-2018_15:54:05 Exp 7341 24 male R 3 4 17 immoralSelf immoralSelf match m n 0 0.7709 
06-Jun-2018_15:54:08 Exp 7341 24 male R 3 4 18 moralOther moralOther match m m 1 0.5070 
06-Jun-2018_15:54:10 Exp 7341 24 male R 3 4 19 immoralOther immoralOther match m m 1 0.4779 
06-Jun-2018_15:54:12 Exp 7341 24 male R 3 4 20 moralSelf moralSelf match m m 1 0.5881 
06-Jun-2018_15:54:14 Exp 7341 24 male R 3 4 21 moralOther moralSelf mismatch n n 1 0.5567 
06-Jun-2018_15:54:16 Exp 7341 24 male R 3 4 22 immoralOther moralSelf mismatch n n 1 0.6645 
06-Jun-2018_15:54:19 Exp 7341 24 male R 3 4 23 moralOther immoralOther mismatch n n 1 0.9065 
06-Jun-2018_15:54:21 Exp 7341 24 male R 3 4 24 immoralOther immoralSelf mismatch n n 1 0.6455 
06-Jun-2018_15:54:24 Exp 7341 24 male R 3 5 1 immoralOther moralSelf mismatch n n 1 0.7633 
06-Jun-2018_15:54:26 Exp 7341 24 male R 3 5 2 moralOther moralOther match m m 1 0.6033 
06-Jun-2018_15:54:28 Exp 7341 24 male R 3 5 3 immoralOther immoralOther match m m 1 0.8481 
06-Jun-2018_15:54:31 Exp 7341 24 male R 3 5 4 moralSelf moralSelf match m n 0 0.5338 
06-Jun-2018_15:54:33 Exp 7341 24 male R 3 5 5 immoralSelf immoralSelf match m m 1 0.4893 
06-Jun-2018_15:54:35 Exp 7341 24 male R 3 5 6 moralOther moralOther match m m 1 0.4677 
06-Jun-2018_15:54:37 Exp 7341 24 male R 3 5 7 moralOther moralOther match m m 1 0.5859 
06-Jun-2018_15:54:39 Exp 7341 24 male R 3 5 8 moralSelf moralSelf match m m 1 0.5784 
06-Jun-2018_15:54:41 Exp 7341 24 male R 3 5 9 immoralSelf moralSelf mismatch n n 1 0.6148 
06-Jun-2018_15:54:44 Exp 7341 24 male R 3 5 10 moralSelf immoralSelf mismatch n n 1 0.6158 
06-Jun-2018_15:54:46 Exp 7341 24 male R 3 5 11 moralSelf immoralSelf mismatch n n 1 0.5128 
06-Jun-2018_15:54:48 Exp 7341 24 male R 3 5 12 immoralSelf moralSelf mismatch n n 1 0.6357 
06-Jun-2018_15:54:51 Exp 7341 24 male R 3 5 13 moralOther immoralOther mismatch n n 1 0.7812 
06-Jun-2018_15:54:53 Exp 7341 24 male R 3 5 14 moralSelf immoralSelf mismatch n n 1 0.7776 
06-Jun-2018_15:54:55 Exp 7341 24 male R 3 5 15 immoralOther immoralSelf mismatch n n 1 0.8459 
06-Jun-2018_15:54:58 Exp 7341 24 male R 3 5 16 moralOther moralSelf mismatch n n 1 0.6676 
06-Jun-2018_15:55:00 Exp 7341 24 male R 3 5 17 moralSelf moralSelf match m m 1 0.5816 
06-Jun-2018_15:55:02 Exp 7341 24 male R 3 5 18 immoralSelf immoralSelf match m m 1 0.7540 
06-Jun-2018_15:55:04 Exp 7341 24 male R 3 5 19 immoralOther immoralOther match m m 1 0.5258 
06-Jun-2018_15:55:07 Exp 7341 24 male R 3 5 20 moralOther immoralOther mismatch n n 1 0.6049 
06-Jun-2018_15:55:09 Exp 7341 24 male R 3 5 21 immoralOther moralOther mismatch n n 1 0.6578 
06-Jun-2018_15:55:11 Exp 7341 24 male R 3 5 22 immoralOther immoralOther match m m 1 0.8278 
06-Jun-2018_15:55:14 Exp 7341 24 male R 3 5 23 immoralSelf immoralSelf match m m 1 0.9530 
06-Jun-2018_15:55:16 Exp 7341 24 male R 3 5 24 immoralSelf moralOther mismatch n n 1 0.4609 
Date Prac Sub Age Sex Hand Block Bin Trial Shape Label Match CorrResp Resp ACC RT
06-Jun-2018_16:00:28 Exp 7341 24 male R 1 1 1 immoralSelf immoralSelf match m n 0 0.5673 
06-Jun-2018_16:00:30 Exp 7341 24 male R 1 1 2 moralOther immoralOther mismatch n m 0 0.4476 
06-Jun-2018_16:00:32 Exp 7341 24 male R 1 1 3 moralOther moralSelf mismatch n m 0 0.5732 
06-Jun-2018_16:00:35 Exp 7341 24 male R 1 1 4 immoralSelf immoralSelf match m m 1 0.7013 
06-Jun-2018_16:00:37 Exp 7341 24 male R 1 1 5 moralOther moralOther match m m 1 0.4920 
06-Jun-2018_16:00:39 Exp 7341 24 male R 1 1 6 moralSelf immoralSelf mismatch n n 1 0.7147 
06-Jun-2018_16:00:41 Exp 7341 24 male R 1 1 7 immoralSelf immoralSelf match m m 1 0.6178 
06-Jun-2018_16:00:44 Exp 7341 24 male R 1 1 8 moralSelf immoralOther mismatch n n 1 0.6109 
06-Jun-2018_16:00:46 Exp 7341 24 male R 1 1 9 moralSelf immoralSelf mismatch n n 1 0.5479 
06-Jun-2018_16:00:48 Exp 7341 24 male R 1 1 10 immoralOther immoralOther match m m 1 0.6435 
06-Jun-2018_16:00:51 Exp 7341 24 male R 1 1 11 immoralOther moralSelf mismatch n n 1 0.7810 
06-Jun-2018_16:00:53 Exp 7341 24 male R 1 1 12 immoralOther moralSelf mismatch n n 1 0.7613 
06-Jun-2018_16:00:55 Exp 7341 24 male R 1 1 13 moralSelf moralSelf match m m 1 0.6131 
06-Jun-2018_16:00:57 Exp 7341 24 male R 1 1 14 immoralSelf moralSelf mismatch n n 1 0.6302 
06-Jun-2018_16:01:00 Exp 7341 24 male R 1 1 15 moralSelf moralSelf match m m 1 0.6434 
06-Jun-2018_16:01:02 Exp 7341 24 male R 1 1 16 immoralOther immoralOther match m n 0 0.4290 
06-Jun-2018_16:01:04 Exp 7341 24 male R 1 1 17 moralOther moralOther match m m 1 0.4582 
06-Jun-2018_16:01:06 Exp 7341 24 male R 1 1 18 moralSelf moralSelf match m m 1 0.4842 
06-Jun-2018_16:01:08 Exp 7341 24 male R 1 1 19 moralOther moralOther match m m 1 0.5187 
06-Jun-2018_16:01:10 Exp 7341 24 male R 1 1 20 immoralOther immoralSelf mismatch n n 1 0.7018 
06-Jun-2018_16:01:13 Exp 7341 24 male R 1 1 21 immoralOther immoralOther match m m 1 0.7964 
06-Jun-2018_16:01:15 Exp 7341 24 male R 1 1 22 moralOther immoralSelf mismatch n n 1 0.5650 
06-Jun-2018_16:01:17 Exp 7341 24 male R 1 1 23 immoralSelf moralOther mismatch n n 1 0.5251 
06-Jun-2018_16:01:19 Exp 7341 24 male R 1 1 24 immoralSelf immoralOther mismatch n n 1 0.4683 
06-Jun-2018_16:01:22 Exp 7341 24 male R 1 2 1 immoralSelf immoralSelf match m n 0 0.7865 
06-Jun-2018_16:01:24 Exp 7341 24 male R 1 2 2 immoralOther moralOther mismatch n n 1 0.7310 
06-Jun-2018_16:01:26 Exp 7341 24 male R 1 2 3 immoralOther moralOther mismatch n n 1 0.6544 
06-Jun-2018_16:01:29 Exp 7341 24 male R 1 2 4 moralOther moralOther match m m 1 0.4841 
06-Jun-2018_16:01:31 Exp 7341 24 male R 1 2 5 immoralSelf moralSelf mismatch n n 1 0.6226 
06-Jun-2018_16:01:33 Exp 7341 24 male R 1 2 6 immoralSelf moralOther mismatch n n 1 0.8439 
06-Jun-2018_16:01:36 Exp 7341 24 male R 1 2 7 immoralOther immoralOther match m m 1 0.6373 
06-Jun-2018_16:01:38 Exp 7341 24 male R 1 2 8 moralSelf moralSelf match m m 1 0.5508 
06-Jun-2018_16:01:40 Exp 7341 24 male R 1 2 9 immoralSelf immoralSelf match m n 0 0.5867 
06-Jun-2018_16:01:42 Exp 7341 24 male R 1 2 10 immoralSelf immoralSelf match m m 1 0.5952 
06-Jun-2018_16:01:44 Exp 7341 24 male R 1 2 11 moralSelf immoralSelf mismatch n n 1 0.5638 
06-Jun-2018_16:01:47 Exp 7341 24 male R 1 2 12 moralSelf moralSelf match m m 1 0.5639 
06-Jun-2018_16:01:49 Exp 7341 24 male R 1 2 13 moralSelf moralOther mismatch n n 1 0.4760 
06-Jun-2018_16:01:51 Exp 7341 24 male R 1 2 14 moralSelf immoralSelf mismatch n n 1 0.7063 
06-Jun-2018_16:01:53 Exp 7341 24 male R 1 2 15 immoralSelf moralSelf mismatch n n 1 0.7651 
06-Jun-2018_16:01:56 Exp 7341 24 male R 1 2 16 moralOther immoralSelf mismatch n n 1 0.6693 
06-Jun-2018_16:01:58 Exp 7341 24 male R 1 2 17 moralOther immoralOther mismatch n n 1 0.6114 
06-Jun-2018_16:02:00 Exp 7341 24 male R 1 2 18 immoralOther moralSelf mismatch n n 1 0.6604 
06-Jun-2018_16:02:03 Exp 7341 24 male R 1 2 19 moralOther moralSelf mismatch n n 1 0.6464 
06-Jun-2018_16:02:05 Exp 7341 24 male R 1 2 20 immoralOther immoralOther match m n 0 0.5002 
06-Jun-2018_16:02:07 Exp 7341 24 male R 1 2 21 moralOther moralOther match m m 1 0.5068 
06-Jun-2018_16:02:09 Exp 7341 24 male R 1 2 22 immoralOther immoralOther match m m 1 0.5977 
06-Jun-2018_16:02:11 Exp 7341 24 male R 1 2 23 moralSelf moralSelf match m m 1 0.5546 
06-Jun-2018_16:02:14 Exp 7341 24 male R 1 2 24 moralOther moralOther match m m 1 0.7184 
Date Prac Sub Age Sex Hand Block Bin Trial Shape Label Match CorrResp Resp ACC RT
06-Jun-2018_16:06:41 Exp 7341 24 male R 1 1 1 moralOther moralOther match m m 1 0.4993 
06-Jun-2018_16:06:43 Exp 7341 24 male R 1 1 2 moralSelf immoralOther mismatch n n 1 0.5140 
06-Jun-2018_16:06:46 Exp 7341 24 male R 1 1 3 moralOther moralSelf mismatch n n 1 0.7489 
06-Jun-2018_16:06:48 Exp 7341 24 male R 1 1 4 moralOther immoralSelf mismatch n n 1 0.5245 
06-Jun-2018_16:06:50 Exp 7341 24 male R 1 1 5 immoralOther moralSelf mismatch n n 1 0.6277 
06-Jun-2018_16:06:52 Exp 7341 24 male R 1 1 6 moralOther immoralSelf mismatch n n 1 0.7929 
06-Jun-2018_16:06:55 Exp 7341 24 male R 1 1 7 immoralOther immoralOther match m m 1 0.6815 
06-Jun-2018_16:06:57 Exp 7341 24 male R 1 1 8 immoralOther moralSelf mismatch n m 0 0.4440 
06-Jun-2018_16:06:59 Exp 7341 24 male R 1 1 9 immoralSelf moralSelf mismatch n n 1 0.6134 
06-Jun-2018_16:07:01 Exp 7341 24 male R 1 1 10 immoralOther immoralOther match m m 1 0.5104 
06-Jun-2018_16:07:04 Exp 7341 24 male R 1 1 11 immoralSelf immoralSelf match m m 1 0.7294 
06-Jun-2018_16:07:06 Exp 7341 24 male R 1 1 12 moralSelf moralOther mismatch n n 1 0.6208 
06-Jun-2018_16:07:08 Exp 7341 24 male R 1 1 13 immoralOther immoralOther match m m 1 0.5461 
06-Jun-2018_16:07:10 Exp 7341 24 male R 1 1 14 moralSelf immoralOther mismatch n n 1 0.7696 
06-Jun-2018_16:07:13 Exp 7341 24 male R 1 1 15 immoralSelf immoralSelf match m n 0 0.4657 
06-Jun-2018_16:07:15 Exp 7341 24 male R 1 1 16 immoralOther moralSelf mismatch n n 1 0.5797 
06-Jun-2018_16:07:17 Exp 7341 24 male R 1 1 17 immoralSelf immoralSelf match m m 1 0.6960 
06-Jun-2018_16:07:19 Exp 7341 24 male R 1 1 18 immoralSelf moralSelf mismatch n n 1 0.5907 
06-Jun-2018_16:07:22 Exp 7341 24 male R 1 1 19 immoralSelf moralSelf mismatch n n 1 0.6873 
06-Jun-2018_16:07:24 Exp 7341 24 male R 1 1 20 moralOther moralOther match m m 1 0.6177 
06-Jun-2018_16:07:26 Exp 7341 24 male R 1 1 21 moralSelf moralSelf match m m 1 0.8107 
06-Jun-2018_16:07:28 Exp 7341 24 male R 1 1 22 moralSelf moralSelf match m m 1 0.5158 
06-Jun-2018_16:07:30 Exp 7341 24 male R 1 1 23 moralSelf moralSelf match m m 1 0.4189 
06-Jun-2018_16:07:33 Exp 7341 24 male R 1 1 24 moralOther moralOther match m m 1 0.6520 
06-Jun-2018_16:07:35 Exp 7341 24 male R 1 2 1 immoralSelf moralOther mismatch n n 1 0.5537 
06-Jun-2018_16:07:37 Exp 7341 24 male R 1 2 2 immoralSelf immoralSelf match m m 1 0.7095 
06-Jun-2018_16:07:40 Exp 7341 24 male R 1 2 3 moralOther immoralOther mismatch n m 0 0.6164 
06-Jun-2018_16:07:42 Exp 7341 24 male R 1 2 4 immoralOther immoralOther match m m 1 0.6175 
06-Jun-2018_16:07:44 Exp 7341 24 male R 1 2 5 immoralOther moralSelf mismatch n m 0 0.6665 
06-Jun-2018_16:07:46 Exp 7341 24 male R 1 2 6 immoralOther immoralOther match m m 1 0.5805 
06-Jun-2018_16:07:48 Exp 7341 24 male R 1 2 7 moralOther moralOther match m m 1 0.4728 
06-Jun-2018_16:07:51 Exp 7341 24 male R 1 2 8 immoralOther immoralSelf mismatch n n 1 0.6390 
06-Jun-2018_16:07:53 Exp 7341 24 male R 1 2 9 moralOther moralOther match m m 1 0.5125 
06-Jun-2018_16:07:55 Exp 7341 24 male R 1 2 10 immoralSelf immoralSelf match m m 1 0.6755 
06-Jun-2018_16:07:57 Exp 7341 24 male R 1 2 11 moralSelf immoralOther mismatch n n 1 0.6256 
06-Jun-2018_16:08:00 Exp 7341 24 male R 1 2 12 immoralSelf moralSelf mismatch n n 1 0.7509 
06-Jun-2018_16:08:02 Exp 7341 24 male R 1 2 13 immoralSelf immoralSelf match m m 1 0.8428 
06-Jun-2018_16:08:04 Exp 7341 24 male R 1 2 14 moralSelf immoralOther mismatch n n 1 0.5723 
06-Jun-2018_16:08:07 Exp 7341 24 male R 1 2 15 moralOther moralOther match m m 1 0.4922 
06-Jun-2018_16:08:09 Exp 7341 24 male R 1 2 16 moralSelf moralSelf match m m 1 0.6591 
06-Jun-2018_16:08:11 Exp 7341 24 male R 1 2 17 moralOther moralSelf mismatch n m 0 0.6850 
06-Jun-2018_16:08:13 Exp 7341 24 male R 1 2 18 moralSelf moralSelf match m m 1 0.4955 
06-Jun-2018_16:08:15 Exp 7341 24 male R 1 2 19 moralSelf immoralSelf mismatch n n 1 0.5501 
06-Jun-2018_16:08:18 Exp 7341 24 male R 1 2 20 moralOther immoralSelf mismatch n n 1 0.5540 
06-Jun-2018_16:08:20 Exp 7341 24 male R 1 2 21 immoralSelf moralSelf mismatch n n 1 0.7338 
06-Jun-2018_16:08:22 Exp 7341 24 male R 1 2 22 immoralOther immoralSelf mismatch n n 1 0.5932 
06-Jun-2018_16:08:25 Exp 7341 24 male R 1 2 23 moralSelf moralSelf match m m 1 0.6097 
06-Jun-2018_16:08:27 Exp 7341 24 male R 1 2 24 immoralOther immoralOther match m m 1 0.5548 
Date Prac Sub Age Sex Hand Block Bin Trial Shape Label Match CorrResp Resp ACC RT
06-Jun-2018_16:12:25 Exp 7341 24 male R 1 1 1 immoralOther moralOther mismatch n n 1 0.8958 
06-Jun-2018_16:12:28 Exp 7341 24 male R 1 1 2 immoralOther immoralOther match m m 1 0.7346 
06-Jun-2018_16:12:30 Exp 7341 24 male R 1 1 3 moralOther moralOther match m m 1 0.5380 
06-Jun-2018_16:12:32 Exp 7341 24 male R 1 1 4 moralOther moralOther match m m 1 0.4614 
06-Jun-2018_16:12:34 Exp 7341 24 male R 1 1 5 moralOther moralOther match m m 1 0.3754 
06-Jun-2018_16:12:36 Exp 7341 24 male R 1 1 6 immoralSelf moralSelf mismatch n n 1 0.7877 
06-Jun-2018_16:12:39 Exp 7341 24 male R 1 1 7 moralSelf moralSelf match m n 0 0.5163 
06-Jun-2018_16:12:41 Exp 7341 24 male R 1 1 8 immoralOther immoralOther match m n 0 0.5394 
06-Jun-2018_16:12:43 Exp 7341 24 male R 1 1 9 moralOther immoralOther mismatch n n 1 0.6349 
06-Jun-2018_16:12:45 Exp 7341 24 male R 1 1 10 moralOther moralSelf mismatch n n 1 0.6365 
06-Jun-2018_16:12:48 Exp 7341 24 male R 1 1 11 immoralOther immoralSelf mismatch n n 1 0.6860 
06-Jun-2018_16:12:50 Exp 7341 24 male R 1 1 12 immoralSelf moralSelf mismatch n n 1 0.6324 
06-Jun-2018_16:12:52 Exp 7341 24 male R 1 1 13 moralSelf immoralSelf mismatch n n 1 0.5699 
06-Jun-2018_16:12:55 Exp 7341 24 male R 1 1 14 moralSelf moralSelf match m m 1 0.7621 
06-Jun-2018_16:12:57 Exp 7341 24 male R 1 1 15 moralSelf moralOther mismatch n n 1 0.5301 
06-Jun-2018_16:12:59 Exp 7341 24 male R 1 1 16 immoralOther immoralOther match m n 0 0.5815 
06-Jun-2018_16:13:01 Exp 7341 24 male R 1 1 17 immoralSelf immoralSelf match m m 1 0.5618 
06-Jun-2018_16:13:03 Exp 7341 24 male R 1 1 18 immoralSelf immoralSelf match m m 1 0.5779 
06-Jun-2018_16:13:06 Exp 7341 24 male R 1 1 19 moralOther immoralOther mismatch n n 1 0.6863 
06-Jun-2018_16:13:08 Exp 7341 24 male R 1 1 20 immoralSelf moralOther mismatch n m 0 0.5207 
06-Jun-2018_16:13:10 Exp 7341 24 male R 1 1 21 immoralSelf immoralSelf match m m 1 0.5839 
06-Jun-2018_16:13:12 Exp 7341 24 male R 1 1 22 moralSelf moralOther mismatch n n 1 0.7802 
06-Jun-2018_16:13:15 Exp 7341 24 male R 1 1 23 moralSelf moralSelf match m m 1 0.6245 
06-Jun-2018_16:13:17 Exp 7341 24 male R 1 1 24 immoralOther moralOther mismatch n n 1 0.6698 
06-Jun-2018_16:13:20 Exp 7341 24 male R 1 2 1 immoralOther immoralSelf mismatch n n 1 0.8919 
06-Jun-2018_16:13:22 Exp 7341 24 male R 1 2 2 moralSelf immoralSelf mismatch n n 1 0.7066 
06-Jun-2018_16:13:24 Exp 7341 24 male R 1 2 3 immoralSelf moralSelf mismatch n n 1 0.6616 
06-Jun-2018_16:13:26 Exp 7341 24 male R 1 2 4 moralOther moralOther match m m 1 0.5595 
06-Jun-2018_16:13:29 Exp 7341 24 male R 1 2 5 immoralSelf immoralSelf match m m 1 0.6914 
06-Jun-2018_16:13:31 Exp 7341 24 male R 1 2 6 moralSelf moralSelf match m m 1 0.6261 
06-Jun-2018_16:13:33 Exp 7341 24 male R 1 2 7 moralSelf immoralOther mismatch n n 1 0.5994 
06-Jun-2018_16:13:35 Exp 7341 24 male R 1 2 8 immoralOther moralSelf mismatch n n 1 0.5481 
06-Jun-2018_16:13:38 Exp 7341 24 male R 1 2 9 immoralSelf immoralSelf match m m 1 0.6437 
06-Jun-2018_16:13:40 Exp 7341 24 male R 1 2 10 moralSelf immoralSelf mismatch n n 1 0.6374 
06-Jun-2018_16:13:42 Exp 7341 24 male R 1 2 11 immoralOther moralOther mismatch n n 1 0.7027 
06-Jun-2018_16:13:44 Exp 7341 24 male R 1 2 12 moralSelf moralSelf match m m 1 0.6054 
06-Jun-2018_16:13:47 Exp 7341 24 male R 1 2 13 moralOther immoralSelf mismatch n n 1 0.5862 
06-Jun-2018_16:13:49 Exp 7341 24 male R 1 2 14 immoralOther immoralOther match m n 0 0.7787 
06-Jun-2018_16:13:51 Exp 7341 24 male R 1 2 15 moralOther immoralOther mismatch n n 1 0.6391 
06-Jun-2018_16:13:54 Exp 7341 24 male R 1 2 16 immoralOther immoralOther match m m 1 0.7206 
06-Jun-2018_16:13:56 Exp 7341 24 male R 1 2 17 moralOther moralOther match m m 1 0.7518 
06-Jun-2018_16:13:59 Exp 7341 24 male R 1 2 18 immoralSelf immoralOther mismatch n n 1 0.8516 
06-Jun-2018_16:14:01 Exp 7341 24 male R 1 2 19 immoralSelf immoralSelf match m m 1 0.8174 
06-Jun-2018_16:14:03 Exp 7341 24 male R 1 2 20 moralOther immoralSelf mismatch n n 1 0.6424 
06-Jun-2018_16:14:06 Exp 7341 24 male R 1 2 21 immoralSelf moralSelf mismatch n n 1 0.7079 
06-Jun-2018_16:14:08 Exp 7341 24 male R 1 2 22 immoralOther immoralOther match m m 1 0.6388 
06-Jun-2018_16:14:10 Exp 7341 24 male R 1 2 23 moralOther moralOther match m m 1 0.5683 
06-Jun-2018_16:14:12 Exp 7341 24 male R 1 2 24 moralSelf moralSelf match m m 1 0.5925 
Date Prac Sub Age Sex Hand Block Bin Trial Shape Label Match CorrResp Resp ACC RT
06-Jun-2018_16:18:20 Exp 7341 24 male R 1 1 1 immoralOther moralOther mismatch n n 1 0.5894 
06-Jun-2018_16:18:23 Exp 7341 24 male R 1 1 2 immoralOther immoralSelf mismatch n n 1 0.8460 
06-Jun-2018_16:18:25 Exp 7341 24 male R 1 1 3 immoralSelf immoralSelf match m m 1 0.5878 
06-Jun-2018_16:18:27 Exp 7341 24 male R 1 1 4 immoralOther immoralOther match m m 1 0.6123 
06-Jun-2018_16:18:30 Exp 7341 24 male R 1 1 5 moralOther immoralSelf mismatch n n 1 0.9653 
06-Jun-2018_16:18:32 Exp 7341 24 male R 1 1 6 immoralSelf immoralSelf match m m 1 0.5094 
06-Jun-2018_16:18:34 Exp 7341 24 male R 1 1 7 moralSelf moralSelf match m m 1 0.6003 
06-Jun-2018_16:18:37 Exp 7341 24 male R 1 1 8 moralOther moralOther match m m 1 0.7811 
06-Jun-2018_16:18:39 Exp 7341 24 male R 1 1 9 immoralSelf immoralOther mismatch n m 0 0.5615 
06-Jun-2018_16:18:41 Exp 7341 24 male R 1 1 10 moralOther moralOther match m m 1 0.5974 
06-Jun-2018_16:18:44 Exp 7341 24 male R 1 1 11 immoralSelf immoralOther mismatch n n 1 0.8421 
06-Jun-2018_16:18:46 Exp 7341 24 male R 1 1 12 moralOther immoralOther mismatch n n 1 0.6836 
06-Jun-2018_16:18:48 Exp 7341 24 male R 1 1 13 moralSelf immoralSelf mismatch n n 1 0.7259 
06-Jun-2018_16:18:50 Exp 7341 24 male R 1 1 14 moralOther immoralOther mismatch n n 1 0.6132 
06-Jun-2018_16:18:53 Exp 7341 24 male R 1 1 15 moralSelf moralSelf match m m 1 0.8062 
06-Jun-2018_16:18:55 Exp 7341 24 male R 1 1 16 immoralSelf immoralOther mismatch n n 1 0.8591 
06-Jun-2018_16:18:58 Exp 7341 24 male R 1 1 17 immoralSelf immoralSelf match m m 1 0.8850 
06-Jun-2018_16:19:00 Exp 7341 24 male R 1 1 18 moralSelf moralOther mismatch n n 1 0.6635 
06-Jun-2018_16:19:03 Exp 7341 24 male R 1 1 19 immoralOther moralOther mismatch n NA -1 1.0841 
06-Jun-2018_16:19:05 Exp 7341 24 male R 1 1 20 moralSelf moralSelf match m m 1 0.5639 
06-Jun-2018_16:19:07 Exp 7341 24 male R 1 1 21 immoralOther immoralOther match m m 1 0.6280 
06-Jun-2018_16:19:10 Exp 7341 24 male R 1 1 22 immoralOther immoralOther match m m 1 0.7132 
06-Jun-2018_16:19:12 Exp 7341 24 male R 1 1 23 moralSelf immoralOther mismatch n n 1 0.9402 
06-Jun-2018_16:19:15 Exp 7341 24 male R 1 1 24 moralOther moralOther match m NA -1 1.0841 
06-Jun-2018_16:19:17 Exp 7341 24 male R 1 2 1 immoralOther immoralOther match m m 1 0.7981 
06-Jun-2018_16:19:20 Exp 7341 24 male R 1 2 2 moralOther moralOther match m m 1 0.5311 
06-Jun-2018_16:19:22 Exp 7341 24 male R 1 2 3 immoralOther immoralOther match m m 1 0.5985 
06-Jun-2018_16:19:24 Exp 7341 24 male R 1 2 4 moralSelf moralSelf match m m 1 0.5953 
06-Jun-2018_16:19:26 Exp 7341 24 male R 1 2 5 moralSelf moralSelf match m m 1 0.7318 
06-Jun-2018_16:19:29 Exp 7341 24 male R 1 2 6 immoralSelf moralSelf mismatch n n 1 0.8151 
06-Jun-2018_16:19:31 Exp 7341 24 male R 1 2 7 immoralSelf immoralOther mismatch n m 0 0.7202 
06-Jun-2018_16:19:34 Exp 7341 24 male R 1 2 8 immoralOther moralOther mismatch n n 1 0.7433 
06-Jun-2018_16:19:36 Exp 7341 24 male R 1 2 9 moralSelf immoralSelf mismatch n NA -1 1.0841 
06-Jun-2018_16:19:39 Exp 7341 24 male R 1 2 10 immoralOther immoralOther match m m 1 0.9055 
06-Jun-2018_16:19:41 Exp 7341 24 male R 1 2 11 moralOther moralOther match m m 1 0.5564 
06-Jun-2018_16:19:43 Exp 7341 24 male R 1 2 12 moralOther immoralOther mismatch n n 1 0.5123 
06-Jun-2018_16:19:45 Exp 7341 24 male R 1 2 13 moralSelf moralOther mismatch n n 1 0.6671 
06-Jun-2018_16:19:48 Exp 7341 24 male R 1 2 14 immoralSelf immoralOther mismatch n n 1 0.6611 
06-Jun-2018_16:19:50 Exp 7341 24 male R 1 2 15 moralOther immoralSelf mismatch n n 1 1.0231 
06-Jun-2018_16:19:53 Exp 7341 24 male R 1 2 16 moralOther moralSelf mismatch n n 1 0.8603 
06-Jun-2018_16:19:55 Exp 7341 24 male R 1 2 17 immoralOther moralSelf mismatch n n 1 0.8623 
06-Jun-2018_16:19:58 Exp 7341 24 male R 1 2 18 immoralSelf immoralSelf match m NA -1 1.0841 
06-Jun-2018_16:20:00 Exp 7341 24 male R 1 2 19 moralSelf moralOther mismatch n n 1 0.5707 
06-Jun-2018_16:20:03 Exp 7341 24 male R 1 2 20 immoralSelf immoralSelf match m n 0 0.7308 
06-Jun-2018_16:20:05 Exp 7341 24 male R 1 2 21 moralOther moralOther match m m 1 0.5663 
06-Jun-2018_16:20:07 Exp 7341 24 male R 1 2 22 immoralSelf immoralSelf match m m 1 0.8544 
06-Jun-2018_16:20:10 Exp 7341 24 male R 1 2 23 moralSelf moralSelf match m m 1 0.6521 
06-Jun-2018_16:20:12 Exp 7341 24 male R 1 2 24 immoralOther moralSelf mismatch n n 1 0.8897 
Date Prac Sub Age Sex Hand Block Bin Trial Shape Label Match CorrResp Resp ACC RT
06-Jun-2018_16:25:30 Exp 7341 24 male R 1 1 1 immoralSelf moralOther mismatch n n 1 0.6928 
06-Jun-2018_16:25:32 Exp 7341 24 male R 1 1 2 moralOther moralOther match m m 1 0.6115 
06-Jun-2018_16:25:34 Exp 7341 24 male R 1 1 3 immoralOther immoralOther match m m 1 0.6846 
06-Jun-2018_16:25:37 Exp 7341 24 male R 1 1 4 moralOther immoralOther mismatch n n 1 0.6790 
06-Jun-2018_16:25:39 Exp 7341 24 male R 1 1 5 moralSelf immoralOther mismatch n n 1 0.6213 
06-Jun-2018_16:25:41 Exp 7341 24 male R 1 1 6 moralSelf moralSelf match m m 1 0.7064 
06-Jun-2018_16:25:43 Exp 7341 24 male R 1 1 7 immoralOther immoralSelf mismatch n n 1 0.4454 
06-Jun-2018_16:25:46 Exp 7341 24 male R 1 1 8 immoralOther immoralOther match m m 1 0.7472 
06-Jun-2018_16:25:48 Exp 7341 24 male R 1 1 9 immoralOther immoralOther match m m 1 1.0268 
06-Jun-2018_16:25:51 Exp 7341 24 male R 1 1 10 immoralSelf immoralSelf match m m 1 0.7840 
06-Jun-2018_16:25:53 Exp 7341 24 male R 1 1 11 moralSelf moralSelf match m m 1 0.6605 
06-Jun-2018_16:25:55 Exp 7341 24 male R 1 1 12 moralSelf moralSelf match m m 1 0.4624 
06-Jun-2018_16:25:58 Exp 7341 24 male R 1 1 13 moralOther moralOther match m m 1 0.6323 
06-Jun-2018_16:26:00 Exp 7341 24 male R 1 1 14 immoralSelf moralSelf mismatch n n 1 0.9976 
06-Jun-2018_16:26:02 Exp 7341 24 male R 1 1 15 moralSelf immoralSelf mismatch n n 1 0.6744 
06-Jun-2018_16:26:05 Exp 7341 24 male R 1 1 16 moralOther immoralOther mismatch n m 0 0.6406 
06-Jun-2018_16:26:07 Exp 7341 24 male R 1 1 17 immoralOther moralOther mismatch n n 1 0.7941 
06-Jun-2018_16:26:09 Exp 7341 24 male R 1 1 18 moralOther moralOther match m m 1 0.6507 
06-Jun-2018_16:26:12 Exp 7341 24 male R 1 1 19 immoralSelf immoralSelf match m m 1 0.6804 
06-Jun-2018_16:26:14 Exp 7341 24 male R 1 1 20 immoralSelf immoralSelf match m m 1 0.5468 
06-Jun-2018_16:26:16 Exp 7341 24 male R 1 1 21 immoralSelf immoralOther mismatch n n 1 0.5145 
06-Jun-2018_16:26:18 Exp 7341 24 male R 1 1 22 moralSelf immoralOther mismatch n n 1 0.7014 
06-Jun-2018_16:26:21 Exp 7341 24 male R 1 1 23 immoralOther moralSelf mismatch n n 1 0.7321 
06-Jun-2018_16:26:23 Exp 7341 24 male R 1 1 24 moralOther immoralSelf mismatch n n 1 0.6795 
06-Jun-2018_16:26:25 Exp 7341 24 male R 1 2 1 immoralSelf immoralSelf match m m 1 0.6739 
06-Jun-2018_16:26:28 Exp 7341 24 male R 1 2 2 immoralOther moralOther mismatch n n 1 0.5041 
06-Jun-2018_16:26:30 Exp 7341 24 male R 1 2 3 moralSelf moralSelf match m m 1 0.7230 
06-Jun-2018_16:26:32 Exp 7341 24 male R 1 2 4 moralOther moralOther match m m 1 0.5221 
06-Jun-2018_16:26:34 Exp 7341 24 male R 1 2 5 moralSelf moralSelf match m m 1 0.5453 
06-Jun-2018_16:26:36 Exp 7341 24 male R 1 2 6 immoralSelf moralSelf mismatch n m 0 0.5929 
06-Jun-2018_16:26:39 Exp 7341 24 male R 1 2 7 moralOther moralOther match m m 1 0.5055 
06-Jun-2018_16:26:41 Exp 7341 24 male R 1 2 8 immoralOther immoralOther match m m 1 0.5244 
06-Jun-2018_16:26:43 Exp 7341 24 male R 1 2 9 moralSelf moralSelf match m m 1 0.5876 
06-Jun-2018_16:26:45 Exp 7341 24 male R 1 2 10 moralOther immoralOther mismatch n n 1 0.6361 
06-Jun-2018_16:26:47 Exp 7341 24 male R 1 2 11 immoralSelf immoralOther mismatch n n 1 0.5816 
06-Jun-2018_16:26:50 Exp 7341 24 male R 1 2 12 moralOther immoralSelf mismatch n n 1 0.7700 
06-Jun-2018_16:26:52 Exp 7341 24 male R 1 2 13 immoralSelf immoralSelf match m m 1 0.6579 
06-Jun-2018_16:26:54 Exp 7341 24 male R 1 2 14 moralSelf immoralOther mismatch n n 1 0.6040 
06-Jun-2018_16:26:57 Exp 7341 24 male R 1 2 15 moralSelf immoralSelf mismatch n n 1 0.6887 
06-Jun-2018_16:26:59 Exp 7341 24 male R 1 2 16 immoralSelf immoralOther mismatch n n 1 0.6033 
06-Jun-2018_16:27:01 Exp 7341 24 male R 1 2 17 moralOther immoralSelf mismatch n n 1 0.7120 
06-Jun-2018_16:27:03 Exp 7341 24 male R 1 2 18 immoralSelf immoralSelf match m n 0 0.4909 
06-Jun-2018_16:27:06 Exp 7341 24 male R 1 2 19 moralOther moralOther match m m 1 0.5973 
06-Jun-2018_16:27:08 Exp 7341 24 male R 1 2 20 immoralOther moralSelf mismatch n n 1 0.7461 
06-Jun-2018_16:27:10 Exp 7341 24 male R 1 2 21 immoralOther immoralOther match m m 1 0.6179 
06-Jun-2018_16:27:12 Exp 7341 24 male R 1 2 22 immoralOther immoralOther match m n 0 0.5308 
06-Jun-2018_16:27:15 Exp 7341 24 male R 1 2 23 immoralOther moralOther mismatch n m 0 0.6862 
06-Jun-2018_16:27:17 Exp 7341 24 male R 1 2 24 moralSelf moralOther mismatch n n 1 1.0566 
