Date Prac Sub Age Sex Hand Block Bin Trial Shape Label Match CorrResp Resp ACC RT
16-May-2018_15:27:33 Exp 7316 21 female R 1 1 1 moralSelf immoralOther mismatch n NA -1 1.0850 
16-May-2018_15:27:36 Exp 7316 21 female R 1 1 2 moralOther immoralOther mismatch n n 1 0.6096 
16-May-2018_15:27:38 Exp 7316 21 female R 1 1 3 moralOther moralOther match m m 1 0.5616 
16-May-2018_15:27:40 Exp 7316 21 female R 1 1 4 immoralSelf immoralOther mismatch n n 1 0.5958 
16-May-2018_15:27:42 Exp 7316 21 female R 1 1 5 moralOther moralOther match m m 1 0.6320 
16-May-2018_15:27:45 Exp 7316 21 female R 1 1 6 immoralSelf immoralSelf match m n 0 0.6440 
16-May-2018_15:27:47 Exp 7316 21 female R 1 1 7 immoralOther immoralOther match m m 1 0.5023 
16-May-2018_15:27:49 Exp 7316 21 female R 1 1 8 immoralOther immoralOther match m m 1 0.6123 
16-May-2018_15:27:51 Exp 7316 21 female R 1 1 9 immoralSelf immoralOther mismatch n n 1 0.6924 
16-May-2018_15:27:53 Exp 7316 21 female R 1 1 10 immoralSelf immoralSelf match m m 1 0.5806 
16-May-2018_15:27:56 Exp 7316 21 female R 1 1 11 moralSelf moralSelf match m m 1 0.5387 
16-May-2018_15:27:58 Exp 7316 21 female R 1 1 12 moralSelf moralOther mismatch n n 1 0.6408 
16-May-2018_15:28:00 Exp 7316 21 female R 1 1 13 moralOther moralOther match m m 1 0.7949 
16-May-2018_15:28:03 Exp 7316 21 female R 1 1 14 moralOther immoralOther mismatch n n 1 0.7111 
16-May-2018_15:28:05 Exp 7316 21 female R 1 1 15 immoralSelf moralSelf mismatch n m 0 0.4992 
16-May-2018_15:28:07 Exp 7316 21 female R 1 1 16 immoralOther immoralSelf mismatch n n 1 0.6253 
16-May-2018_15:28:09 Exp 7316 21 female R 1 1 17 immoralSelf immoralSelf match m n 0 0.7515 
16-May-2018_15:28:12 Exp 7316 21 female R 1 1 18 moralOther immoralOther mismatch n n 1 0.6196 
16-May-2018_15:28:14 Exp 7316 21 female R 1 1 19 moralSelf moralOther mismatch n m 0 0.6177 
16-May-2018_15:28:16 Exp 7316 21 female R 1 1 20 immoralOther moralOther mismatch n n 1 0.8638 
16-May-2018_15:28:19 Exp 7316 21 female R 1 1 21 immoralOther immoralOther match m m 1 0.8860 
16-May-2018_15:28:21 Exp 7316 21 female R 1 1 22 moralSelf moralSelf match m m 1 0.5602 
16-May-2018_15:28:23 Exp 7316 21 female R 1 1 23 immoralOther immoralSelf mismatch n n 1 0.6583 
16-May-2018_15:28:26 Exp 7316 21 female R 1 1 24 moralSelf moralSelf match m m 1 0.5365 
16-May-2018_15:28:28 Exp 7316 21 female R 1 2 1 moralSelf moralSelf match m n 0 0.6006 
16-May-2018_15:28:30 Exp 7316 21 female R 1 2 2 immoralOther immoralOther match m n 0 0.6666 
16-May-2018_15:28:33 Exp 7316 21 female R 1 2 3 immoralSelf immoralSelf match m m 1 1.0087 
16-May-2018_15:28:35 Exp 7316 21 female R 1 2 4 immoralSelf moralOther mismatch n n 1 0.7610 
16-May-2018_15:28:37 Exp 7316 21 female R 1 2 5 moralOther moralOther match m m 1 0.6193 
16-May-2018_15:28:40 Exp 7316 21 female R 1 2 6 moralOther moralSelf mismatch n n 1 0.6652 
16-May-2018_15:28:42 Exp 7316 21 female R 1 2 7 immoralSelf moralSelf mismatch n m 0 0.7353 
16-May-2018_15:28:44 Exp 7316 21 female R 1 2 8 immoralOther moralSelf mismatch n n 1 0.5514 
16-May-2018_15:28:46 Exp 7316 21 female R 1 2 9 immoralOther immoralOther match m n 0 0.5955 
16-May-2018_15:28:49 Exp 7316 21 female R 1 2 10 immoralSelf immoralSelf match m m 1 0.7037 
16-May-2018_15:28:51 Exp 7316 21 female R 1 2 11 immoralSelf moralOther mismatch n n 1 0.7019 
16-May-2018_15:28:53 Exp 7316 21 female R 1 2 12 immoralOther immoralSelf mismatch n m 0 0.8041 
16-May-2018_15:28:56 Exp 7316 21 female R 1 2 13 moralOther moralOther match m m 1 0.8622 
16-May-2018_15:28:58 Exp 7316 21 female R 1 2 14 immoralSelf immoralSelf match m m 1 0.8362 
16-May-2018_15:29:01 Exp 7316 21 female R 1 2 15 moralSelf immoralSelf mismatch n n 1 0.6805 
16-May-2018_15:29:03 Exp 7316 21 female R 1 2 16 moralOther moralOther match m m 1 0.7305 
16-May-2018_15:29:05 Exp 7316 21 female R 1 2 17 moralOther immoralSelf mismatch n n 1 0.6107 
16-May-2018_15:29:08 Exp 7316 21 female R 1 2 18 moralSelf immoralSelf mismatch n n 1 0.7947 
16-May-2018_15:29:10 Exp 7316 21 female R 1 2 19 moralOther immoralSelf mismatch n m 0 0.8229 
16-May-2018_15:29:13 Exp 7316 21 female R 1 2 20 immoralOther immoralOther match m m 1 0.8531 
16-May-2018_15:29:15 Exp 7316 21 female R 1 2 21 moralSelf moralSelf match m m 1 0.5732 
16-May-2018_15:29:17 Exp 7316 21 female R 1 2 22 moralSelf moralSelf match m m 1 0.5733 
16-May-2018_15:29:19 Exp 7316 21 female R 1 2 23 moralSelf immoralOther mismatch n n 1 0.5814 
16-May-2018_15:29:22 Exp 7316 21 female R 1 2 24 immoralOther immoralSelf mismatch n n 1 0.8355 
16-May-2018_15:29:24 Exp 7316 21 female R 1 3 1 moralOther moralOther match m m 1 0.7677 
16-May-2018_15:29:26 Exp 7316 21 female R 1 3 2 immoralSelf immoralSelf match m n 0 0.5758 
16-May-2018_15:29:29 Exp 7316 21 female R 1 3 3 immoralSelf immoralOther mismatch n n 1 0.7040 
16-May-2018_15:29:31 Exp 7316 21 female R 1 3 4 moralSelf moralSelf match m m 1 0.5262 
16-May-2018_15:29:33 Exp 7316 21 female R 1 3 5 immoralSelf immoralSelf match m n 0 0.6243 
16-May-2018_15:29:35 Exp 7316 21 female R 1 3 6 immoralSelf immoralSelf match m m 1 0.4863 
16-May-2018_15:29:37 Exp 7316 21 female R 1 3 7 immoralOther immoralOther match m n 0 0.6326 
16-May-2018_15:29:40 Exp 7316 21 female R 1 3 8 moralOther immoralSelf mismatch n n 1 0.7486 
16-May-2018_15:29:42 Exp 7316 21 female R 1 3 9 moralOther moralOther match m m 1 0.5047 
16-May-2018_15:29:44 Exp 7316 21 female R 1 3 10 immoralOther immoralSelf mismatch n n 1 0.6389 
16-May-2018_15:29:46 Exp 7316 21 female R 1 3 11 immoralSelf moralSelf mismatch n m 0 0.5770 
16-May-2018_15:29:49 Exp 7316 21 female R 1 3 12 moralSelf immoralSelf mismatch n m 0 0.7611 
16-May-2018_15:29:51 Exp 7316 21 female R 1 3 13 immoralOther immoralOther match m n 0 0.5952 
16-May-2018_15:29:53 Exp 7316 21 female R 1 3 14 moralOther moralSelf mismatch n m 0 0.6634 
16-May-2018_15:29:56 Exp 7316 21 female R 1 3 15 moralSelf moralOther mismatch n m 0 0.6935 
16-May-2018_15:29:58 Exp 7316 21 female R 1 3 16 immoralOther immoralOther match m n 0 0.6616 
16-May-2018_15:30:00 Exp 7316 21 female R 1 3 17 moralOther moralSelf mismatch n n 1 0.7077 
16-May-2018_15:30:03 Exp 7316 21 female R 1 3 18 moralSelf immoralOther mismatch n n 1 0.7599 
16-May-2018_15:30:05 Exp 7316 21 female R 1 3 19 immoralSelf immoralOther mismatch n n 1 0.6100 
16-May-2018_15:30:07 Exp 7316 21 female R 1 3 20 moralSelf moralSelf match m m 1 0.6501 
16-May-2018_15:30:09 Exp 7316 21 female R 1 3 21 immoralOther immoralSelf mismatch n m 0 0.6342 
16-May-2018_15:30:12 Exp 7316 21 female R 1 3 22 moralSelf moralSelf match m m 1 0.6864 
16-May-2018_15:30:14 Exp 7316 21 female R 1 3 23 moralOther moralOther match m n 0 0.6085 
16-May-2018_15:30:16 Exp 7316 21 female R 1 3 24 immoralOther immoralSelf mismatch n n 1 0.7287 
16-May-2018_15:30:28 Exp 7316 21 female R 1 4 1 immoralOther immoralOther match m n 0 0.7613 
16-May-2018_15:30:30 Exp 7316 21 female R 1 4 2 moralOther immoralOther mismatch n n 1 0.7875 
16-May-2018_15:30:33 Exp 7316 21 female R 1 4 3 moralSelf moralSelf match m m 1 0.5517 
16-May-2018_15:30:35 Exp 7316 21 female R 1 4 4 moralOther immoralSelf mismatch n n 1 0.5317 
16-May-2018_15:30:37 Exp 7316 21 female R 1 4 5 moralOther moralOther match m n 0 0.5799 
16-May-2018_15:30:39 Exp 7316 21 female R 1 4 6 immoralSelf immoralSelf match m n 0 0.6820 
16-May-2018_15:30:42 Exp 7316 21 female R 1 4 7 immoralOther immoralSelf mismatch n n 1 0.7401 
16-May-2018_15:30:44 Exp 7316 21 female R 1 4 8 immoralSelf immoralSelf match m m 1 0.5302 
16-May-2018_15:30:46 Exp 7316 21 female R 1 4 9 immoralSelf moralOther mismatch n n 1 0.5543 
16-May-2018_15:30:48 Exp 7316 21 female R 1 4 10 moralSelf moralSelf match m m 1 0.5666 
16-May-2018_15:30:51 Exp 7316 21 female R 1 4 11 immoralSelf moralOther mismatch n n 1 0.6886 
16-May-2018_15:30:53 Exp 7316 21 female R 1 4 12 immoralOther immoralOther match m n 0 0.6567 
16-May-2018_15:30:55 Exp 7316 21 female R 1 4 13 moralSelf immoralSelf mismatch n n 1 0.6568 
16-May-2018_15:30:57 Exp 7316 21 female R 1 4 14 immoralSelf immoralSelf match m n 0 0.6811 
16-May-2018_15:31:00 Exp 7316 21 female R 1 4 15 moralOther immoralSelf mismatch n n 1 0.6671 
16-May-2018_15:31:02 Exp 7316 21 female R 1 4 16 moralSelf immoralSelf mismatch n n 1 0.8073 
16-May-2018_15:31:05 Exp 7316 21 female R 1 4 17 immoralOther moralOther mismatch n n 1 0.9114 
16-May-2018_15:31:07 Exp 7316 21 female R 1 4 18 moralSelf moralSelf match m m 1 0.5955 
16-May-2018_15:31:09 Exp 7316 21 female R 1 4 19 moralSelf immoralOther mismatch n n 1 0.7197 
16-May-2018_15:31:12 Exp 7316 21 female R 1 4 20 moralOther moralOther match m m 1 0.7461 
16-May-2018_15:31:14 Exp 7316 21 female R 1 4 21 immoralSelf moralOther mismatch n n 1 0.7120 
16-May-2018_15:31:17 Exp 7316 21 female R 1 4 22 immoralOther immoralOther match m NA -1 1.0850 
16-May-2018_15:31:19 Exp 7316 21 female R 1 4 23 immoralOther immoralSelf mismatch n n 1 0.7022 
16-May-2018_15:31:21 Exp 7316 21 female R 1 4 24 moralOther moralOther match m m 1 0.6604 
16-May-2018_15:31:24 Exp 7316 21 female R 1 5 1 moralOther moralOther match m m 1 0.6745 
16-May-2018_15:31:26 Exp 7316 21 female R 1 5 2 moralOther immoralSelf mismatch n n 1 0.5986 
16-May-2018_15:31:28 Exp 7316 21 female R 1 5 3 moralSelf moralSelf match m m 1 0.6088 
16-May-2018_15:31:30 Exp 7316 21 female R 1 5 4 immoralSelf immoralSelf match m n 0 0.6409 
16-May-2018_15:31:33 Exp 7316 21 female R 1 5 5 immoralSelf immoralSelf match m m 1 0.5310 
16-May-2018_15:31:35 Exp 7316 21 female R 1 5 6 immoralOther immoralSelf mismatch n n 1 0.5552 
16-May-2018_15:31:37 Exp 7316 21 female R 1 5 7 moralOther immoralSelf mismatch n n 1 0.9592 
16-May-2018_15:31:40 Exp 7316 21 female R 1 5 8 moralSelf immoralSelf mismatch n n 1 0.8894 
16-May-2018_15:31:42 Exp 7316 21 female R 1 5 9 immoralOther moralSelf mismatch n n 1 0.9856 
16-May-2018_15:31:45 Exp 7316 21 female R 1 5 10 moralOther moralOther match m m 1 0.7997 
16-May-2018_15:31:47 Exp 7316 21 female R 1 5 11 immoralSelf moralSelf mismatch n n 1 0.7458 
16-May-2018_15:31:50 Exp 7316 21 female R 1 5 12 moralSelf immoralSelf mismatch n n 1 0.7280 
16-May-2018_15:31:52 Exp 7316 21 female R 1 5 13 immoralOther immoralSelf mismatch n n 1 0.8160 
16-May-2018_15:31:54 Exp 7316 21 female R 1 5 14 moralSelf moralSelf match m m 1 0.4723 
16-May-2018_15:31:56 Exp 7316 21 female R 1 5 15 moralOther moralSelf mismatch n n 1 0.6843 
16-May-2018_15:31:59 Exp 7316 21 female R 1 5 16 moralSelf moralSelf match m m 1 0.6385 
16-May-2018_15:32:01 Exp 7316 21 female R 1 5 17 immoralOther immoralOther match m n 0 0.6726 
16-May-2018_15:32:03 Exp 7316 21 female R 1 5 18 moralSelf immoralOther mismatch n n 1 0.6608 
16-May-2018_15:32:06 Exp 7316 21 female R 1 5 19 immoralSelf immoralSelf match m n 0 0.9069 
16-May-2018_15:32:08 Exp 7316 21 female R 1 5 20 moralOther moralOther match m n 0 0.6730 
16-May-2018_15:32:10 Exp 7316 21 female R 1 5 21 immoralOther immoralOther match m n 0 0.6852 
16-May-2018_15:32:13 Exp 7316 21 female R 1 5 22 immoralSelf moralSelf mismatch n n 1 0.6953 
16-May-2018_15:32:15 Exp 7316 21 female R 1 5 23 immoralOther immoralOther match m m 1 0.7754 
16-May-2018_15:32:18 Exp 7316 21 female R 1 5 24 immoralSelf immoralOther mismatch n n 1 0.7436 
16-May-2018_15:32:23 Exp 7316 21 female R 2 1 1 immoralOther immoralOther match m n 0 0.8519 
16-May-2018_15:32:25 Exp 7316 21 female R 2 1 2 moralOther immoralSelf mismatch n n 1 0.6359 
16-May-2018_15:32:28 Exp 7316 21 female R 2 1 3 immoralSelf immoralSelf match m n 0 0.6881 
16-May-2018_15:32:30 Exp 7316 21 female R 2 1 4 immoralOther immoralSelf mismatch n n 1 0.7045 
16-May-2018_15:32:32 Exp 7316 21 female R 2 1 5 moralOther immoralOther mismatch n n 1 0.7984 
16-May-2018_15:32:35 Exp 7316 21 female R 2 1 6 moralOther moralOther match m m 1 0.6485 
16-May-2018_15:32:37 Exp 7316 21 female R 2 1 7 immoralOther immoralOther match m m 1 0.8407 
16-May-2018_15:32:39 Exp 7316 21 female R 2 1 8 moralSelf moralOther mismatch n n 1 0.6748 
16-May-2018_15:32:42 Exp 7316 21 female R 2 1 9 immoralSelf immoralOther mismatch n n 1 0.7269 
16-May-2018_15:32:44 Exp 7316 21 female R 2 1 10 immoralSelf moralSelf mismatch n n 1 0.7531 
16-May-2018_15:32:46 Exp 7316 21 female R 2 1 11 moralSelf moralOther mismatch n n 1 0.6613 
16-May-2018_15:32:49 Exp 7316 21 female R 2 1 12 moralSelf moralSelf match m m 1 0.5233 
16-May-2018_15:32:51 Exp 7316 21 female R 2 1 13 moralSelf immoralSelf mismatch n n 1 0.6056 
16-May-2018_15:32:53 Exp 7316 21 female R 2 1 14 immoralOther moralSelf mismatch n n 1 0.6317 
16-May-2018_15:32:55 Exp 7316 21 female R 2 1 15 moralSelf moralSelf match m m 1 0.7157 
16-May-2018_15:32:58 Exp 7316 21 female R 2 1 16 immoralSelf immoralSelf match m n 0 0.5439 
16-May-2018_15:33:00 Exp 7316 21 female R 2 1 17 immoralOther immoralOther match m m 1 0.7420 
16-May-2018_15:33:02 Exp 7316 21 female R 2 1 18 immoralSelf immoralOther mismatch n n 1 0.7162 
16-May-2018_15:33:05 Exp 7316 21 female R 2 1 19 immoralOther moralOther mismatch n n 1 0.7922 
16-May-2018_15:33:07 Exp 7316 21 female R 2 1 20 moralOther moralOther match m m 1 0.7245 
16-May-2018_15:33:09 Exp 7316 21 female R 2 1 21 immoralSelf immoralSelf match m n 0 0.6225 
16-May-2018_15:33:12 Exp 7316 21 female R 2 1 22 moralOther moralOther match m n 0 0.5807 
16-May-2018_15:33:14 Exp 7316 21 female R 2 1 23 moralOther immoralOther mismatch n n 1 0.6989 
16-May-2018_15:33:16 Exp 7316 21 female R 2 1 24 moralSelf moralSelf match m m 1 0.5609 
16-May-2018_15:33:18 Exp 7316 21 female R 2 2 1 moralSelf moralSelf match m m 1 0.4911 
16-May-2018_15:33:21 Exp 7316 21 female R 2 2 2 moralOther immoralSelf mismatch n m 0 0.7391 
16-May-2018_15:33:23 Exp 7316 21 female R 2 2 3 immoralSelf immoralSelf match m m 1 0.5613 
16-May-2018_15:33:25 Exp 7316 21 female R 2 2 4 moralOther immoralOther mismatch n n 1 0.6754 
16-May-2018_15:33:28 Exp 7316 21 female R 2 2 5 immoralOther immoralSelf mismatch n n 1 1.0236 
16-May-2018_15:33:30 Exp 7316 21 female R 2 2 6 moralSelf immoralOther mismatch n n 1 0.7097 
16-May-2018_15:33:32 Exp 7316 21 female R 2 2 7 immoralOther immoralOther match m m 1 0.6978 
16-May-2018_15:33:35 Exp 7316 21 female R 2 2 8 moralOther moralOther match m m 1 0.5839 
16-May-2018_15:33:37 Exp 7316 21 female R 2 2 9 immoralOther moralSelf mismatch n n 1 0.7261 
16-May-2018_15:33:39 Exp 7316 21 female R 2 2 10 moralOther immoralSelf mismatch n n 1 0.7922 
16-May-2018_15:33:42 Exp 7316 21 female R 2 2 11 moralSelf moralSelf match m m 1 0.5803 
16-May-2018_15:33:44 Exp 7316 21 female R 2 2 12 immoralOther immoralOther match m n 0 0.5625 
16-May-2018_15:33:46 Exp 7316 21 female R 2 2 13 immoralSelf moralOther mismatch n n 1 0.7733 
16-May-2018_15:33:49 Exp 7316 21 female R 2 2 14 immoralSelf immoralSelf match m m 1 0.7969 
16-May-2018_15:33:51 Exp 7316 21 female R 2 2 15 moralSelf immoralSelf mismatch n n 1 0.7290 
16-May-2018_15:33:53 Exp 7316 21 female R 2 2 16 moralOther moralOther match m n 0 0.6090 
16-May-2018_15:33:55 Exp 7316 21 female R 2 2 17 moralOther moralOther match m m 1 0.6251 
16-May-2018_15:33:58 Exp 7316 21 female R 2 2 18 immoralSelf immoralSelf match m n 0 0.6313 
16-May-2018_15:34:00 Exp 7316 21 female R 2 2 19 immoralSelf moralOther mismatch n n 1 0.7633 
16-May-2018_15:34:02 Exp 7316 21 female R 2 2 20 moralSelf moralSelf match m m 1 0.6296 
16-May-2018_15:34:05 Exp 7316 21 female R 2 2 21 immoralSelf immoralOther mismatch n n 1 0.6497 
16-May-2018_15:34:07 Exp 7316 21 female R 2 2 22 immoralOther moralOther mismatch n n 1 0.6018 
16-May-2018_15:34:09 Exp 7316 21 female R 2 2 23 immoralOther immoralOther match m m 1 0.7960 
16-May-2018_15:34:12 Exp 7316 21 female R 2 2 24 moralSelf immoralSelf mismatch n n 1 0.6961 
16-May-2018_15:34:14 Exp 7316 21 female R 2 3 1 moralSelf moralOther mismatch n n 1 0.8322 
16-May-2018_15:34:16 Exp 7316 21 female R 2 3 2 moralOther moralOther match m m 1 0.6843 
16-May-2018_15:34:19 Exp 7316 21 female R 2 3 3 immoralOther immoralOther match m m 1 0.7029 
16-May-2018_15:34:21 Exp 7316 21 female R 2 3 4 moralOther immoralOther mismatch n n 1 0.5886 
16-May-2018_15:34:23 Exp 7316 21 female R 2 3 5 moralOther moralOther match m m 1 0.7047 
16-May-2018_15:34:26 Exp 7316 21 female R 2 3 6 immoralSelf immoralSelf match m m 1 0.7908 
16-May-2018_15:34:28 Exp 7316 21 female R 2 3 7 moralOther moralSelf mismatch n n 1 0.6190 
16-May-2018_15:34:30 Exp 7316 21 female R 2 3 8 immoralSelf immoralOther mismatch n m 0 0.7611 
16-May-2018_15:34:33 Exp 7316 21 female R 2 3 9 immoralSelf immoralSelf match m m 1 0.7712 
16-May-2018_15:34:35 Exp 7316 21 female R 2 3 10 moralSelf moralSelf match m m 1 0.6354 
16-May-2018_15:34:37 Exp 7316 21 female R 2 3 11 immoralSelf immoralSelf match m m 1 0.7196 
16-May-2018_15:34:40 Exp 7316 21 female R 2 3 12 moralOther moralOther match m n 0 0.6338 
16-May-2018_15:34:42 Exp 7316 21 female R 2 3 13 moralSelf moralOther mismatch n n 1 0.7018 
16-May-2018_15:34:44 Exp 7316 21 female R 2 3 14 immoralOther moralSelf mismatch n n 1 0.8039 
16-May-2018_15:34:47 Exp 7316 21 female R 2 3 15 immoralOther moralSelf mismatch n n 1 0.5981 
16-May-2018_15:34:49 Exp 7316 21 female R 2 3 16 immoralOther moralOther mismatch n n 1 0.5682 
16-May-2018_15:34:51 Exp 7316 21 female R 2 3 17 moralSelf moralSelf match m m 1 0.7844 
16-May-2018_15:34:53 Exp 7316 21 female R 2 3 18 moralSelf moralOther mismatch n n 1 0.6224 
16-May-2018_15:34:56 Exp 7316 21 female R 2 3 19 immoralSelf moralSelf mismatch n n 1 0.7326 
16-May-2018_15:34:58 Exp 7316 21 female R 2 3 20 immoralSelf moralSelf mismatch n n 1 0.7327 
16-May-2018_15:35:00 Exp 7316 21 female R 2 3 21 moralSelf moralSelf match m m 1 0.6369 
16-May-2018_15:35:03 Exp 7316 21 female R 2 3 22 moralOther immoralOther mismatch n n 1 0.8970 
16-May-2018_15:35:05 Exp 7316 21 female R 2 3 23 immoralOther immoralOther match m m 1 0.7191 
16-May-2018_15:35:08 Exp 7316 21 female R 2 3 24 immoralOther immoralOther match m m 1 0.7373 
16-May-2018_15:35:15 Exp 7316 21 female R 2 4 1 immoralSelf immoralSelf match m n 0 0.6756 
16-May-2018_15:35:17 Exp 7316 21 female R 2 4 2 immoralOther immoralOther match m n 0 0.6315 
16-May-2018_15:35:20 Exp 7316 21 female R 2 4 3 immoralOther immoralOther match m m 1 0.6039 
16-May-2018_15:35:22 Exp 7316 21 female R 2 4 4 immoralOther immoralSelf mismatch n n 1 0.6381 
16-May-2018_15:35:24 Exp 7316 21 female R 2 4 5 moralOther moralOther match m n 0 0.6082 
16-May-2018_15:35:27 Exp 7316 21 female R 2 4 6 immoralOther moralOther mismatch n n 1 0.8883 
16-May-2018_15:35:29 Exp 7316 21 female R 2 4 7 immoralSelf moralSelf mismatch n n 1 0.8965 
16-May-2018_15:35:31 Exp 7316 21 female R 2 4 8 moralOther immoralSelf mismatch n m 0 0.7126 
16-May-2018_15:35:34 Exp 7316 21 female R 2 4 9 moralOther moralSelf mismatch n n 1 0.8208 
16-May-2018_15:35:36 Exp 7316 21 female R 2 4 10 immoralSelf moralOther mismatch n n 1 0.8508 
16-May-2018_15:35:39 Exp 7316 21 female R 2 4 11 moralSelf immoralOther mismatch n n 1 0.6430 
16-May-2018_15:35:41 Exp 7316 21 female R 2 4 12 immoralSelf immoralSelf match m n 0 0.6851 
16-May-2018_15:35:43 Exp 7316 21 female R 2 4 13 immoralOther moralOther mismatch n n 1 0.7914 
16-May-2018_15:35:46 Exp 7316 21 female R 2 4 14 moralSelf moralSelf match m m 1 0.5314 
16-May-2018_15:35:48 Exp 7316 21 female R 2 4 15 moralSelf moralSelf match m m 1 0.5395 
16-May-2018_15:35:50 Exp 7316 21 female R 2 4 16 moralOther moralOther match m n 0 0.6976 
16-May-2018_15:35:52 Exp 7316 21 female R 2 4 17 moralSelf immoralOther mismatch n n 1 0.5838 
16-May-2018_15:35:55 Exp 7316 21 female R 2 4 18 moralOther immoralSelf mismatch n n 1 0.6700 
16-May-2018_15:35:57 Exp 7316 21 female R 2 4 19 immoralSelf immoralSelf match m m 1 0.7460 
16-May-2018_15:35:59 Exp 7316 21 female R 2 4 20 moralSelf moralSelf match m m 1 0.6081 
16-May-2018_15:36:01 Exp 7316 21 female R 2 4 21 immoralSelf moralOther mismatch n n 1 0.5763 
16-May-2018_15:36:04 Exp 7316 21 female R 2 4 22 moralOther moralOther match m m 1 0.6245 
16-May-2018_15:36:06 Exp 7316 21 female R 2 4 23 immoralOther immoralOther match m n 0 0.6944 
16-May-2018_15:36:08 Exp 7316 21 female R 2 4 24 moralSelf moralOther mismatch n n 1 0.6710 
16-May-2018_15:36:11 Exp 7316 21 female R 2 5 1 immoralSelf immoralSelf match m m 1 0.8988 
16-May-2018_15:36:13 Exp 7316 21 female R 2 5 2 immoralOther immoralSelf mismatch n m 0 0.8729 
16-May-2018_15:36:15 Exp 7316 21 female R 2 5 3 moralSelf moralSelf match m m 1 0.5972 
16-May-2018_15:36:18 Exp 7316 21 female R 2 5 4 immoralSelf immoralSelf match m m 1 0.7192 
16-May-2018_15:36:20 Exp 7316 21 female R 2 5 5 moralSelf moralSelf match m m 1 0.6175 
16-May-2018_15:36:23 Exp 7316 21 female R 2 5 6 immoralOther moralSelf mismatch n n 1 0.8075 
16-May-2018_15:36:25 Exp 7316 21 female R 2 5 7 immoralSelf immoralSelf match m m 1 0.7356 
16-May-2018_15:36:27 Exp 7316 21 female R 2 5 8 moralSelf immoralOther mismatch n n 1 0.6478 
16-May-2018_15:36:30 Exp 7316 21 female R 2 5 9 moralOther immoralOther mismatch n n 1 0.8319 
16-May-2018_15:36:32 Exp 7316 21 female R 2 5 10 immoralSelf moralOther mismatch n n 1 0.7561 
16-May-2018_15:36:34 Exp 7316 21 female R 2 5 11 moralOther moralOther match m n 0 0.6483 
16-May-2018_15:36:37 Exp 7316 21 female R 2 5 12 moralOther moralOther match m m 1 0.6083 
16-May-2018_15:36:39 Exp 7316 21 female R 2 5 13 moralOther immoralOther mismatch n n 1 0.7444 
16-May-2018_15:36:41 Exp 7316 21 female R 2 5 14 immoralSelf immoralOther mismatch n n 1 0.8146 
16-May-2018_15:36:44 Exp 7316 21 female R 2 5 15 moralSelf moralSelf match m m 1 0.5828 
16-May-2018_15:36:46 Exp 7316 21 female R 2 5 16 moralSelf immoralOther mismatch n n 1 0.6048 
16-May-2018_15:36:48 Exp 7316 21 female R 2 5 17 immoralOther immoralOther match m n 0 0.9510 
16-May-2018_15:36:51 Exp 7316 21 female R 2 5 18 immoralSelf moralOther mismatch n n 1 0.7472 
16-May-2018_15:36:53 Exp 7316 21 female R 2 5 19 moralOther moralOther match m m 1 0.7193 
16-May-2018_15:36:56 Exp 7316 21 female R 2 5 20 moralOther immoralOther mismatch n n 1 0.8815 
16-May-2018_15:36:58 Exp 7316 21 female R 2 5 21 immoralOther moralOther mismatch n n 1 0.8836 
16-May-2018_15:37:01 Exp 7316 21 female R 2 5 22 immoralOther immoralOther match m m 1 0.8536 
16-May-2018_15:37:03 Exp 7316 21 female R 2 5 23 immoralOther immoralOther match m m 1 0.7979 
16-May-2018_15:37:05 Exp 7316 21 female R 2 5 24 moralSelf moralOther mismatch n m 0 0.7681 
16-May-2018_15:37:11 Exp 7316 21 female R 3 1 1 moralSelf moralSelf match m m 1 0.6344 
16-May-2018_15:37:13 Exp 7316 21 female R 3 1 2 immoralSelf immoralSelf match m n 0 0.7424 
16-May-2018_15:37:15 Exp 7316 21 female R 3 1 3 immoralOther immoralOther match m n 0 0.6686 
16-May-2018_15:37:18 Exp 7316 21 female R 3 1 4 immoralSelf moralSelf mismatch n n 1 0.9207 
16-May-2018_15:37:20 Exp 7316 21 female R 3 1 5 moralSelf moralSelf match m m 1 0.6188 
16-May-2018_15:37:23 Exp 7316 21 female R 3 1 6 moralOther immoralSelf mismatch n n 1 0.8409 
16-May-2018_15:37:25 Exp 7316 21 female R 3 1 7 moralOther immoralOther mismatch n n 1 0.9631 
16-May-2018_15:37:28 Exp 7316 21 female R 3 1 8 immoralOther moralOther mismatch n n 1 0.8773 
16-May-2018_15:37:30 Exp 7316 21 female R 3 1 9 moralOther moralOther match m m 1 0.7273 
16-May-2018_15:37:32 Exp 7316 21 female R 3 1 10 immoralSelf moralOther mismatch n n 1 0.6236 
16-May-2018_15:37:35 Exp 7316 21 female R 3 1 11 immoralOther immoralOther match m m 1 0.7576 
16-May-2018_15:37:37 Exp 7316 21 female R 3 1 12 moralSelf immoralOther mismatch n n 1 0.6558 
16-May-2018_15:37:39 Exp 7316 21 female R 3 1 13 immoralOther immoralOther match m n 0 0.8478 
16-May-2018_15:37:42 Exp 7316 21 female R 3 1 14 moralOther moralSelf mismatch n n 1 0.8880 
16-May-2018_15:37:45 Exp 7316 21 female R 3 1 15 immoralSelf immoralSelf match m m 1 1.0242 
16-May-2018_15:37:47 Exp 7316 21 female R 3 1 16 moralSelf moralOther mismatch n n 1 0.9183 
16-May-2018_15:37:50 Exp 7316 21 female R 3 1 17 immoralSelf immoralSelf match m m 1 0.7844 
16-May-2018_15:37:52 Exp 7316 21 female R 3 1 18 moralOther moralOther match m n 0 0.7106 
16-May-2018_15:37:54 Exp 7316 21 female R 3 1 19 immoralOther moralOther mismatch n n 1 0.7068 
16-May-2018_15:37:57 Exp 7316 21 female R 3 1 20 moralSelf moralSelf match m m 1 0.7049 
16-May-2018_15:37:59 Exp 7316 21 female R 3 1 21 immoralSelf moralOther mismatch n n 1 1.0470 
16-May-2018_15:38:02 Exp 7316 21 female R 3 1 22 moralOther moralOther match m m 1 0.7032 
16-May-2018_15:38:04 Exp 7316 21 female R 3 1 23 immoralOther moralOther mismatch n n 1 0.6533 
16-May-2018_15:38:06 Exp 7316 21 female R 3 1 24 moralSelf immoralOther mismatch n n 1 0.7414 
16-May-2018_15:38:08 Exp 7316 21 female R 3 2 1 moralSelf moralSelf match m m 1 0.5875 
16-May-2018_15:38:11 Exp 7316 21 female R 3 2 2 moralOther immoralSelf mismatch n n 1 0.7597 
16-May-2018_15:38:13 Exp 7316 21 female R 3 2 3 immoralOther moralSelf mismatch n n 1 0.6258 
16-May-2018_15:38:15 Exp 7316 21 female R 3 2 4 moralSelf moralSelf match m m 1 0.5599 
16-May-2018_15:38:18 Exp 7316 21 female R 3 2 5 moralOther moralSelf mismatch n n 1 0.6341 
16-May-2018_15:38:20 Exp 7316 21 female R 3 2 6 moralSelf moralSelf match m m 1 0.5581 
16-May-2018_15:38:22 Exp 7316 21 female R 3 2 7 moralOther immoralSelf mismatch n n 1 0.5678 
16-May-2018_15:38:24 Exp 7316 21 female R 3 2 8 moralOther moralOther match m n 0 0.5605 
16-May-2018_15:38:27 Exp 7316 21 female R 3 2 9 immoralSelf immoralSelf match m m 1 0.7865 
16-May-2018_15:38:29 Exp 7316 21 female R 3 2 10 immoralSelf moralOther mismatch n n 1 0.6007 
16-May-2018_15:38:31 Exp 7316 21 female R 3 2 11 immoralOther moralOther mismatch n n 1 0.6988 
16-May-2018_15:38:34 Exp 7316 21 female R 3 2 12 immoralSelf moralSelf mismatch n n 1 0.8089 
16-May-2018_15:38:36 Exp 7316 21 female R 3 2 13 moralSelf immoralSelf mismatch n n 1 1.0011 
16-May-2018_15:38:39 Exp 7316 21 female R 3 2 14 moralOther moralOther match m n 0 0.7233 
16-May-2018_15:38:41 Exp 7316 21 female R 3 2 15 immoralSelf immoralOther mismatch n n 1 0.9893 
16-May-2018_15:38:44 Exp 7316 21 female R 3 2 16 moralSelf immoralSelf mismatch n n 1 1.0255 
16-May-2018_15:38:46 Exp 7316 21 female R 3 2 17 immoralSelf immoralSelf match m m 1 0.8796 
16-May-2018_15:38:49 Exp 7316 21 female R 3 2 18 immoralOther immoralOther match m NA -1 1.0850 
16-May-2018_15:38:51 Exp 7316 21 female R 3 2 19 moralSelf immoralSelf mismatch n n 1 0.6840 
16-May-2018_15:38:54 Exp 7316 21 female R 3 2 20 immoralOther immoralSelf mismatch n n 1 0.8141 
16-May-2018_15:38:56 Exp 7316 21 female R 3 2 21 immoralSelf immoralSelf match m n 0 0.7422 
16-May-2018_15:38:59 Exp 7316 21 female R 3 2 22 immoralOther immoralOther match m m 1 0.7166 
16-May-2018_15:39:01 Exp 7316 21 female R 3 2 23 moralOther moralOther match m m 1 0.8165 
16-May-2018_15:39:03 Exp 7316 21 female R 3 2 24 immoralOther immoralOther match m m 1 0.6727 
16-May-2018_15:39:06 Exp 7316 21 female R 3 3 1 immoralOther immoralOther match m m 1 0.8450 
16-May-2018_15:39:08 Exp 7316 21 female R 3 3 2 moralOther moralOther match m m 1 0.5669 
16-May-2018_15:39:11 Exp 7316 21 female R 3 3 3 moralOther moralSelf mismatch n n 1 1.0651 
16-May-2018_15:39:13 Exp 7316 21 female R 3 3 4 immoralOther moralOther mismatch n m 0 0.6633 
16-May-2018_15:39:15 Exp 7316 21 female R 3 3 5 immoralOther moralSelf mismatch n n 1 0.8933 
16-May-2018_15:39:18 Exp 7316 21 female R 3 3 6 moralOther immoralSelf mismatch n n 1 0.9415 
16-May-2018_15:39:20 Exp 7316 21 female R 3 3 7 moralOther moralSelf mismatch n n 1 0.8036 
16-May-2018_15:39:23 Exp 7316 21 female R 3 3 8 moralSelf immoralOther mismatch n n 1 0.7097 
16-May-2018_15:39:25 Exp 7316 21 female R 3 3 9 moralOther moralOther match m m 1 0.9222 
16-May-2018_15:39:28 Exp 7316 21 female R 3 3 10 immoralSelf immoralSelf match m n 0 0.6522 
16-May-2018_15:39:30 Exp 7316 21 female R 3 3 11 moralSelf immoralOther mismatch n n 1 0.7402 
16-May-2018_15:39:33 Exp 7316 21 female R 3 3 12 immoralOther immoralOther match m m 1 0.9383 
16-May-2018_15:39:35 Exp 7316 21 female R 3 3 13 immoralSelf moralSelf mismatch n n 1 0.6644 
16-May-2018_15:39:37 Exp 7316 21 female R 3 3 14 immoralOther moralSelf mismatch n n 1 0.7425 
16-May-2018_15:39:40 Exp 7316 21 female R 3 3 15 moralOther moralOther match m m 1 0.9247 
16-May-2018_15:39:42 Exp 7316 21 female R 3 3 16 moralSelf immoralOther mismatch n n 1 0.5909 
16-May-2018_15:39:44 Exp 7316 21 female R 3 3 17 moralSelf moralSelf match m m 1 0.7230 
16-May-2018_15:39:47 Exp 7316 21 female R 3 3 18 immoralOther immoralOther match m m 1 0.9172 
16-May-2018_15:39:49 Exp 7316 21 female R 3 3 19 immoralSelf moralOther mismatch n n 1 0.8792 
16-May-2018_15:39:52 Exp 7316 21 female R 3 3 20 immoralSelf immoralSelf match m m 1 0.7695 
16-May-2018_15:39:54 Exp 7316 21 female R 3 3 21 immoralSelf immoralSelf match m n 0 0.7935 
16-May-2018_15:39:56 Exp 7316 21 female R 3 3 22 moralSelf moralSelf match m m 1 0.6537 
16-May-2018_15:39:59 Exp 7316 21 female R 3 3 23 immoralSelf moralOther mismatch n n 1 0.6778 
16-May-2018_15:40:01 Exp 7316 21 female R 3 3 24 moralSelf moralSelf match m m 1 0.8080 
16-May-2018_15:40:11 Exp 7316 21 female R 3 4 1 immoralSelf immoralSelf match m n 0 0.8105 
16-May-2018_15:40:14 Exp 7316 21 female R 3 4 2 moralOther moralSelf mismatch n n 1 0.7546 
16-May-2018_15:40:16 Exp 7316 21 female R 3 4 3 immoralSelf moralSelf mismatch n n 1 0.7909 
16-May-2018_15:40:18 Exp 7316 21 female R 3 4 4 moralSelf moralOther mismatch n n 1 0.7150 
16-May-2018_15:40:21 Exp 7316 21 female R 3 4 5 moralOther immoralOther mismatch n n 1 0.9992 
16-May-2018_15:40:23 Exp 7316 21 female R 3 4 6 immoralOther immoralOther match m m 1 0.6492 
16-May-2018_15:40:26 Exp 7316 21 female R 3 4 7 moralSelf immoralOther mismatch n n 1 0.6814 
16-May-2018_15:40:28 Exp 7316 21 female R 3 4 8 moralOther immoralSelf mismatch n n 1 0.7315 
16-May-2018_15:40:30 Exp 7316 21 female R 3 4 9 moralSelf moralSelf match m m 1 0.6597 
16-May-2018_15:40:32 Exp 7316 21 female R 3 4 10 immoralOther immoralSelf mismatch n n 1 0.6977 
16-May-2018_15:40:35 Exp 7316 21 female R 3 4 11 immoralSelf moralOther mismatch n n 1 0.7918 
16-May-2018_15:40:37 Exp 7316 21 female R 3 4 12 moralOther moralOther match m m 1 0.6600 
16-May-2018_15:40:40 Exp 7316 21 female R 3 4 13 immoralOther moralSelf mismatch n n 1 0.8741 
16-May-2018_15:40:42 Exp 7316 21 female R 3 4 14 moralSelf moralSelf match m m 1 0.6703 
16-May-2018_15:40:44 Exp 7316 21 female R 3 4 15 immoralOther immoralOther match m n 0 0.5544 
16-May-2018_15:40:46 Exp 7316 21 female R 3 4 16 moralOther moralOther match m n 0 0.6707 
16-May-2018_15:40:49 Exp 7316 21 female R 3 4 17 moralOther moralOther match m n 0 0.6427 
16-May-2018_15:40:51 Exp 7316 21 female R 3 4 18 immoralOther immoralSelf mismatch n n 1 0.8128 
16-May-2018_15:40:54 Exp 7316 21 female R 3 4 19 immoralSelf immoralSelf match m m 1 0.8370 
16-May-2018_15:40:56 Exp 7316 21 female R 3 4 20 immoralOther immoralOther match m m 1 0.7850 
16-May-2018_15:40:58 Exp 7316 21 female R 3 4 21 moralSelf moralOther mismatch n m 0 0.5992 
16-May-2018_15:41:01 Exp 7316 21 female R 3 4 22 immoralSelf moralSelf mismatch n n 1 0.7134 
16-May-2018_15:41:03 Exp 7316 21 female R 3 4 23 immoralSelf immoralSelf match m m 1 0.6695 
16-May-2018_15:41:05 Exp 7316 21 female R 3 4 24 moralSelf moralSelf match m m 1 0.6817 
16-May-2018_15:41:07 Exp 7316 21 female R 3 5 1 immoralSelf immoralSelf match m m 1 0.6278 
16-May-2018_15:41:10 Exp 7316 21 female R 3 5 2 moralOther immoralOther mismatch n n 1 0.6559 
16-May-2018_15:41:12 Exp 7316 21 female R 3 5 3 immoralOther moralSelf mismatch n n 1 0.7600 
16-May-2018_15:41:15 Exp 7316 21 female R 3 5 4 moralOther moralOther match m m 1 0.7622 
16-May-2018_15:41:17 Exp 7316 21 female R 3 5 5 immoralOther moralSelf mismatch n n 1 0.7643 
16-May-2018_15:41:19 Exp 7316 21 female R 3 5 6 immoralOther immoralOther match m m 1 0.7744 
16-May-2018_15:41:22 Exp 7316 21 female R 3 5 7 immoralSelf immoralOther mismatch n n 1 0.8385 
16-May-2018_15:41:24 Exp 7316 21 female R 3 5 8 moralSelf moralSelf match m m 1 0.6887 
16-May-2018_15:41:26 Exp 7316 21 female R 3 5 9 moralSelf immoralSelf mismatch n n 1 0.7049 
16-May-2018_15:41:29 Exp 7316 21 female R 3 5 10 moralSelf moralSelf match m m 1 0.5990 
16-May-2018_15:41:31 Exp 7316 21 female R 3 5 11 moralOther moralOther match m n 0 0.6011 
16-May-2018_15:41:33 Exp 7316 21 female R 3 5 12 immoralOther moralOther mismatch n n 1 0.8434 
16-May-2018_15:41:36 Exp 7316 21 female R 3 5 13 immoralSelf immoralSelf match m m 1 0.8214 
16-May-2018_15:41:38 Exp 7316 21 female R 3 5 14 moralSelf moralSelf match m m 1 0.6835 
16-May-2018_15:41:41 Exp 7316 21 female R 3 5 15 moralOther immoralOther mismatch n n 1 0.7736 
16-May-2018_15:41:43 Exp 7316 21 female R 3 5 16 immoralSelf moralSelf mismatch n n 1 0.9817 
16-May-2018_15:41:46 Exp 7316 21 female R 3 5 17 moralOther moralOther match m m 1 0.8760 
16-May-2018_15:41:48 Exp 7316 21 female R 3 5 18 immoralSelf immoralSelf match m m 1 0.8321 
16-May-2018_15:41:51 Exp 7316 21 female R 3 5 19 immoralOther immoralOther match m m 1 0.8762 
16-May-2018_15:41:53 Exp 7316 21 female R 3 5 20 moralOther immoralSelf mismatch n n 1 0.7443 
16-May-2018_15:41:55 Exp 7316 21 female R 3 5 21 moralSelf moralOther mismatch n n 1 0.7825 
16-May-2018_15:41:58 Exp 7316 21 female R 3 5 22 moralSelf immoralOther mismatch n n 1 0.7250 
16-May-2018_15:42:00 Exp 7316 21 female R 3 5 23 immoralSelf moralSelf mismatch n n 1 0.8707 
16-May-2018_15:42:03 Exp 7316 21 female R 3 5 24 immoralOther immoralOther match m m 1 0.7550 
Date Prac Sub Age Sex Hand Block Bin Trial Shape Label Match CorrResp Resp ACC RT
16-May-2018_15:46:42 Exp 7316 21 female R 1 1 1 immoralOther moralSelf mismatch n n 1 0.8848 
16-May-2018_15:46:45 Exp 7316 21 female R 1 1 2 immoralOther immoralOther match m m 1 0.7009 
16-May-2018_15:46:47 Exp 7316 21 female R 1 1 3 immoralSelf immoralSelf match m m 1 0.8751 
16-May-2018_15:46:49 Exp 7316 21 female R 1 1 4 moralSelf immoralSelf mismatch n n 1 0.6792 
16-May-2018_15:46:52 Exp 7316 21 female R 1 1 5 moralOther moralOther match m m 1 0.7293 
16-May-2018_15:46:54 Exp 7316 21 female R 1 1 6 immoralSelf immoralOther mismatch n n 1 0.6495 
16-May-2018_15:46:57 Exp 7316 21 female R 1 1 7 moralOther moralOther match m m 1 0.9456 
16-May-2018_15:46:59 Exp 7316 21 female R 1 1 8 moralOther immoralOther mismatch n n 1 0.6078 
16-May-2018_15:47:01 Exp 7316 21 female R 1 1 9 immoralSelf immoralSelf match m m 1 0.7039 
16-May-2018_15:47:03 Exp 7316 21 female R 1 1 10 moralSelf moralSelf match m m 1 0.5020 
16-May-2018_15:47:06 Exp 7316 21 female R 1 1 11 moralSelf moralSelf match m m 1 0.4922 
16-May-2018_15:47:08 Exp 7316 21 female R 1 1 12 immoralOther immoralSelf mismatch n n 1 0.7323 
16-May-2018_15:47:10 Exp 7316 21 female R 1 1 13 immoralSelf moralSelf mismatch n n 1 0.9403 
16-May-2018_15:47:13 Exp 7316 21 female R 1 1 14 moralSelf immoralOther mismatch n n 1 0.6825 
16-May-2018_15:47:15 Exp 7316 21 female R 1 1 15 moralOther moralSelf mismatch n m 0 0.6128 
16-May-2018_15:47:18 Exp 7316 21 female R 1 1 16 moralSelf moralOther mismatch n n 1 0.8848 
16-May-2018_15:47:20 Exp 7316 21 female R 1 1 17 immoralOther immoralOther match m m 1 0.6950 
16-May-2018_15:47:22 Exp 7316 21 female R 1 1 18 moralOther immoralOther mismatch n n 1 0.8690 
16-May-2018_15:47:25 Exp 7316 21 female R 1 1 19 immoralOther moralOther mismatch n n 1 0.9933 
16-May-2018_15:47:27 Exp 7316 21 female R 1 1 20 immoralSelf immoralSelf match m m 1 0.8853 
16-May-2018_15:47:30 Exp 7316 21 female R 1 1 21 moralSelf moralSelf match m m 1 0.5434 
16-May-2018_15:47:32 Exp 7316 21 female R 1 1 22 immoralSelf moralOther mismatch n n 1 0.6456 
16-May-2018_15:47:34 Exp 7316 21 female R 1 1 23 moralOther moralOther match m m 1 0.6718 
16-May-2018_15:47:37 Exp 7316 21 female R 1 1 24 immoralOther immoralOther match m m 1 0.8279 
16-May-2018_15:47:39 Exp 7316 21 female R 1 2 1 immoralOther immoralOther match m m 1 0.6881 
16-May-2018_15:47:41 Exp 7316 21 female R 1 2 2 immoralOther immoralSelf mismatch n n 1 0.7442 
16-May-2018_15:47:44 Exp 7316 21 female R 1 2 3 immoralSelf immoralSelf match m n 0 0.8942 
16-May-2018_15:47:46 Exp 7316 21 female R 1 2 4 moralSelf moralSelf match m m 1 0.4785 
16-May-2018_15:47:48 Exp 7316 21 female R 1 2 5 immoralOther immoralSelf mismatch n n 1 0.7445 
16-May-2018_15:47:51 Exp 7316 21 female R 1 2 6 immoralSelf moralOther mismatch n n 1 0.8147 
16-May-2018_15:47:53 Exp 7316 21 female R 1 2 7 moralOther moralSelf mismatch n n 1 0.7748 
16-May-2018_15:47:56 Exp 7316 21 female R 1 2 8 moralOther moralOther match m m 1 0.9509 
16-May-2018_15:47:58 Exp 7316 21 female R 1 2 9 immoralOther moralOther mismatch n n 1 0.7071 
16-May-2018_15:48:01 Exp 7316 21 female R 1 2 10 moralOther immoralSelf mismatch n n 1 0.8233 
16-May-2018_15:48:03 Exp 7316 21 female R 1 2 11 immoralSelf immoralOther mismatch n n 1 0.7734 
16-May-2018_15:48:05 Exp 7316 21 female R 1 2 12 immoralOther immoralOther match m m 1 0.7096 
16-May-2018_15:48:08 Exp 7316 21 female R 1 2 13 immoralOther immoralOther match m m 1 0.7937 
16-May-2018_15:48:10 Exp 7316 21 female R 1 2 14 moralOther moralOther match m m 1 0.6379 
16-May-2018_15:48:12 Exp 7316 21 female R 1 2 15 moralSelf immoralSelf mismatch n n 1 0.6479 
16-May-2018_15:48:15 Exp 7316 21 female R 1 2 16 moralSelf moralSelf match m m 1 0.6322 
16-May-2018_15:48:17 Exp 7316 21 female R 1 2 17 immoralSelf immoralSelf match m m 1 0.7242 
16-May-2018_15:48:19 Exp 7316 21 female R 1 2 18 moralOther moralOther match m n 0 0.5983 
16-May-2018_15:48:22 Exp 7316 21 female R 1 2 19 immoralSelf immoralSelf match m NA -1 1.0850 
16-May-2018_15:48:24 Exp 7316 21 female R 1 2 20 moralOther moralSelf mismatch n n 1 0.7226 
16-May-2018_15:48:26 Exp 7316 21 female R 1 2 21 moralSelf immoralOther mismatch n n 1 0.6607 
16-May-2018_15:48:29 Exp 7316 21 female R 1 2 22 moralSelf moralSelf match m m 1 0.5549 
16-May-2018_15:48:31 Exp 7316 21 female R 1 2 23 immoralSelf moralOther mismatch n n 1 0.8550 
16-May-2018_15:48:34 Exp 7316 21 female R 1 2 24 moralSelf moralOther mismatch n n 1 0.8150 
Date Prac Sub Age Sex Hand Block Bin Trial Shape Label Match CorrResp Resp ACC RT
16-May-2018_15:52:50 Exp 7316 21 female R 1 1 1 immoralOther immoralOther match m m 1 0.8458 
16-May-2018_15:52:53 Exp 7316 21 female R 1 1 2 moralSelf moralOther mismatch n n 1 0.9499 
16-May-2018_15:52:55 Exp 7316 21 female R 1 1 3 immoralSelf immoralSelf match m m 1 0.7060 
16-May-2018_15:52:58 Exp 7316 21 female R 1 1 4 moralSelf immoralOther mismatch n n 1 0.8642 
16-May-2018_15:53:00 Exp 7316 21 female R 1 1 5 immoralSelf immoralSelf match m m 1 0.7423 
16-May-2018_15:53:02 Exp 7316 21 female R 1 1 6 moralSelf moralSelf match m m 1 0.6445 
16-May-2018_15:53:05 Exp 7316 21 female R 1 1 7 immoralOther moralOther mismatch n n 1 0.7986 
16-May-2018_15:53:07 Exp 7316 21 female R 1 1 8 moralOther moralOther match m m 1 0.7847 
16-May-2018_15:53:10 Exp 7316 21 female R 1 1 9 immoralOther immoralSelf mismatch n n 1 0.9508 
16-May-2018_15:53:12 Exp 7316 21 female R 1 1 10 moralOther immoralOther mismatch n n 1 0.8187 
16-May-2018_15:53:15 Exp 7316 21 female R 1 1 11 immoralOther immoralOther match m m 1 0.8494 
16-May-2018_15:53:17 Exp 7316 21 female R 1 1 12 moralOther immoralSelf mismatch n n 1 0.6973 
16-May-2018_15:53:19 Exp 7316 21 female R 1 1 13 moralSelf moralSelf match m m 1 0.6314 
16-May-2018_15:53:21 Exp 7316 21 female R 1 1 14 immoralOther immoralSelf mismatch n n 1 0.5876 
16-May-2018_15:53:24 Exp 7316 21 female R 1 1 15 immoralSelf immoralSelf match m m 1 0.6876 
16-May-2018_15:53:26 Exp 7316 21 female R 1 1 16 moralOther moralOther match m n 0 0.5998 
16-May-2018_15:53:28 Exp 7316 21 female R 1 1 17 immoralOther immoralOther match m m 1 0.7379 
16-May-2018_15:53:31 Exp 7316 21 female R 1 1 18 moralOther moralSelf mismatch n n 1 0.6960 
16-May-2018_15:53:33 Exp 7316 21 female R 1 1 19 moralSelf moralSelf match m m 1 0.5842 
16-May-2018_15:53:35 Exp 7316 21 female R 1 1 20 immoralSelf moralOther mismatch n n 1 0.8382 
16-May-2018_15:53:38 Exp 7316 21 female R 1 1 21 moralSelf immoralSelf mismatch n n 1 0.7684 
16-May-2018_15:53:40 Exp 7316 21 female R 1 1 22 immoralSelf moralOther mismatch n n 1 0.7606 
16-May-2018_15:53:42 Exp 7316 21 female R 1 1 23 moralOther moralOther match m m 1 0.7067 
16-May-2018_15:53:45 Exp 7316 21 female R 1 1 24 immoralSelf moralOther mismatch n n 1 0.6888 
16-May-2018_15:53:47 Exp 7316 21 female R 1 2 1 immoralOther immoralSelf mismatch n m 0 0.8569 
16-May-2018_15:53:50 Exp 7316 21 female R 1 2 2 moralSelf moralSelf match m m 1 0.8571 
16-May-2018_15:53:52 Exp 7316 21 female R 1 2 3 moralSelf immoralOther mismatch n n 1 0.6472 
16-May-2018_15:53:54 Exp 7316 21 female R 1 2 4 immoralOther immoralOther match m m 1 0.5994 
16-May-2018_15:53:57 Exp 7316 21 female R 1 2 5 moralOther moralOther match m m 1 0.7375 
16-May-2018_15:53:59 Exp 7316 21 female R 1 2 6 moralSelf moralSelf match m m 1 0.6796 
16-May-2018_15:54:01 Exp 7316 21 female R 1 2 7 immoralOther immoralSelf mismatch n n 1 0.6259 
16-May-2018_15:54:03 Exp 7316 21 female R 1 2 8 immoralOther immoralOther match m m 1 0.6079 
16-May-2018_15:54:06 Exp 7316 21 female R 1 2 9 immoralSelf moralSelf mismatch n m 0 0.8800 
16-May-2018_15:54:08 Exp 7316 21 female R 1 2 10 moralOther immoralOther mismatch n n 1 0.8982 
16-May-2018_15:54:11 Exp 7316 21 female R 1 2 11 moralSelf moralOther mismatch n m 0 0.5843 
16-May-2018_15:54:13 Exp 7316 21 female R 1 2 12 immoralSelf immoralSelf match m NA -1 1.0850 
16-May-2018_15:54:16 Exp 7316 21 female R 1 2 13 moralSelf immoralSelf mismatch n n 1 0.7287 
16-May-2018_15:54:18 Exp 7316 21 female R 1 2 14 immoralSelf immoralOther mismatch n n 1 0.5607 
16-May-2018_15:54:20 Exp 7316 21 female R 1 2 15 immoralSelf immoralSelf match m m 1 0.7869 
16-May-2018_15:54:23 Exp 7316 21 female R 1 2 16 moralOther moralOther match m m 1 0.8650 
16-May-2018_15:54:25 Exp 7316 21 female R 1 2 17 immoralSelf moralOther mismatch n n 1 0.8391 
16-May-2018_15:54:28 Exp 7316 21 female R 1 2 18 moralOther immoralSelf mismatch n n 1 0.7773 
16-May-2018_15:54:30 Exp 7316 21 female R 1 2 19 immoralOther immoralOther match m n 0 0.8154 
16-May-2018_15:54:32 Exp 7316 21 female R 1 2 20 moralOther moralOther match m m 1 0.7195 
16-May-2018_15:54:35 Exp 7316 21 female R 1 2 21 moralOther immoralOther mismatch n m 0 0.8738 
16-May-2018_15:54:37 Exp 7316 21 female R 1 2 22 immoralOther immoralSelf mismatch n n 1 0.8538 
16-May-2018_15:54:40 Exp 7316 21 female R 1 2 23 moralSelf moralSelf match m m 1 0.6619 
16-May-2018_15:54:42 Exp 7316 21 female R 1 2 24 immoralSelf immoralSelf match m n 0 0.6521 
Date Prac Sub Age Sex Hand Block Bin Trial Shape Label Match CorrResp Resp ACC RT
16-May-2018_15:59:02 Exp 7316 21 female R 1 1 1 moralOther moralOther match m m 1 0.6868 
16-May-2018_15:59:04 Exp 7316 21 female R 1 1 2 immoralSelf immoralOther mismatch n n 1 0.6810 
16-May-2018_15:59:06 Exp 7316 21 female R 1 1 3 immoralOther immoralOther match m m 1 0.6911 
16-May-2018_15:59:08 Exp 7316 21 female R 1 1 4 moralSelf moralSelf match m m 1 0.5232 
16-May-2018_15:59:11 Exp 7316 21 female R 1 1 5 immoralSelf moralOther mismatch n n 1 0.7014 
16-May-2018_15:59:13 Exp 7316 21 female R 1 1 6 moralSelf immoralSelf mismatch n n 1 0.7315 
16-May-2018_15:59:15 Exp 7316 21 female R 1 1 7 moralSelf moralOther mismatch n n 1 0.6596 
16-May-2018_15:59:18 Exp 7316 21 female R 1 1 8 immoralSelf moralSelf mismatch n n 1 0.9857 
16-May-2018_15:59:20 Exp 7316 21 female R 1 1 9 immoralOther moralOther mismatch n n 1 0.7119 
16-May-2018_15:59:23 Exp 7316 21 female R 1 1 10 moralSelf moralSelf match m m 1 0.6280 
16-May-2018_15:59:25 Exp 7316 21 female R 1 1 11 immoralOther immoralOther match m m 1 0.7918 
16-May-2018_15:59:27 Exp 7316 21 female R 1 1 12 immoralSelf immoralSelf match m m 1 0.7883 
16-May-2018_15:59:30 Exp 7316 21 female R 1 1 13 moralOther moralOther match m m 1 0.7204 
16-May-2018_15:59:32 Exp 7316 21 female R 1 1 14 immoralOther immoralOther match m m 1 0.7226 
16-May-2018_15:59:34 Exp 7316 21 female R 1 1 15 moralOther immoralSelf mismatch n n 1 0.6687 
16-May-2018_15:59:37 Exp 7316 21 female R 1 1 16 moralOther immoralSelf mismatch n n 1 0.7609 
16-May-2018_15:59:39 Exp 7316 21 female R 1 1 17 moralOther immoralOther mismatch n n 1 0.6989 
16-May-2018_15:59:42 Exp 7316 21 female R 1 1 18 immoralOther immoralSelf mismatch n n 1 0.7373 
16-May-2018_15:59:44 Exp 7316 21 female R 1 1 19 immoralSelf immoralSelf match m m 1 0.6553 
16-May-2018_15:59:46 Exp 7316 21 female R 1 1 20 moralSelf immoralOther mismatch n n 1 0.6634 
16-May-2018_15:59:49 Exp 7316 21 female R 1 1 21 immoralOther moralOther mismatch n n 1 0.8375 
16-May-2018_15:59:51 Exp 7316 21 female R 1 1 22 immoralSelf immoralSelf match m m 1 0.7756 
16-May-2018_15:59:53 Exp 7316 21 female R 1 1 23 moralSelf moralSelf match m m 1 0.5838 
16-May-2018_15:59:56 Exp 7316 21 female R 1 1 24 moralOther moralOther match m m 1 0.9099 
16-May-2018_15:59:58 Exp 7316 21 female R 1 2 1 immoralSelf immoralSelf match m m 1 0.7621 
16-May-2018_16:00:00 Exp 7316 21 female R 1 2 2 moralSelf moralSelf match m m 1 0.5883 
16-May-2018_16:00:03 Exp 7316 21 female R 1 2 3 moralOther moralOther match m m 1 0.9043 
16-May-2018_16:00:05 Exp 7316 21 female R 1 2 4 moralOther moralSelf mismatch n m 0 0.6064 
16-May-2018_16:00:07 Exp 7316 21 female R 1 2 5 moralOther moralSelf mismatch n n 1 0.7372 
16-May-2018_16:00:10 Exp 7316 21 female R 1 2 6 moralOther moralSelf mismatch n n 1 0.6068 
16-May-2018_16:00:12 Exp 7316 21 female R 1 2 7 immoralOther immoralSelf mismatch n n 1 0.8568 
16-May-2018_16:00:14 Exp 7316 21 female R 1 2 8 immoralOther immoralOther match m m 1 0.5848 
16-May-2018_16:00:17 Exp 7316 21 female R 1 2 9 moralOther moralOther match m n 0 0.7511 
16-May-2018_16:00:19 Exp 7316 21 female R 1 2 10 moralSelf moralSelf match m m 1 0.7312 
16-May-2018_16:00:22 Exp 7316 21 female R 1 2 11 immoralSelf immoralOther mismatch n n 1 0.9473 
16-May-2018_16:00:24 Exp 7316 21 female R 1 2 12 moralSelf moralOther mismatch n n 1 0.7275 
16-May-2018_16:00:26 Exp 7316 21 female R 1 2 13 moralOther moralOther match m m 1 0.7036 
16-May-2018_16:00:29 Exp 7316 21 female R 1 2 14 immoralOther immoralOther match m m 1 0.7098 
16-May-2018_16:00:31 Exp 7316 21 female R 1 2 15 immoralSelf immoralOther mismatch n n 1 0.7539 
16-May-2018_16:00:34 Exp 7316 21 female R 1 2 16 immoralOther immoralSelf mismatch n n 1 0.7580 
16-May-2018_16:00:36 Exp 7316 21 female R 1 2 17 immoralOther immoralOther match m m 1 0.7042 
16-May-2018_16:00:38 Exp 7316 21 female R 1 2 18 moralSelf moralOther mismatch n n 1 0.7023 
16-May-2018_16:00:40 Exp 7316 21 female R 1 2 19 moralSelf moralSelf match m m 1 0.5484 
16-May-2018_16:00:43 Exp 7316 21 female R 1 2 20 immoralSelf moralOther mismatch n n 1 0.6725 
16-May-2018_16:00:45 Exp 7316 21 female R 1 2 21 moralSelf moralOther mismatch n n 1 0.7487 
16-May-2018_16:00:47 Exp 7316 21 female R 1 2 22 immoralSelf immoralSelf match m n 0 0.6649 
16-May-2018_16:00:50 Exp 7316 21 female R 1 2 23 immoralOther moralSelf mismatch n n 1 0.6390 
16-May-2018_16:00:52 Exp 7316 21 female R 1 2 24 immoralSelf immoralSelf match m m 1 0.6971 
Date Prac Sub Age Sex Hand Block Bin Trial Shape Label Match CorrResp Resp ACC RT
16-May-2018_16:04:50 Exp 7316 21 female R 1 1 1 moralOther moralOther match m m 1 0.7526 
16-May-2018_16:04:53 Exp 7316 21 female R 1 1 2 moralOther immoralSelf mismatch n n 1 0.8447 
16-May-2018_16:04:55 Exp 7316 21 female R 1 1 3 moralSelf immoralOther mismatch n n 1 0.7749 
16-May-2018_16:04:57 Exp 7316 21 female R 1 1 4 moralSelf moralSelf match m m 1 0.6070 
16-May-2018_16:05:00 Exp 7316 21 female R 1 1 5 moralSelf immoralSelf mismatch n n 1 0.5853 
16-May-2018_16:05:02 Exp 7316 21 female R 1 1 6 immoralOther immoralSelf mismatch n n 1 0.6953 
16-May-2018_16:05:04 Exp 7316 21 female R 1 1 7 immoralSelf moralSelf mismatch n n 1 0.6474 
16-May-2018_16:05:07 Exp 7316 21 female R 1 1 8 immoralSelf moralOther mismatch n n 1 0.7436 
16-May-2018_16:05:09 Exp 7316 21 female R 1 1 9 immoralSelf immoralOther mismatch n n 1 0.7417 
16-May-2018_16:05:11 Exp 7316 21 female R 1 1 10 immoralOther immoralOther match m m 1 0.6357 
16-May-2018_16:05:13 Exp 7316 21 female R 1 1 11 immoralOther moralOther mismatch n n 1 0.6479 
16-May-2018_16:05:16 Exp 7316 21 female R 1 1 12 moralSelf moralSelf match m m 1 0.6242 
16-May-2018_16:05:18 Exp 7316 21 female R 1 1 13 immoralOther immoralOther match m m 1 0.7822 
16-May-2018_16:05:20 Exp 7316 21 female R 1 1 14 moralSelf immoralOther mismatch n n 1 0.6123 
16-May-2018_16:05:23 Exp 7316 21 female R 1 1 15 moralOther moralOther match m m 1 0.7804 
16-May-2018_16:05:25 Exp 7316 21 female R 1 1 16 immoralSelf immoralSelf match m m 1 0.8186 
16-May-2018_16:05:28 Exp 7316 21 female R 1 1 17 moralOther immoralOther mismatch n n 1 0.7928 
16-May-2018_16:05:30 Exp 7316 21 female R 1 1 18 immoralOther moralOther mismatch n n 1 0.7481 
16-May-2018_16:05:32 Exp 7316 21 female R 1 1 19 moralOther moralOther match m m 1 0.7210 
16-May-2018_16:05:35 Exp 7316 21 female R 1 1 20 immoralOther immoralOther match m m 1 0.7072 
16-May-2018_16:05:37 Exp 7316 21 female R 1 1 21 moralSelf moralSelf match m m 1 0.6232 
16-May-2018_16:05:39 Exp 7316 21 female R 1 1 22 immoralSelf immoralSelf match m m 1 0.6135 
16-May-2018_16:05:42 Exp 7316 21 female R 1 1 23 immoralSelf immoralSelf match m m 1 0.9095 
16-May-2018_16:05:44 Exp 7316 21 female R 1 1 24 moralOther moralSelf mismatch n m 0 0.6577 
16-May-2018_16:05:46 Exp 7316 21 female R 1 2 1 moralSelf moralSelf match m m 1 0.5038 
16-May-2018_16:05:49 Exp 7316 21 female R 1 2 2 immoralOther immoralSelf mismatch n m 0 0.7740 
16-May-2018_16:05:51 Exp 7316 21 female R 1 2 3 immoralSelf immoralSelf match m m 1 0.9101 
16-May-2018_16:05:54 Exp 7316 21 female R 1 2 4 immoralSelf immoralSelf match m m 1 0.8102 
16-May-2018_16:05:56 Exp 7316 21 female R 1 2 5 immoralSelf immoralSelf match m n 0 0.7143 
16-May-2018_16:05:58 Exp 7316 21 female R 1 2 6 moralSelf immoralOther mismatch n n 1 0.8625 
16-May-2018_16:06:01 Exp 7316 21 female R 1 2 7 immoralOther immoralSelf mismatch n n 1 0.6765 
16-May-2018_16:06:03 Exp 7316 21 female R 1 2 8 immoralOther immoralOther match m m 1 0.9527 
16-May-2018_16:06:06 Exp 7316 21 female R 1 2 9 moralOther moralOther match m m 1 0.8049 
16-May-2018_16:06:08 Exp 7316 21 female R 1 2 10 moralOther moralOther match m m 1 0.6710 
16-May-2018_16:06:10 Exp 7316 21 female R 1 2 11 immoralOther immoralOther match m m 1 0.7392 
16-May-2018_16:06:13 Exp 7316 21 female R 1 2 12 moralOther moralSelf mismatch n n 1 0.8013 
16-May-2018_16:06:15 Exp 7316 21 female R 1 2 13 moralOther immoralSelf mismatch n n 1 0.7075 
16-May-2018_16:06:18 Exp 7316 21 female R 1 2 14 moralSelf immoralOther mismatch n n 1 0.7356 
16-May-2018_16:06:20 Exp 7316 21 female R 1 2 15 moralSelf immoralOther mismatch n n 1 0.6477 
16-May-2018_16:06:22 Exp 7316 21 female R 1 2 16 moralOther moralOther match m n 0 0.6879 
16-May-2018_16:06:25 Exp 7316 21 female R 1 2 17 moralSelf moralSelf match m m 1 0.7680 
16-May-2018_16:06:27 Exp 7316 21 female R 1 2 18 moralOther immoralSelf mismatch n n 1 0.7040 
16-May-2018_16:06:29 Exp 7316 21 female R 1 2 19 immoralOther immoralOther match m m 1 0.6782 
16-May-2018_16:06:31 Exp 7316 21 female R 1 2 20 immoralSelf moralOther mismatch n n 1 0.6723 
16-May-2018_16:06:34 Exp 7316 21 female R 1 2 21 immoralSelf moralOther mismatch n n 1 0.7886 
16-May-2018_16:06:36 Exp 7316 21 female R 1 2 22 moralSelf moralSelf match m m 1 0.5847 
16-May-2018_16:06:38 Exp 7316 21 female R 1 2 23 immoralSelf immoralOther mismatch n n 1 0.6387 
16-May-2018_16:06:41 Exp 7316 21 female R 1 2 24 immoralOther moralOther mismatch n n 1 0.8089 
Date Prac Sub Age Sex Hand Block Bin Trial Shape Label Match CorrResp Resp ACC RT
16-May-2018_16:10:59 Exp 7316 21 female R 1 1 1 immoralSelf immoralSelf match m n 0 0.9516 
16-May-2018_16:11:02 Exp 7316 21 female R 1 1 2 moralSelf immoralSelf mismatch n n 1 1.0037 
16-May-2018_16:11:04 Exp 7316 21 female R 1 1 3 immoralOther immoralOther match m m 1 0.7418 
16-May-2018_16:11:07 Exp 7316 21 female R 1 1 4 moralOther immoralSelf mismatch n n 1 0.6681 
16-May-2018_16:11:09 Exp 7316 21 female R 1 1 5 moralSelf moralSelf match m m 1 0.7681 
16-May-2018_16:11:11 Exp 7316 21 female R 1 1 6 moralSelf moralSelf match m m 1 0.5363 
16-May-2018_16:11:14 Exp 7316 21 female R 1 1 7 moralSelf immoralSelf mismatch n n 1 0.7844 
16-May-2018_16:11:16 Exp 7316 21 female R 1 1 8 immoralSelf moralOther mismatch n n 1 0.6625 
16-May-2018_16:11:18 Exp 7316 21 female R 1 1 9 moralOther moralOther match m m 1 0.6047 
16-May-2018_16:11:21 Exp 7316 21 female R 1 1 10 moralSelf moralSelf match m m 1 0.8228 
16-May-2018_16:11:23 Exp 7316 21 female R 1 1 11 immoralOther moralOther mismatch n n 1 0.6449 
16-May-2018_16:11:26 Exp 7316 21 female R 1 1 12 moralOther moralSelf mismatch n n 1 1.0470 
16-May-2018_16:11:28 Exp 7316 21 female R 1 1 13 immoralSelf immoralSelf match m m 1 0.8072 
16-May-2018_16:11:30 Exp 7316 21 female R 1 1 14 immoralOther moralSelf mismatch n n 1 0.6473 
16-May-2018_16:11:33 Exp 7316 21 female R 1 1 15 moralOther moralOther match m m 1 0.7915 
16-May-2018_16:11:35 Exp 7316 21 female R 1 1 16 moralOther immoralOther mismatch n n 1 0.8116 
16-May-2018_16:11:38 Exp 7316 21 female R 1 1 17 immoralSelf immoralOther mismatch n n 1 1.0198 
16-May-2018_16:11:40 Exp 7316 21 female R 1 1 18 immoralOther immoralOther match m m 1 0.6499 
16-May-2018_16:11:43 Exp 7316 21 female R 1 1 19 immoralOther immoralOther match m m 1 0.8342 
16-May-2018_16:11:45 Exp 7316 21 female R 1 1 20 immoralSelf immoralSelf match m m 1 0.9341 
16-May-2018_16:11:47 Exp 7316 21 female R 1 1 21 immoralSelf moralOther mismatch n n 1 0.5983 
16-May-2018_16:11:50 Exp 7316 21 female R 1 1 22 moralOther moralOther match m m 1 0.6160 
16-May-2018_16:11:52 Exp 7316 21 female R 1 1 23 moralSelf moralOther mismatch n n 1 0.8414 
16-May-2018_16:11:54 Exp 7316 21 female R 1 1 24 immoralOther moralOther mismatch n n 1 0.7067 
16-May-2018_16:11:57 Exp 7316 21 female R 1 2 1 immoralOther immoralOther match m m 1 0.9050 
16-May-2018_16:11:59 Exp 7316 21 female R 1 2 2 immoralSelf immoralSelf match m m 1 0.8151 
16-May-2018_16:12:02 Exp 7316 21 female R 1 2 3 immoralOther immoralOther match m m 1 0.8151 
16-May-2018_16:12:04 Exp 7316 21 female R 1 2 4 moralSelf immoralOther mismatch n n 1 0.6872 
16-May-2018_16:12:07 Exp 7316 21 female R 1 2 5 immoralOther moralOther mismatch n n 1 0.7674 
16-May-2018_16:12:09 Exp 7316 21 female R 1 2 6 immoralSelf moralOther mismatch n n 1 0.6876 
16-May-2018_16:12:11 Exp 7316 21 female R 1 2 7 moralSelf moralSelf match m m 1 0.5436 
16-May-2018_16:12:13 Exp 7316 21 female R 1 2 8 immoralSelf immoralSelf match m m 1 0.7818 
16-May-2018_16:12:16 Exp 7316 21 female R 1 2 9 immoralSelf moralSelf mismatch n n 1 0.6438 
16-May-2018_16:12:18 Exp 7316 21 female R 1 2 10 moralSelf immoralOther mismatch n n 1 0.6060 
16-May-2018_16:12:20 Exp 7316 21 female R 1 2 11 moralOther moralOther match m m 1 0.6882 
16-May-2018_16:12:23 Exp 7316 21 female R 1 2 12 moralOther immoralSelf mismatch n n 1 0.7844 
16-May-2018_16:12:25 Exp 7316 21 female R 1 2 13 moralSelf immoralSelf mismatch n n 1 0.6785 
16-May-2018_16:12:27 Exp 7316 21 female R 1 2 14 moralOther moralOther match m m 1 0.8165 
16-May-2018_16:12:30 Exp 7316 21 female R 1 2 15 immoralSelf immoralOther mismatch n n 1 0.8168 
16-May-2018_16:12:32 Exp 7316 21 female R 1 2 16 moralSelf moralSelf match m m 1 0.6889 
16-May-2018_16:12:34 Exp 7316 21 female R 1 2 17 moralOther moralSelf mismatch n n 1 0.6650 
16-May-2018_16:12:37 Exp 7316 21 female R 1 2 18 immoralOther moralOther mismatch n n 1 0.8311 
16-May-2018_16:12:39 Exp 7316 21 female R 1 2 19 immoralOther immoralOther match m m 1 0.9073 
16-May-2018_16:12:42 Exp 7316 21 female R 1 2 20 immoralSelf immoralSelf match m m 1 0.7834 
16-May-2018_16:12:44 Exp 7316 21 female R 1 2 21 moralOther moralOther match m m 1 0.6695 
16-May-2018_16:12:46 Exp 7316 21 female R 1 2 22 moralOther immoralSelf mismatch n n 1 0.5858 
16-May-2018_16:12:49 Exp 7316 21 female R 1 2 23 moralSelf moralSelf match m m 1 0.5678 
16-May-2018_16:12:51 Exp 7316 21 female R 1 2 24 immoralOther immoralSelf mismatch n n 1 0.6239 
