Date Prac Sub Age Sex Hand Block Bin Trial Shape Label Match CorrResp Resp ACC RT
31-May-2018_15:32:37 Exp 7336 19 female R 1 1 1 immoralSelf immoralSelf match n n 1 0.7600 
31-May-2018_15:32:39 Exp 7336 19 female R 1 1 2 immoralOther immoralSelf mismatch m m 1 0.5819 
31-May-2018_15:32:41 Exp 7336 19 female R 1 1 3 immoralSelf immoralOther mismatch m m 1 0.6762 
31-May-2018_15:32:43 Exp 7336 19 female R 1 1 4 immoralOther moralOther mismatch m m 1 0.6442 
31-May-2018_15:32:46 Exp 7336 19 female R 1 1 5 moralSelf immoralOther mismatch m m 1 0.5638 
31-May-2018_15:32:48 Exp 7336 19 female R 1 1 6 immoralSelf moralOther mismatch m n 0 0.5418 
31-May-2018_15:32:50 Exp 7336 19 female R 1 1 7 moralSelf immoralOther mismatch m m 1 0.6232 
31-May-2018_15:32:52 Exp 7336 19 female R 1 1 8 immoralOther immoralOther match n n 1 0.8784 
31-May-2018_15:32:55 Exp 7336 19 female R 1 1 9 moralSelf moralSelf match n n 1 0.8465 
31-May-2018_15:32:57 Exp 7336 19 female R 1 1 10 immoralOther immoralSelf mismatch m m 1 0.6060 
31-May-2018_15:32:59 Exp 7336 19 female R 1 1 11 immoralSelf immoralSelf match n m 0 0.8128 
31-May-2018_15:33:01 Exp 7336 19 female R 1 1 12 moralOther moralOther match n n 1 0.4797 
31-May-2018_15:33:03 Exp 7336 19 female R 1 1 13 moralOther immoralSelf mismatch m m 1 0.5880 
31-May-2018_15:33:05 Exp 7336 19 female R 1 1 14 moralOther moralOther match n n 1 0.5104 
31-May-2018_15:33:07 Exp 7336 19 female R 1 1 15 moralOther moralOther match n n 1 0.6353 
31-May-2018_15:33:09 Exp 7336 19 female R 1 1 16 immoralSelf moralSelf mismatch m m 1 0.5347 
31-May-2018_15:33:12 Exp 7336 19 female R 1 1 17 moralOther moralSelf mismatch m NA -1 1.0731 
31-May-2018_15:33:14 Exp 7336 19 female R 1 1 18 immoralSelf immoralSelf match n n 1 0.6120 
31-May-2018_15:33:16 Exp 7336 19 female R 1 1 19 moralSelf moralSelf match n n 1 0.5909 
31-May-2018_15:33:18 Exp 7336 19 female R 1 1 20 moralOther moralSelf mismatch m m 1 0.6413 
31-May-2018_15:33:21 Exp 7336 19 female R 1 1 21 immoralOther immoralOther match n n 1 0.6606 
31-May-2018_15:33:23 Exp 7336 19 female R 1 1 22 moralSelf moralSelf match n n 1 0.8565 
31-May-2018_15:33:25 Exp 7336 19 female R 1 1 23 moralSelf moralOther mismatch m n 0 0.4924 
31-May-2018_15:33:27 Exp 7336 19 female R 1 1 24 immoralOther immoralOther match n n 1 0.7010 
31-May-2018_15:33:29 Exp 7336 19 female R 1 2 1 moralSelf moralOther mismatch m n 0 0.4935 
31-May-2018_15:33:31 Exp 7336 19 female R 1 2 2 moralOther immoralSelf mismatch m m 1 0.6381 
31-May-2018_15:33:34 Exp 7336 19 female R 1 2 3 immoralOther moralOther mismatch m m 1 0.7134 
31-May-2018_15:33:36 Exp 7336 19 female R 1 2 4 moralSelf moralSelf match n n 1 0.5983 
31-May-2018_15:33:38 Exp 7336 19 female R 1 2 5 immoralOther moralSelf mismatch m m 1 0.6689 
31-May-2018_15:33:40 Exp 7336 19 female R 1 2 6 immoralSelf immoralOther mismatch m n 0 0.7010 
31-May-2018_15:33:42 Exp 7336 19 female R 1 2 7 moralSelf moralSelf match n n 1 0.5815 
31-May-2018_15:33:45 Exp 7336 19 female R 1 2 8 immoralOther immoralOther match n m 0 0.6758 
31-May-2018_15:33:47 Exp 7336 19 female R 1 2 9 immoralSelf immoralSelf match n m 0 0.7079 
31-May-2018_15:33:49 Exp 7336 19 female R 1 2 10 immoralSelf immoralSelf match n m 0 0.7526 
31-May-2018_15:33:51 Exp 7336 19 female R 1 2 11 moralOther moralOther match n n 1 0.5984 
31-May-2018_15:33:53 Exp 7336 19 female R 1 2 12 immoralOther immoralSelf mismatch m m 1 0.7491 
31-May-2018_15:33:56 Exp 7336 19 female R 1 2 13 immoralOther immoralOther match n m 0 0.7106 
31-May-2018_15:33:58 Exp 7336 19 female R 1 2 14 moralSelf moralOther mismatch m n 0 0.4993 
31-May-2018_15:34:00 Exp 7336 19 female R 1 2 15 immoralSelf moralOther mismatch m m 1 0.7559 
31-May-2018_15:34:02 Exp 7336 19 female R 1 2 16 moralOther immoralOther mismatch m m 1 0.5936 
31-May-2018_15:34:04 Exp 7336 19 female R 1 2 17 immoralOther immoralOther match n m 0 0.7081 
31-May-2018_15:34:06 Exp 7336 19 female R 1 2 18 moralSelf moralSelf match n n 1 0.5049 
31-May-2018_15:34:09 Exp 7336 19 female R 1 2 19 moralOther moralOther match n m 0 0.6698 
31-May-2018_15:34:11 Exp 7336 19 female R 1 2 20 moralOther immoralOther mismatch m m 1 0.6297 
31-May-2018_15:34:13 Exp 7336 19 female R 1 2 21 immoralSelf immoralSelf match n n 1 0.6770 
31-May-2018_15:34:15 Exp 7336 19 female R 1 2 22 immoralSelf immoralOther mismatch m m 1 0.7810 
31-May-2018_15:34:18 Exp 7336 19 female R 1 2 23 moralSelf immoralSelf mismatch m m 1 0.7391 
31-May-2018_15:34:20 Exp 7336 19 female R 1 2 24 moralOther moralOther match n n 1 0.6847 
31-May-2018_15:34:22 Exp 7336 19 female R 1 3 1 immoralSelf immoralOther mismatch m n 0 0.6170 
31-May-2018_15:34:24 Exp 7336 19 female R 1 3 2 immoralOther moralOther mismatch m m 1 0.6517 
31-May-2018_15:34:26 Exp 7336 19 female R 1 3 3 moralOther moralOther match n n 1 0.4275 
31-May-2018_15:34:28 Exp 7336 19 female R 1 3 4 moralSelf moralSelf match n n 1 0.5547 
31-May-2018_15:34:30 Exp 7336 19 female R 1 3 5 moralOther moralOther match n n 1 0.5924 
31-May-2018_15:34:32 Exp 7336 19 female R 1 3 6 immoralSelf immoralSelf match n m 0 0.6668 
31-May-2018_15:34:35 Exp 7336 19 female R 1 3 7 immoralSelf immoralSelf match n n 1 0.7347 
31-May-2018_15:34:37 Exp 7336 19 female R 1 3 8 moralSelf moralSelf match n n 1 0.5799 
31-May-2018_15:34:39 Exp 7336 19 female R 1 3 9 immoralOther immoralOther match n n 1 0.6582 
31-May-2018_15:34:41 Exp 7336 19 female R 1 3 10 moralSelf moralSelf match n n 1 0.4860 
31-May-2018_15:34:43 Exp 7336 19 female R 1 3 11 moralOther immoralOther mismatch m n 0 0.3624 
31-May-2018_15:34:45 Exp 7336 19 female R 1 3 12 immoralOther immoralOther match n n 1 0.6043 
31-May-2018_15:34:47 Exp 7336 19 female R 1 3 13 immoralSelf immoralSelf match n m 0 0.4830 
31-May-2018_15:34:49 Exp 7336 19 female R 1 3 14 moralOther moralSelf mismatch m m 1 0.5914 
31-May-2018_15:34:51 Exp 7336 19 female R 1 3 15 immoralOther immoralOther match n n 1 0.6257 
31-May-2018_15:34:53 Exp 7336 19 female R 1 3 16 moralSelf immoralSelf mismatch m m 1 0.6328 
31-May-2018_15:34:56 Exp 7336 19 female R 1 3 17 immoralSelf moralSelf mismatch m m 1 0.7563 
31-May-2018_15:34:58 Exp 7336 19 female R 1 3 18 moralOther moralOther match n n 1 0.8500 
31-May-2018_15:35:00 Exp 7336 19 female R 1 3 19 immoralOther moralSelf mismatch m m 1 0.6256 
31-May-2018_15:35:02 Exp 7336 19 female R 1 3 20 immoralOther moralSelf mismatch m m 1 0.6247 
31-May-2018_15:35:04 Exp 7336 19 female R 1 3 21 moralSelf moralOther mismatch m n 0 0.4879 
31-May-2018_15:35:07 Exp 7336 19 female R 1 3 22 immoralSelf immoralOther mismatch m m 1 0.8282 
31-May-2018_15:35:09 Exp 7336 19 female R 1 3 23 moralSelf immoralSelf mismatch m n 0 0.4914 
31-May-2018_15:35:11 Exp 7336 19 female R 1 3 24 moralOther immoralOther mismatch m n 0 0.6039 
31-May-2018_15:35:26 Exp 7336 19 female R 1 4 1 immoralOther moralSelf mismatch m m 1 0.6304 
31-May-2018_15:35:28 Exp 7336 19 female R 1 4 2 moralOther moralSelf mismatch m m 1 0.7255 
31-May-2018_15:35:30 Exp 7336 19 female R 1 4 3 immoralSelf immoralOther mismatch m m 1 0.5106 
31-May-2018_15:35:32 Exp 7336 19 female R 1 4 4 moralOther moralOther match n n 1 0.4993 
31-May-2018_15:35:35 Exp 7336 19 female R 1 4 5 immoralOther immoralOther match n n 1 0.7319 
31-May-2018_15:35:37 Exp 7336 19 female R 1 4 6 immoralSelf immoralSelf match n m 0 0.6491 
31-May-2018_15:35:39 Exp 7336 19 female R 1 4 7 moralSelf immoralSelf mismatch m m 1 0.6968 
31-May-2018_15:35:41 Exp 7336 19 female R 1 4 8 moralOther moralSelf mismatch m m 1 0.7533 
31-May-2018_15:35:44 Exp 7336 19 female R 1 4 9 moralOther moralSelf mismatch m m 1 0.8870 
31-May-2018_15:35:46 Exp 7336 19 female R 1 4 10 moralSelf immoralOther mismatch m m 1 0.6354 
31-May-2018_15:35:48 Exp 7336 19 female R 1 4 11 immoralSelf immoralSelf match n m 0 0.4629 
31-May-2018_15:35:50 Exp 7336 19 female R 1 4 12 immoralSelf immoralSelf match n n 1 0.6827 
31-May-2018_15:35:52 Exp 7336 19 female R 1 4 13 immoralOther moralSelf mismatch m m 1 0.5429 
31-May-2018_15:35:54 Exp 7336 19 female R 1 4 14 immoralOther immoralOther match n n 1 0.7685 
31-May-2018_15:35:57 Exp 7336 19 female R 1 4 15 immoralSelf moralSelf mismatch m m 1 0.6424 
31-May-2018_15:35:59 Exp 7336 19 female R 1 4 16 moralSelf moralSelf match n n 1 0.6058 
31-May-2018_15:36:01 Exp 7336 19 female R 1 4 17 moralSelf immoralSelf mismatch m m 1 0.5244 
31-May-2018_15:36:03 Exp 7336 19 female R 1 4 18 moralSelf moralSelf match n n 1 0.5975 
31-May-2018_15:36:05 Exp 7336 19 female R 1 4 19 immoralSelf immoralOther mismatch m m 1 0.6841 
31-May-2018_15:36:07 Exp 7336 19 female R 1 4 20 immoralOther moralSelf mismatch m m 1 0.8244 
31-May-2018_15:36:10 Exp 7336 19 female R 1 4 21 moralOther moralOther match n n 1 0.7436 
31-May-2018_15:36:12 Exp 7336 19 female R 1 4 22 moralSelf moralSelf match n n 1 0.6811 
31-May-2018_15:36:14 Exp 7336 19 female R 1 4 23 immoralOther immoralOther match n n 1 0.5574 
31-May-2018_15:36:16 Exp 7336 19 female R 1 4 24 moralOther moralOther match n m 0 0.6111 
31-May-2018_15:36:19 Exp 7336 19 female R 1 5 1 immoralOther immoralSelf mismatch m NA -1 1.0731 
31-May-2018_15:36:21 Exp 7336 19 female R 1 5 2 moralSelf moralSelf match n n 1 0.5182 
31-May-2018_15:36:23 Exp 7336 19 female R 1 5 3 moralSelf immoralSelf mismatch m m 1 0.6232 
31-May-2018_15:36:25 Exp 7336 19 female R 1 5 4 moralOther moralOther match n n 1 0.5103 
31-May-2018_15:36:27 Exp 7336 19 female R 1 5 5 moralOther immoralSelf mismatch m m 1 0.5711 
31-May-2018_15:36:29 Exp 7336 19 female R 1 5 6 moralOther immoralSelf mismatch m n 0 0.8291 
31-May-2018_15:36:32 Exp 7336 19 female R 1 5 7 moralSelf immoralOther mismatch m m 1 0.6121 
31-May-2018_15:36:34 Exp 7336 19 female R 1 5 8 immoralSelf immoralSelf match n n 1 0.6551 
31-May-2018_15:36:36 Exp 7336 19 female R 1 5 9 immoralSelf moralOther mismatch m m 1 0.6308 
31-May-2018_15:36:38 Exp 7336 19 female R 1 5 10 immoralOther immoralSelf mismatch m m 1 1.0379 
31-May-2018_15:36:41 Exp 7336 19 female R 1 5 11 moralOther moralOther match n n 1 0.6014 
31-May-2018_15:36:43 Exp 7336 19 female R 1 5 12 immoralOther immoralOther match n m 0 0.5920 
31-May-2018_15:36:45 Exp 7336 19 female R 1 5 13 immoralSelf immoralOther mismatch m m 1 0.6664 
31-May-2018_15:36:47 Exp 7336 19 female R 1 5 14 moralOther moralOther match n m 0 0.6143 
31-May-2018_15:36:50 Exp 7336 19 female R 1 5 15 immoralOther immoralOther match n n 1 0.9931 
31-May-2018_15:36:52 Exp 7336 19 female R 1 5 16 moralSelf moralSelf match n n 1 0.4756 
31-May-2018_15:36:54 Exp 7336 19 female R 1 5 17 immoralSelf immoralOther mismatch m m 1 0.4997 
31-May-2018_15:36:56 Exp 7336 19 female R 1 5 18 immoralOther moralSelf mismatch m m 1 0.7483 
31-May-2018_15:36:58 Exp 7336 19 female R 1 5 19 immoralSelf immoralSelf match n n 1 0.7497 
31-May-2018_15:37:00 Exp 7336 19 female R 1 5 20 moralOther immoralOther mismatch m n 0 0.6793 
31-May-2018_15:37:02 Exp 7336 19 female R 1 5 21 moralSelf moralSelf match n n 1 0.6275 
31-May-2018_15:37:05 Exp 7336 19 female R 1 5 22 immoralSelf immoralSelf match n m 0 0.6187 
31-May-2018_15:37:07 Exp 7336 19 female R 1 5 23 immoralOther immoralOther match n n 1 0.6377 
31-May-2018_15:37:09 Exp 7336 19 female R 1 5 24 moralSelf immoralOther mismatch m m 1 0.6811 
31-May-2018_15:37:14 Exp 7336 19 female R 2 1 1 moralOther moralOther match n m 0 0.6459 
31-May-2018_15:37:16 Exp 7336 19 female R 2 1 2 immoralSelf moralOther mismatch m m 1 0.5975 
31-May-2018_15:37:18 Exp 7336 19 female R 2 1 3 moralSelf immoralSelf mismatch m n 0 0.5643 
31-May-2018_15:37:21 Exp 7336 19 female R 2 1 4 immoralOther immoralSelf mismatch m m 1 0.7182 
31-May-2018_15:37:23 Exp 7336 19 female R 2 1 5 moralSelf moralSelf match n n 1 0.4873 
31-May-2018_15:37:25 Exp 7336 19 female R 2 1 6 immoralSelf immoralOther mismatch m m 1 0.6275 
31-May-2018_15:37:27 Exp 7336 19 female R 2 1 7 moralSelf moralOther mismatch m m 1 0.7626 
31-May-2018_15:37:29 Exp 7336 19 female R 2 1 8 moralOther immoralSelf mismatch m m 1 0.7805 
31-May-2018_15:37:32 Exp 7336 19 female R 2 1 9 moralOther moralSelf mismatch m m 1 0.6988 
31-May-2018_15:37:34 Exp 7336 19 female R 2 1 10 moralSelf moralSelf match n n 1 0.6434 
31-May-2018_15:37:36 Exp 7336 19 female R 2 1 11 immoralSelf immoralSelf match n m 0 0.5588 
31-May-2018_15:37:38 Exp 7336 19 female R 2 1 12 moralOther immoralOther mismatch m n 0 0.7566 
31-May-2018_15:37:40 Exp 7336 19 female R 2 1 13 moralSelf moralSelf match n n 1 0.5463 
31-May-2018_15:37:42 Exp 7336 19 female R 2 1 14 immoralSelf immoralSelf match n m 0 0.6677 
31-May-2018_15:37:45 Exp 7336 19 female R 2 1 15 moralOther moralOther match n n 1 0.5318 
31-May-2018_15:37:47 Exp 7336 19 female R 2 1 16 immoralOther immoralOther match n m 0 0.4571 
31-May-2018_15:37:49 Exp 7336 19 female R 2 1 17 immoralSelf moralSelf mismatch m m 1 0.6049 
31-May-2018_15:37:51 Exp 7336 19 female R 2 1 18 immoralOther immoralOther match n n 1 0.6676 
31-May-2018_15:37:53 Exp 7336 19 female R 2 1 19 moralOther moralOther match n m 0 0.7195 
31-May-2018_15:37:55 Exp 7336 19 female R 2 1 20 immoralSelf immoralSelf match n n 1 0.8485 
31-May-2018_15:37:58 Exp 7336 19 female R 2 1 21 moralSelf moralOther mismatch m m 1 0.6160 
31-May-2018_15:38:00 Exp 7336 19 female R 2 1 22 immoralOther immoralOther match n n 1 0.6030 
31-May-2018_15:38:02 Exp 7336 19 female R 2 1 23 immoralOther moralSelf mismatch m m 1 0.7617 
31-May-2018_15:38:04 Exp 7336 19 female R 2 1 24 immoralOther moralSelf mismatch m m 1 0.8676 
31-May-2018_15:38:07 Exp 7336 19 female R 2 2 1 immoralSelf immoralSelf match n n 1 0.6517 
31-May-2018_15:38:09 Exp 7336 19 female R 2 2 2 immoralOther immoralOther match n n 1 0.6592 
31-May-2018_15:38:11 Exp 7336 19 female R 2 2 3 immoralSelf immoralOther mismatch m m 1 0.7191 
31-May-2018_15:38:13 Exp 7336 19 female R 2 2 4 moralSelf moralOther mismatch m n 0 0.5762 
31-May-2018_15:38:15 Exp 7336 19 female R 2 2 5 immoralSelf immoralSelf match n n 1 0.6864 
31-May-2018_15:38:17 Exp 7336 19 female R 2 2 6 immoralOther immoralOther match n n 1 0.5708 
31-May-2018_15:38:20 Exp 7336 19 female R 2 2 7 immoralSelf immoralSelf match n n 1 0.6527 
31-May-2018_15:38:22 Exp 7336 19 female R 2 2 8 moralOther moralOther match n m 0 0.6043 
31-May-2018_15:38:24 Exp 7336 19 female R 2 2 9 moralOther moralSelf mismatch m m 1 0.6750 
31-May-2018_15:38:26 Exp 7336 19 female R 2 2 10 immoralOther moralOther mismatch m m 1 0.7151 
31-May-2018_15:38:28 Exp 7336 19 female R 2 2 11 immoralOther immoralSelf mismatch m m 1 0.7641 
31-May-2018_15:38:31 Exp 7336 19 female R 2 2 12 moralSelf immoralSelf mismatch m m 1 0.6061 
31-May-2018_15:38:33 Exp 7336 19 female R 2 2 13 immoralSelf immoralOther mismatch m m 1 0.8847 
31-May-2018_15:38:35 Exp 7336 19 female R 2 2 14 immoralOther immoralOther match n m 0 0.5292 
31-May-2018_15:38:37 Exp 7336 19 female R 2 2 15 immoralOther immoralSelf mismatch m m 1 0.7904 
31-May-2018_15:38:40 Exp 7336 19 female R 2 2 16 moralOther moralSelf mismatch m m 1 0.8008 
31-May-2018_15:38:42 Exp 7336 19 female R 2 2 17 moralSelf moralSelf match n n 1 0.5754 
31-May-2018_15:38:44 Exp 7336 19 female R 2 2 18 immoralSelf moralSelf mismatch m m 1 0.5657 
31-May-2018_15:38:46 Exp 7336 19 female R 2 2 19 moralOther moralOther match n n 1 0.4956 
31-May-2018_15:38:48 Exp 7336 19 female R 2 2 20 moralSelf moralSelf match n n 1 0.6247 
31-May-2018_15:38:50 Exp 7336 19 female R 2 2 21 moralOther moralOther match n n 1 0.5839 
31-May-2018_15:38:52 Exp 7336 19 female R 2 2 22 moralSelf moralSelf match n n 1 0.4461 
31-May-2018_15:38:54 Exp 7336 19 female R 2 2 23 moralOther moralSelf mismatch m m 1 0.5656 
31-May-2018_15:38:56 Exp 7336 19 female R 2 2 24 moralSelf immoralOther mismatch m m 1 0.5596 
31-May-2018_15:38:59 Exp 7336 19 female R 2 3 1 moralSelf moralSelf match n n 1 0.5973 
31-May-2018_15:39:01 Exp 7336 19 female R 2 3 2 immoralOther immoralOther match n n 1 0.4760 
31-May-2018_15:39:03 Exp 7336 19 female R 2 3 3 moralOther moralOther match n n 1 0.4840 
31-May-2018_15:39:05 Exp 7336 19 female R 2 3 4 immoralSelf moralOther mismatch m m 1 0.6964 
31-May-2018_15:39:07 Exp 7336 19 female R 2 3 5 immoralSelf immoralSelf match n m 0 0.7850 
31-May-2018_15:39:10 Exp 7336 19 female R 2 3 6 moralOther immoralSelf mismatch m n 0 0.9192 
31-May-2018_15:39:12 Exp 7336 19 female R 2 3 7 moralSelf moralSelf match n n 1 0.5121 
31-May-2018_15:39:14 Exp 7336 19 female R 2 3 8 immoralOther immoralSelf mismatch m m 1 0.8130 
31-May-2018_15:39:16 Exp 7336 19 female R 2 3 9 immoralOther immoralOther match n n 1 0.6719 
31-May-2018_15:39:19 Exp 7336 19 female R 2 3 10 moralOther moralOther match n m 0 0.9040 
31-May-2018_15:39:21 Exp 7336 19 female R 2 3 11 moralOther moralOther match n n 1 0.7809 
31-May-2018_15:39:23 Exp 7336 19 female R 2 3 12 immoralOther moralSelf mismatch m m 1 0.6670 
31-May-2018_15:39:25 Exp 7336 19 female R 2 3 13 immoralOther immoralOther match n n 1 0.5988 
31-May-2018_15:39:28 Exp 7336 19 female R 2 3 14 immoralSelf immoralSelf match n m 0 0.8615 
31-May-2018_15:39:30 Exp 7336 19 female R 2 3 15 moralSelf immoralOther mismatch m m 1 0.6414 
31-May-2018_15:39:32 Exp 7336 19 female R 2 3 16 moralOther moralSelf mismatch m n 0 0.6447 
31-May-2018_15:39:34 Exp 7336 19 female R 2 3 17 moralSelf moralSelf match n n 1 0.6523 
31-May-2018_15:39:36 Exp 7336 19 female R 2 3 18 immoralOther moralSelf mismatch m m 1 0.5960 
31-May-2018_15:39:38 Exp 7336 19 female R 2 3 19 immoralSelf immoralSelf match n n 1 0.7345 
31-May-2018_15:39:41 Exp 7336 19 female R 2 3 20 moralOther immoralSelf mismatch m m 1 0.9716 
31-May-2018_15:39:43 Exp 7336 19 female R 2 3 21 immoralSelf immoralOther mismatch m m 1 0.8456 
31-May-2018_15:39:46 Exp 7336 19 female R 2 3 22 immoralSelf moralSelf mismatch m m 1 0.9333 
31-May-2018_15:39:48 Exp 7336 19 female R 2 3 23 moralSelf immoralSelf mismatch m m 1 0.6105 
31-May-2018_15:39:50 Exp 7336 19 female R 2 3 24 moralSelf immoralSelf mismatch m m 1 0.5574 
31-May-2018_15:40:18 Exp 7336 19 female R 2 4 1 immoralOther moralSelf mismatch m m 1 0.5751 
31-May-2018_15:40:20 Exp 7336 19 female R 2 4 2 immoralOther moralOther mismatch m m 1 0.6932 
31-May-2018_15:40:22 Exp 7336 19 female R 2 4 3 moralSelf moralSelf match n n 1 0.4778 
31-May-2018_15:40:24 Exp 7336 19 female R 2 4 4 immoralSelf immoralSelf match n n 1 0.5339 
31-May-2018_15:40:26 Exp 7336 19 female R 2 4 5 moralSelf moralSelf match n n 1 0.5791 
31-May-2018_15:40:28 Exp 7336 19 female R 2 4 6 moralSelf moralOther mismatch m n 0 0.4653 
31-May-2018_15:40:30 Exp 7336 19 female R 2 4 7 moralOther immoralSelf mismatch m n 0 0.5812 
31-May-2018_15:40:32 Exp 7336 19 female R 2 4 8 moralOther moralOther match n m 0 0.6113 
31-May-2018_15:40:35 Exp 7336 19 female R 2 4 9 moralSelf moralOther mismatch m m 1 0.5663 
31-May-2018_15:40:37 Exp 7336 19 female R 2 4 10 immoralSelf immoralSelf match n n 1 0.6162 
31-May-2018_15:40:39 Exp 7336 19 female R 2 4 11 moralSelf moralSelf match n m 0 0.5952 
31-May-2018_15:40:41 Exp 7336 19 female R 2 4 12 moralOther moralOther match n n 1 0.4936 
31-May-2018_15:40:43 Exp 7336 19 female R 2 4 13 immoralSelf moralOther mismatch m n 0 0.4461 
31-May-2018_15:40:45 Exp 7336 19 female R 2 4 14 immoralSelf moralSelf mismatch m n 0 0.5018 
31-May-2018_15:40:47 Exp 7336 19 female R 2 4 15 immoralOther immoralOther match n n 1 0.6222 
31-May-2018_15:40:49 Exp 7336 19 female R 2 4 16 immoralOther immoralOther match n n 1 0.6294 
31-May-2018_15:40:51 Exp 7336 19 female R 2 4 17 moralOther immoralOther mismatch m m 1 0.6046 
31-May-2018_15:40:53 Exp 7336 19 female R 2 4 18 immoralSelf moralOther mismatch m m 1 0.5873 
31-May-2018_15:40:56 Exp 7336 19 female R 2 4 19 moralSelf moralOther mismatch m m 1 0.6537 
31-May-2018_15:40:57 Exp 7336 19 female R 2 4 20 immoralSelf immoralSelf match n n 1 0.4053 
31-May-2018_15:41:00 Exp 7336 19 female R 2 4 21 immoralOther immoralOther match n n 1 0.5639 
31-May-2018_15:41:02 Exp 7336 19 female R 2 4 22 immoralOther immoralSelf mismatch m m 1 0.7019 
31-May-2018_15:41:04 Exp 7336 19 female R 2 4 23 moralOther moralOther match n n 1 0.4785 
31-May-2018_15:41:06 Exp 7336 19 female R 2 4 24 moralOther immoralOther mismatch m m 1 0.5826 
31-May-2018_15:41:08 Exp 7336 19 female R 2 5 1 moralSelf immoralSelf mismatch m m 1 0.6128 
31-May-2018_15:41:10 Exp 7336 19 female R 2 5 2 moralOther moralOther match n n 1 0.5198 
31-May-2018_15:41:12 Exp 7336 19 female R 2 5 3 moralSelf moralSelf match n m 0 0.4327 
31-May-2018_15:41:14 Exp 7336 19 female R 2 5 4 immoralSelf immoralSelf match n n 1 0.6200 
31-May-2018_15:41:16 Exp 7336 19 female R 2 5 5 moralOther immoralSelf mismatch m m 1 0.7189 
31-May-2018_15:41:19 Exp 7336 19 female R 2 5 6 immoralSelf immoralSelf match n m 0 0.6320 
31-May-2018_15:41:21 Exp 7336 19 female R 2 5 7 moralOther immoralOther mismatch m n 0 0.8472 
31-May-2018_15:41:23 Exp 7336 19 female R 2 5 8 moralOther moralOther match n n 1 0.5347 
31-May-2018_15:41:25 Exp 7336 19 female R 2 5 9 immoralOther immoralOther match n n 1 0.7401 
31-May-2018_15:41:28 Exp 7336 19 female R 2 5 10 immoralOther immoralSelf mismatch m m 1 0.6935 
31-May-2018_15:41:30 Exp 7336 19 female R 2 5 11 moralSelf moralOther mismatch m m 1 0.8301 
31-May-2018_15:41:32 Exp 7336 19 female R 2 5 12 immoralSelf immoralOther mismatch m m 1 0.6931 
31-May-2018_15:41:34 Exp 7336 19 female R 2 5 13 moralSelf moralSelf match n n 1 0.5578 
31-May-2018_15:41:36 Exp 7336 19 female R 2 5 14 moralSelf immoralOther mismatch m m 1 0.5634 
31-May-2018_15:41:38 Exp 7336 19 female R 2 5 15 moralSelf moralSelf match n n 1 0.4935 
31-May-2018_15:41:40 Exp 7336 19 female R 2 5 16 immoralSelf moralSelf mismatch m m 1 0.6301 
31-May-2018_15:41:43 Exp 7336 19 female R 2 5 17 immoralSelf moralSelf mismatch m m 1 0.6131 
31-May-2018_15:41:45 Exp 7336 19 female R 2 5 18 moralOther moralOther match n n 1 0.5041 
31-May-2018_15:41:47 Exp 7336 19 female R 2 5 19 moralOther immoralSelf mismatch m m 1 0.3889 
31-May-2018_15:41:49 Exp 7336 19 female R 2 5 20 immoralOther moralOther mismatch m m 1 0.6073 
31-May-2018_15:41:51 Exp 7336 19 female R 2 5 21 immoralOther immoralOther match n m 0 0.5980 
31-May-2018_15:41:53 Exp 7336 19 female R 2 5 22 immoralOther immoralSelf mismatch m m 1 0.6686 
31-May-2018_15:41:55 Exp 7336 19 female R 2 5 23 immoralOther immoralOther match n n 1 0.5327 
31-May-2018_15:41:57 Exp 7336 19 female R 2 5 24 immoralSelf immoralSelf match n n 1 0.8340 
31-May-2018_15:42:03 Exp 7336 19 female R 3 1 1 moralOther moralSelf mismatch m NA -1 1.0731 
31-May-2018_15:42:05 Exp 7336 19 female R 3 1 2 moralSelf moralSelf match n n 1 0.4781 
31-May-2018_15:42:07 Exp 7336 19 female R 3 1 3 immoralOther moralOther mismatch m m 1 0.6381 
31-May-2018_15:42:09 Exp 7336 19 female R 3 1 4 immoralSelf immoralOther mismatch m m 1 0.6176 
31-May-2018_15:42:12 Exp 7336 19 female R 3 1 5 immoralSelf moralSelf mismatch m m 1 0.6284 
31-May-2018_15:42:14 Exp 7336 19 female R 3 1 6 moralSelf moralOther mismatch m m 1 0.7155 
31-May-2018_15:42:16 Exp 7336 19 female R 3 1 7 moralSelf moralSelf match n n 1 0.4766 
31-May-2018_15:42:18 Exp 7336 19 female R 3 1 8 moralOther immoralOther mismatch m m 1 0.7007 
31-May-2018_15:42:20 Exp 7336 19 female R 3 1 9 moralOther moralOther match n m 0 0.7173 
31-May-2018_15:42:23 Exp 7336 19 female R 3 1 10 moralOther immoralSelf mismatch m m 1 0.7902 
31-May-2018_15:42:25 Exp 7336 19 female R 3 1 11 moralSelf immoralOther mismatch m m 1 0.7847 
31-May-2018_15:42:27 Exp 7336 19 female R 3 1 12 immoralOther immoralOther match n n 1 0.5349 
31-May-2018_15:42:29 Exp 7336 19 female R 3 1 13 moralOther moralOther match n m 0 0.6042 
31-May-2018_15:42:31 Exp 7336 19 female R 3 1 14 immoralSelf immoralSelf match n m 0 0.6988 
31-May-2018_15:42:33 Exp 7336 19 female R 3 1 15 immoralOther immoralOther match n n 1 0.5713 
31-May-2018_15:42:35 Exp 7336 19 female R 3 1 16 immoralOther moralSelf mismatch m m 1 0.5334 
31-May-2018_15:42:37 Exp 7336 19 female R 3 1 17 immoralOther immoralOther match n n 1 0.5546 
31-May-2018_15:42:40 Exp 7336 19 female R 3 1 18 moralSelf moralOther mismatch m m 1 0.6484 
31-May-2018_15:42:42 Exp 7336 19 female R 3 1 19 immoralSelf immoralSelf match n n 1 0.5920 
31-May-2018_15:42:44 Exp 7336 19 female R 3 1 20 moralSelf moralSelf match n m 0 0.6184 
31-May-2018_15:42:46 Exp 7336 19 female R 3 1 21 immoralSelf immoralOther mismatch m m 1 0.8293 
31-May-2018_15:42:49 Exp 7336 19 female R 3 1 22 immoralOther immoralSelf mismatch m m 1 0.8124 
31-May-2018_15:42:51 Exp 7336 19 female R 3 1 23 immoralSelf immoralSelf match n n 1 0.6074 
31-May-2018_15:42:53 Exp 7336 19 female R 3 1 24 moralOther moralOther match n n 1 0.4141 
31-May-2018_15:42:55 Exp 7336 19 female R 3 2 1 immoralSelf immoralSelf match n n 1 0.6409 
31-May-2018_15:42:57 Exp 7336 19 female R 3 2 2 moralOther moralOther match n n 1 0.5723 
31-May-2018_15:42:59 Exp 7336 19 female R 3 2 3 immoralSelf immoralOther mismatch m m 1 0.7503 
31-May-2018_15:43:01 Exp 7336 19 female R 3 2 4 moralOther immoralOther mismatch m n 0 0.4760 
31-May-2018_15:43:03 Exp 7336 19 female R 3 2 5 immoralSelf immoralSelf match n n 1 0.5801 
31-May-2018_15:43:06 Exp 7336 19 female R 3 2 6 immoralSelf immoralSelf match n m 0 0.6423 
31-May-2018_15:43:08 Exp 7336 19 female R 3 2 7 immoralSelf immoralOther mismatch m m 1 0.5416 
31-May-2018_15:43:10 Exp 7336 19 female R 3 2 8 moralSelf moralSelf match n n 1 0.5271 
31-May-2018_15:43:12 Exp 7336 19 female R 3 2 9 moralSelf immoralOther mismatch m m 1 0.5404 
31-May-2018_15:43:14 Exp 7336 19 female R 3 2 10 immoralOther immoralOther match n n 1 0.7659 
31-May-2018_15:43:16 Exp 7336 19 female R 3 2 11 immoralOther immoralOther match n n 1 0.4799 
31-May-2018_15:43:18 Exp 7336 19 female R 3 2 12 moralSelf immoralSelf mismatch m m 1 0.5562 
31-May-2018_15:43:20 Exp 7336 19 female R 3 2 13 moralSelf moralOther mismatch m n 0 0.5940 
31-May-2018_15:43:23 Exp 7336 19 female R 3 2 14 moralOther moralSelf mismatch m n 0 0.8924 
31-May-2018_15:43:25 Exp 7336 19 female R 3 2 15 immoralSelf immoralOther mismatch m m 1 0.7489 
31-May-2018_15:43:27 Exp 7336 19 female R 3 2 16 moralSelf moralSelf match n n 1 0.6267 
31-May-2018_15:43:29 Exp 7336 19 female R 3 2 17 immoralOther moralOther mismatch m m 1 0.6498 
31-May-2018_15:43:31 Exp 7336 19 female R 3 2 18 moralOther moralOther match n m 0 0.6255 
31-May-2018_15:43:34 Exp 7336 19 female R 3 2 19 immoralOther moralOther mismatch m m 1 0.5926 
31-May-2018_15:43:36 Exp 7336 19 female R 3 2 20 moralSelf moralSelf match n n 1 0.6190 
31-May-2018_15:43:38 Exp 7336 19 female R 3 2 21 moralOther immoralOther mismatch m m 1 0.7259 
31-May-2018_15:43:40 Exp 7336 19 female R 3 2 22 immoralOther moralSelf mismatch m m 1 0.5749 
31-May-2018_15:43:42 Exp 7336 19 female R 3 2 23 moralOther moralOther match n n 1 0.5892 
31-May-2018_15:43:44 Exp 7336 19 female R 3 2 24 immoralOther immoralOther match n m 0 0.5916 
31-May-2018_15:43:47 Exp 7336 19 female R 3 3 1 immoralOther immoralOther match n n 1 0.7700 
31-May-2018_15:43:49 Exp 7336 19 female R 3 3 2 moralSelf moralSelf match n n 1 0.5240 
31-May-2018_15:43:51 Exp 7336 19 female R 3 3 3 immoralOther moralSelf mismatch m m 1 0.6450 
31-May-2018_15:43:53 Exp 7336 19 female R 3 3 4 moralOther immoralOther mismatch m m 1 0.8526 
31-May-2018_15:43:55 Exp 7336 19 female R 3 3 5 moralOther moralOther match n n 1 0.7082 
31-May-2018_15:43:57 Exp 7336 19 female R 3 3 6 immoralSelf moralSelf mismatch m m 1 0.5450 
31-May-2018_15:44:00 Exp 7336 19 female R 3 3 7 moralOther moralOther match n m 0 0.6586 
31-May-2018_15:44:02 Exp 7336 19 female R 3 3 8 immoralSelf immoralSelf match n n 1 0.6864 
31-May-2018_15:44:04 Exp 7336 19 female R 3 3 9 moralSelf immoralOther mismatch m m 1 0.5947 
31-May-2018_15:44:06 Exp 7336 19 female R 3 3 10 immoralOther immoralOther match n n 1 0.6931 
31-May-2018_15:44:08 Exp 7336 19 female R 3 3 11 moralOther moralOther match n n 1 0.5816 
31-May-2018_15:44:10 Exp 7336 19 female R 3 3 12 moralSelf moralSelf match n n 1 0.5237 
31-May-2018_15:44:12 Exp 7336 19 female R 3 3 13 moralSelf immoralSelf mismatch m m 1 0.6289 
31-May-2018_15:44:15 Exp 7336 19 female R 3 3 14 moralOther moralSelf mismatch m n 0 0.7320 
31-May-2018_15:44:17 Exp 7336 19 female R 3 3 15 immoralOther immoralOther match n n 1 0.5773 
31-May-2018_15:44:19 Exp 7336 19 female R 3 3 16 moralSelf moralOther mismatch m m 1 0.8475 
31-May-2018_15:44:21 Exp 7336 19 female R 3 3 17 moralSelf moralSelf match n m 0 0.5671 
31-May-2018_15:44:23 Exp 7336 19 female R 3 3 18 immoralSelf immoralSelf match n n 1 0.6251 
31-May-2018_15:44:26 Exp 7336 19 female R 3 3 19 immoralOther moralSelf mismatch m m 1 0.6323 
31-May-2018_15:44:28 Exp 7336 19 female R 3 3 20 immoralOther moralSelf mismatch m m 1 0.8154 
31-May-2018_15:44:30 Exp 7336 19 female R 3 3 21 immoralSelf immoralOther mismatch m m 1 0.7383 
31-May-2018_15:44:33 Exp 7336 19 female R 3 3 22 moralOther moralSelf mismatch m m 1 0.8118 
31-May-2018_15:44:35 Exp 7336 19 female R 3 3 23 immoralSelf immoralOther mismatch m m 1 0.7906 
31-May-2018_15:44:37 Exp 7336 19 female R 3 3 24 immoralSelf immoralSelf match n n 1 0.9451 
31-May-2018_15:45:19 Exp 7336 19 female R 3 4 1 moralSelf moralSelf match n n 1 0.4818 
31-May-2018_15:45:21 Exp 7336 19 female R 3 4 2 immoralSelf moralOther mismatch m m 1 0.6062 
31-May-2018_15:45:23 Exp 7336 19 female R 3 4 3 moralOther moralSelf mismatch m m 1 0.5568 
31-May-2018_15:45:25 Exp 7336 19 female R 3 4 4 moralSelf moralOther mismatch m m 1 0.6026 
31-May-2018_15:45:27 Exp 7336 19 female R 3 4 5 immoralSelf immoralSelf match n n 1 0.6012 
31-May-2018_15:45:29 Exp 7336 19 female R 3 4 6 moralSelf moralSelf match n n 1 0.6319 
31-May-2018_15:45:32 Exp 7336 19 female R 3 4 7 immoralOther moralOther mismatch m m 1 0.7750 
31-May-2018_15:45:34 Exp 7336 19 female R 3 4 8 moralSelf immoralOther mismatch m m 1 0.7092 
31-May-2018_15:45:36 Exp 7336 19 female R 3 4 9 immoralSelf immoralOther mismatch m m 1 0.6259 
31-May-2018_15:45:38 Exp 7336 19 female R 3 4 10 immoralOther moralOther mismatch m m 1 0.6732 
31-May-2018_15:45:40 Exp 7336 19 female R 3 4 11 moralOther moralSelf mismatch m m 1 0.5932 
31-May-2018_15:45:42 Exp 7336 19 female R 3 4 12 moralOther moralOther match n n 1 0.6277 
31-May-2018_15:45:45 Exp 7336 19 female R 3 4 13 immoralOther immoralOther match n n 1 0.6669 
31-May-2018_15:45:47 Exp 7336 19 female R 3 4 14 moralOther moralOther match n n 1 0.4866 
31-May-2018_15:45:49 Exp 7336 19 female R 3 4 15 moralSelf moralSelf match n n 1 0.4510 
31-May-2018_15:45:51 Exp 7336 19 female R 3 4 16 immoralOther immoralOther match n m 0 0.6186 
31-May-2018_15:45:53 Exp 7336 19 female R 3 4 17 immoralOther immoralOther match n n 1 0.6055 
31-May-2018_15:45:55 Exp 7336 19 female R 3 4 18 immoralSelf immoralOther mismatch m m 1 0.6202 
31-May-2018_15:45:57 Exp 7336 19 female R 3 4 19 immoralSelf immoralSelf match n n 1 0.7350 
31-May-2018_15:45:59 Exp 7336 19 female R 3 4 20 moralSelf immoralSelf mismatch m m 1 0.6603 
31-May-2018_15:46:02 Exp 7336 19 female R 3 4 21 moralOther immoralSelf mismatch m m 1 0.7682 
31-May-2018_15:46:04 Exp 7336 19 female R 3 4 22 immoralOther moralOther mismatch m m 1 1.0261 
31-May-2018_15:46:06 Exp 7336 19 female R 3 4 23 moralOther moralOther match n n 1 0.6094 
31-May-2018_15:46:09 Exp 7336 19 female R 3 4 24 immoralSelf immoralSelf match n n 1 0.5323 
31-May-2018_15:46:10 Exp 7336 19 female R 3 5 1 immoralOther moralOther mismatch m n 0 0.4335 
31-May-2018_15:46:13 Exp 7336 19 female R 3 5 2 immoralSelf immoralSelf match n n 1 0.6208 
31-May-2018_15:46:15 Exp 7336 19 female R 3 5 3 moralOther moralOther match n n 1 0.5160 
31-May-2018_15:46:17 Exp 7336 19 female R 3 5 4 immoralSelf immoralOther mismatch m m 1 0.6931 
31-May-2018_15:46:19 Exp 7336 19 female R 3 5 5 moralSelf moralSelf match n n 1 0.5656 
31-May-2018_15:46:21 Exp 7336 19 female R 3 5 6 moralSelf moralSelf match n n 1 0.7116 
31-May-2018_15:46:23 Exp 7336 19 female R 3 5 7 immoralSelf immoralSelf match n n 1 0.6044 
31-May-2018_15:46:26 Exp 7336 19 female R 3 5 8 moralSelf immoralSelf mismatch m m 1 0.6190 
31-May-2018_15:46:28 Exp 7336 19 female R 3 5 9 immoralSelf moralSelf mismatch m m 1 0.8859 
31-May-2018_15:46:30 Exp 7336 19 female R 3 5 10 moralOther immoralSelf mismatch m m 1 0.7702 
31-May-2018_15:46:32 Exp 7336 19 female R 3 5 11 moralSelf immoralSelf mismatch m m 1 0.5482 
31-May-2018_15:46:34 Exp 7336 19 female R 3 5 12 moralOther moralOther match n n 1 0.5257 
31-May-2018_15:46:37 Exp 7336 19 female R 3 5 13 moralOther moralOther match n n 1 0.7747 
31-May-2018_15:46:39 Exp 7336 19 female R 3 5 14 immoralOther immoralOther match n n 1 0.6129 
31-May-2018_15:46:41 Exp 7336 19 female R 3 5 15 immoralOther moralSelf mismatch m m 1 0.5758 
31-May-2018_15:46:43 Exp 7336 19 female R 3 5 16 moralOther immoralSelf mismatch m m 1 0.7820 
31-May-2018_15:46:46 Exp 7336 19 female R 3 5 17 immoralOther immoralOther match n n 1 0.7883 
31-May-2018_15:46:48 Exp 7336 19 female R 3 5 18 moralSelf moralSelf match n n 1 0.5346 
31-May-2018_15:46:50 Exp 7336 19 female R 3 5 19 immoralSelf immoralSelf match n n 1 0.5880 
31-May-2018_15:46:52 Exp 7336 19 female R 3 5 20 moralSelf moralOther mismatch m m 1 1.0063 
31-May-2018_15:46:54 Exp 7336 19 female R 3 5 21 immoralOther immoralOther match n n 1 0.6291 
31-May-2018_15:46:56 Exp 7336 19 female R 3 5 22 immoralOther moralSelf mismatch m m 1 0.5642 
31-May-2018_15:46:59 Exp 7336 19 female R 3 5 23 immoralSelf moralSelf mismatch m m 1 0.7341 
31-May-2018_15:47:01 Exp 7336 19 female R 3 5 24 moralOther moralSelf mismatch m m 1 0.6674 
Date Prac Sub Age Sex Hand Block Bin Trial Shape Label Match CorrResp Resp ACC RT
31-May-2018_15:51:06 Exp 7336 19 female R 1 1 1 moralOther moralOther match n h 2 0.5536 
31-May-2018_15:51:09 Exp 7336 19 female R 1 1 2 moralOther immoralOther mismatch m m 1 0.6314 
31-May-2018_15:51:11 Exp 7336 19 female R 1 1 3 moralSelf moralSelf match n n 1 0.5345 
31-May-2018_15:51:13 Exp 7336 19 female R 1 1 4 immoralOther moralOther mismatch m m 1 0.4838 
31-May-2018_15:51:15 Exp 7336 19 female R 1 1 5 moralSelf immoralSelf mismatch m m 1 0.5760 
31-May-2018_15:51:17 Exp 7336 19 female R 1 1 6 immoralSelf immoralSelf match n n 1 0.7823 
31-May-2018_15:51:19 Exp 7336 19 female R 1 1 7 immoralOther immoralSelf mismatch m m 1 0.6525 
31-May-2018_15:51:21 Exp 7336 19 female R 1 1 8 immoralOther immoralOther match n m 0 0.4602 
31-May-2018_15:51:23 Exp 7336 19 female R 1 1 9 immoralSelf immoralSelf match n n 1 0.5679 
31-May-2018_15:51:25 Exp 7336 19 female R 1 1 10 immoralOther immoralOther match n n 1 0.5939 
31-May-2018_15:51:28 Exp 7336 19 female R 1 1 11 immoralOther moralSelf mismatch m m 1 0.5483 
31-May-2018_15:51:30 Exp 7336 19 female R 1 1 12 immoralSelf immoralSelf match n n 1 0.4778 
31-May-2018_15:51:32 Exp 7336 19 female R 1 1 13 moralOther immoralOther mismatch m m 1 0.7898 
31-May-2018_15:51:34 Exp 7336 19 female R 1 1 14 immoralSelf moralOther mismatch m n 0 0.5043 
31-May-2018_15:51:36 Exp 7336 19 female R 1 1 15 moralOther immoralSelf mismatch m m 1 0.7571 
31-May-2018_15:51:38 Exp 7336 19 female R 1 1 16 immoralSelf immoralOther mismatch m m 1 0.7068 
31-May-2018_15:51:41 Exp 7336 19 female R 1 1 17 moralSelf moralOther mismatch m m 1 0.6396 
31-May-2018_15:51:43 Exp 7336 19 female R 1 1 18 moralSelf moralSelf match n n 1 0.8270 
31-May-2018_15:51:45 Exp 7336 19 female R 1 1 19 moralOther moralOther match n m 0 0.5142 
31-May-2018_15:51:47 Exp 7336 19 female R 1 1 20 moralOther moralOther match n n 1 0.4469 
31-May-2018_15:51:49 Exp 7336 19 female R 1 1 21 moralSelf immoralOther mismatch m m 1 0.7426 
31-May-2018_15:51:51 Exp 7336 19 female R 1 1 22 immoralOther immoralOther match n n 1 0.4800 
31-May-2018_15:51:53 Exp 7336 19 female R 1 1 23 immoralSelf immoralOther mismatch m m 1 0.6683 
31-May-2018_15:51:55 Exp 7336 19 female R 1 1 24 moralSelf moralSelf match n n 1 0.5485 
31-May-2018_15:51:58 Exp 7336 19 female R 1 2 1 moralSelf moralSelf match n n 1 0.7900 
31-May-2018_15:52:00 Exp 7336 19 female R 1 2 2 immoralOther immoralOther match n n 1 0.5444 
31-May-2018_15:52:02 Exp 7336 19 female R 1 2 3 immoralSelf immoralOther mismatch m m 1 0.6259 
31-May-2018_15:52:04 Exp 7336 19 female R 1 2 4 moralOther moralOther match n n 1 0.5530 
31-May-2018_15:52:06 Exp 7336 19 female R 1 2 5 moralSelf moralOther mismatch m m 1 0.7748 
31-May-2018_15:52:09 Exp 7336 19 female R 1 2 6 moralSelf immoralOther mismatch m m 1 0.7010 
31-May-2018_15:52:11 Exp 7336 19 female R 1 2 7 immoralSelf immoralOther mismatch m m 1 0.6615 
31-May-2018_15:52:13 Exp 7336 19 female R 1 2 8 immoralSelf immoralSelf match n n 1 0.6413 
31-May-2018_15:52:15 Exp 7336 19 female R 1 2 9 moralOther moralOther match n n 1 0.5327 
31-May-2018_15:52:17 Exp 7336 19 female R 1 2 10 immoralOther moralSelf mismatch m m 1 0.6420 
31-May-2018_15:52:19 Exp 7336 19 female R 1 2 11 immoralOther moralOther mismatch m m 1 0.7574 
31-May-2018_15:52:21 Exp 7336 19 female R 1 2 12 moralSelf moralSelf match n n 1 0.4831 
31-May-2018_15:52:24 Exp 7336 19 female R 1 2 13 moralOther immoralOther mismatch m m 1 0.6395 
31-May-2018_15:52:26 Exp 7336 19 female R 1 2 14 moralOther immoralOther mismatch m m 1 0.5308 
31-May-2018_15:52:28 Exp 7336 19 female R 1 2 15 moralSelf moralSelf match n n 1 0.6400 
31-May-2018_15:52:30 Exp 7336 19 female R 1 2 16 immoralSelf immoralSelf match n n 1 0.5794 
31-May-2018_15:52:32 Exp 7336 19 female R 1 2 17 immoralOther immoralOther match n n 1 0.7936 
31-May-2018_15:52:35 Exp 7336 19 female R 1 2 18 moralOther moralOther match n n 1 0.7961 
31-May-2018_15:52:37 Exp 7336 19 female R 1 2 19 moralSelf immoralOther mismatch m m 1 0.6385 
31-May-2018_15:52:39 Exp 7336 19 female R 1 2 20 moralOther immoralOther mismatch m m 1 0.7139 
31-May-2018_15:52:41 Exp 7336 19 female R 1 2 21 immoralOther immoralOther match n n 1 0.6146 
31-May-2018_15:52:44 Exp 7336 19 female R 1 2 22 immoralSelf moralOther mismatch m m 1 0.8256 
31-May-2018_15:52:46 Exp 7336 19 female R 1 2 23 immoralSelf immoralSelf match n n 1 0.5048 
31-May-2018_15:52:48 Exp 7336 19 female R 1 2 24 immoralOther moralSelf mismatch m m 1 0.6935 
Date Prac Sub Age Sex Hand Block Bin Trial Shape Label Match CorrResp Resp ACC RT
31-May-2018_15:58:17 Exp 7336 19 female R 1 1 1 immoralSelf immoralSelf match n n 1 0.5353 
31-May-2018_15:58:19 Exp 7336 19 female R 1 1 2 immoralSelf moralOther mismatch m m 1 0.7886 
31-May-2018_15:58:21 Exp 7336 19 female R 1 1 3 moralSelf moralSelf match n n 1 0.6470 
31-May-2018_15:58:24 Exp 7336 19 female R 1 1 4 moralOther immoralSelf mismatch m m 1 0.6787 
31-May-2018_15:58:26 Exp 7336 19 female R 1 1 5 moralOther moralOther match n n 1 0.4307 
31-May-2018_15:58:28 Exp 7336 19 female R 1 1 6 immoralOther immoralOther match n m 0 0.5259 
31-May-2018_15:58:30 Exp 7336 19 female R 1 1 7 moralOther immoralOther mismatch m m 1 0.8149 
31-May-2018_15:58:32 Exp 7336 19 female R 1 1 8 moralOther moralOther match n n 1 0.7378 
31-May-2018_15:58:35 Exp 7336 19 female R 1 1 9 immoralOther moralOther mismatch m m 1 0.8311 
31-May-2018_15:58:37 Exp 7336 19 female R 1 1 10 moralOther immoralSelf mismatch m m 1 0.8381 
31-May-2018_15:58:39 Exp 7336 19 female R 1 1 11 immoralSelf immoralSelf match n n 1 0.5696 
31-May-2018_15:58:41 Exp 7336 19 female R 1 1 12 immoralSelf immoralOther mismatch m m 1 0.7876 
31-May-2018_15:58:43 Exp 7336 19 female R 1 1 13 moralSelf immoralSelf mismatch m m 1 0.6700 
31-May-2018_15:58:46 Exp 7336 19 female R 1 1 14 moralSelf moralSelf match n n 1 0.6621 
31-May-2018_15:58:48 Exp 7336 19 female R 1 1 15 immoralSelf moralSelf mismatch m m 1 0.8820 
31-May-2018_15:58:50 Exp 7336 19 female R 1 1 16 immoralOther moralSelf mismatch m m 1 0.6703 
31-May-2018_15:58:52 Exp 7336 19 female R 1 1 17 immoralOther immoralOther match n n 1 0.5664 
31-May-2018_15:58:54 Exp 7336 19 female R 1 1 18 moralOther moralOther match n n 1 0.5603 
31-May-2018_15:58:57 Exp 7336 19 female R 1 1 19 moralSelf immoralOther mismatch m m 1 0.5980 
31-May-2018_15:58:59 Exp 7336 19 female R 1 1 20 immoralOther immoralOther match n n 1 0.5407 
31-May-2018_15:59:01 Exp 7336 19 female R 1 1 21 moralSelf immoralSelf mismatch m m 1 0.6142 
31-May-2018_15:59:03 Exp 7336 19 female R 1 1 22 immoralSelf immoralSelf match n n 1 0.6251 
31-May-2018_15:59:05 Exp 7336 19 female R 1 1 23 moralSelf moralSelf match n n 1 0.5362 
31-May-2018_15:59:07 Exp 7336 19 female R 1 1 24 immoralOther moralSelf mismatch m m 1 0.6775 
31-May-2018_15:59:09 Exp 7336 19 female R 1 2 1 moralSelf moralSelf match n n 1 0.5096 
31-May-2018_15:59:11 Exp 7336 19 female R 1 2 2 immoralSelf moralSelf mismatch m m 1 0.6903 
31-May-2018_15:59:14 Exp 7336 19 female R 1 2 3 immoralOther immoralOther match n n 1 0.5348 
31-May-2018_15:59:16 Exp 7336 19 female R 1 2 4 moralOther moralOther match n n 1 0.6679 
31-May-2018_15:59:18 Exp 7336 19 female R 1 2 5 moralSelf moralSelf match n n 1 0.5480 
31-May-2018_15:59:20 Exp 7336 19 female R 1 2 6 immoralOther immoralSelf mismatch m m 1 0.6536 
31-May-2018_15:59:22 Exp 7336 19 female R 1 2 7 moralOther moralSelf mismatch m n 0 0.5811 
31-May-2018_15:59:24 Exp 7336 19 female R 1 2 8 moralOther immoralSelf mismatch m m 1 0.6434 
31-May-2018_15:59:26 Exp 7336 19 female R 1 2 9 moralSelf immoralSelf mismatch m m 1 0.7427 
31-May-2018_15:59:29 Exp 7336 19 female R 1 2 10 immoralSelf immoralSelf match n n 1 0.6082 
31-May-2018_15:59:31 Exp 7336 19 female R 1 2 11 immoralSelf immoralOther mismatch m m 1 0.6229 
31-May-2018_15:59:33 Exp 7336 19 female R 1 2 12 immoralOther moralSelf mismatch m m 1 0.6780 
31-May-2018_15:59:35 Exp 7336 19 female R 1 2 13 immoralOther moralSelf mismatch m m 1 0.6061 
31-May-2018_15:59:37 Exp 7336 19 female R 1 2 14 immoralSelf immoralSelf match n n 1 0.5968 
31-May-2018_15:59:40 Exp 7336 19 female R 1 2 15 immoralSelf immoralSelf match n n 1 0.9192 
31-May-2018_15:59:42 Exp 7336 19 female R 1 2 16 moralOther moralOther match n n 1 0.6482 
31-May-2018_15:59:44 Exp 7336 19 female R 1 2 17 immoralOther immoralOther match n n 1 0.7919 
31-May-2018_15:59:46 Exp 7336 19 female R 1 2 18 moralOther immoralSelf mismatch m m 1 0.6823 
31-May-2018_15:59:49 Exp 7336 19 female R 1 2 19 immoralSelf moralSelf mismatch m m 1 0.6866 
31-May-2018_15:59:51 Exp 7336 19 female R 1 2 20 moralOther moralOther match n n 1 0.5149 
31-May-2018_15:59:53 Exp 7336 19 female R 1 2 21 immoralOther immoralOther match n n 1 0.5800 
31-May-2018_15:59:55 Exp 7336 19 female R 1 2 22 moralSelf moralOther mismatch m NA -1 1.0731 
31-May-2018_15:59:57 Exp 7336 19 female R 1 2 23 moralSelf moralSelf match n n 1 0.5221 
31-May-2018_16:00:00 Exp 7336 19 female R 1 2 24 moralSelf moralOther mismatch m m 1 0.6513 
Date Prac Sub Age Sex Hand Block Bin Trial Shape Label Match CorrResp Resp ACC RT
31-May-2018_16:03:40 Exp 7336 19 female R 1 1 1 immoralSelf moralSelf mismatch m m 1 0.6770 
31-May-2018_16:03:42 Exp 7336 19 female R 1 1 2 moralOther immoralOther mismatch m m 1 0.7332 
31-May-2018_16:03:45 Exp 7336 19 female R 1 1 3 immoralOther immoralOther match n n 1 0.6904 
31-May-2018_16:03:47 Exp 7336 19 female R 1 1 4 immoralSelf immoralSelf match n n 1 0.7588 
31-May-2018_16:03:49 Exp 7336 19 female R 1 1 5 immoralOther moralOther mismatch m m 1 0.6605 
31-May-2018_16:03:51 Exp 7336 19 female R 1 1 6 moralOther moralSelf mismatch m m 1 0.7363 
31-May-2018_16:03:53 Exp 7336 19 female R 1 1 7 moralSelf moralSelf match n n 1 0.6857 
31-May-2018_16:03:56 Exp 7336 19 female R 1 1 8 moralOther moralSelf mismatch m m 1 0.7300 
31-May-2018_16:03:58 Exp 7336 19 female R 1 1 9 moralSelf moralOther mismatch m m 1 0.7112 
31-May-2018_16:04:00 Exp 7336 19 female R 1 1 10 moralSelf moralSelf match n n 1 0.6840 
31-May-2018_16:04:02 Exp 7336 19 female R 1 1 11 moralSelf moralSelf match n n 1 0.5843 
31-May-2018_16:04:04 Exp 7336 19 female R 1 1 12 immoralOther immoralSelf mismatch m m 1 0.6785 
31-May-2018_16:04:07 Exp 7336 19 female R 1 1 13 immoralSelf moralSelf mismatch m m 1 0.6866 
31-May-2018_16:04:09 Exp 7336 19 female R 1 1 14 moralSelf immoralSelf mismatch m m 1 0.6109 
31-May-2018_16:04:11 Exp 7336 19 female R 1 1 15 immoralOther immoralOther match n n 1 0.5818 
31-May-2018_16:04:13 Exp 7336 19 female R 1 1 16 immoralOther immoralOther match n n 1 0.7001 
31-May-2018_16:04:15 Exp 7336 19 female R 1 1 17 moralOther moralOther match n n 1 0.6206 
31-May-2018_16:04:18 Exp 7336 19 female R 1 1 18 moralSelf moralOther mismatch m m 1 0.7637 
31-May-2018_16:04:20 Exp 7336 19 female R 1 1 19 moralOther moralOther match n n 1 0.8777 
31-May-2018_16:04:22 Exp 7336 19 female R 1 1 20 immoralSelf immoralSelf match n m 0 0.6059 
31-May-2018_16:04:24 Exp 7336 19 female R 1 1 21 immoralOther moralOther mismatch m m 1 0.7725 
31-May-2018_16:04:27 Exp 7336 19 female R 1 1 22 moralOther moralOther match n n 1 1.0224 
31-May-2018_16:04:29 Exp 7336 19 female R 1 1 23 immoralSelf moralSelf mismatch m m 1 0.6936 
31-May-2018_16:04:31 Exp 7336 19 female R 1 1 24 immoralSelf immoralSelf match n n 1 0.5421 
31-May-2018_16:04:33 Exp 7336 19 female R 1 2 1 immoralSelf immoralOther mismatch m m 1 0.6156 
31-May-2018_16:04:36 Exp 7336 19 female R 1 2 2 moralSelf moralOther mismatch m m 1 0.6745 
31-May-2018_16:04:38 Exp 7336 19 female R 1 2 3 moralSelf moralOther mismatch m m 1 0.6906 
31-May-2018_16:04:40 Exp 7336 19 female R 1 2 4 moralOther moralOther match n n 1 0.5590 
31-May-2018_16:04:42 Exp 7336 19 female R 1 2 5 immoralOther immoralOther match n n 1 0.6607 
31-May-2018_16:04:44 Exp 7336 19 female R 1 2 6 moralSelf immoralSelf mismatch m m 1 0.7126 
31-May-2018_16:04:46 Exp 7336 19 female R 1 2 7 moralOther moralOther match n n 1 0.5493 
31-May-2018_16:04:49 Exp 7336 19 female R 1 2 8 immoralSelf moralOther mismatch m m 1 0.6388 
31-May-2018_16:04:51 Exp 7336 19 female R 1 2 9 immoralSelf immoralSelf match n n 1 0.8022 
31-May-2018_16:04:53 Exp 7336 19 female R 1 2 10 immoralOther immoralOther match n n 1 0.5289 
31-May-2018_16:04:55 Exp 7336 19 female R 1 2 11 moralOther immoralOther mismatch m m 1 0.6541 
31-May-2018_16:04:57 Exp 7336 19 female R 1 2 12 moralSelf moralSelf match n n 1 0.5338 
31-May-2018_16:04:59 Exp 7336 19 female R 1 2 13 moralOther immoralSelf mismatch m m 1 0.6590 
31-May-2018_16:05:02 Exp 7336 19 female R 1 2 14 moralSelf moralSelf match n n 1 0.7109 
31-May-2018_16:05:04 Exp 7336 19 female R 1 2 15 immoralOther immoralOther match n n 1 0.6916 
31-May-2018_16:05:06 Exp 7336 19 female R 1 2 16 immoralSelf immoralSelf match n n 1 0.7162 
31-May-2018_16:05:08 Exp 7336 19 female R 1 2 17 moralOther immoralSelf mismatch m m 1 0.7572 
31-May-2018_16:05:10 Exp 7336 19 female R 1 2 18 immoralSelf immoralSelf match n n 1 0.5150 
31-May-2018_16:05:13 Exp 7336 19 female R 1 2 19 immoralOther moralOther mismatch m m 1 0.8199 
31-May-2018_16:05:15 Exp 7336 19 female R 1 2 20 immoralOther immoralSelf mismatch m m 1 0.6149 
31-May-2018_16:05:17 Exp 7336 19 female R 1 2 21 moralOther moralOther match n n 1 0.5538 
31-May-2018_16:05:19 Exp 7336 19 female R 1 2 22 moralSelf moralSelf match n n 1 0.5595 
31-May-2018_16:05:22 Exp 7336 19 female R 1 2 23 immoralSelf moralSelf mismatch m m 1 0.9493 
31-May-2018_16:05:24 Exp 7336 19 female R 1 2 24 immoralOther immoralSelf mismatch m n 0 0.6148 
Date Prac Sub Age Sex Hand Block Bin Trial Shape Label Match CorrResp Resp ACC RT
31-May-2018_16:09:14 Exp 7336 19 female R 1 1 1 moralOther immoralOther mismatch m m 1 0.6956 
31-May-2018_16:09:16 Exp 7336 19 female R 1 1 2 immoralSelf immoralSelf match n n 1 0.5523 
31-May-2018_16:09:18 Exp 7336 19 female R 1 1 3 moralSelf moralOther mismatch m m 1 0.6139 
31-May-2018_16:09:20 Exp 7336 19 female R 1 1 4 moralSelf moralOther mismatch m m 1 0.6568 
31-May-2018_16:09:22 Exp 7336 19 female R 1 1 5 moralOther immoralSelf mismatch m m 1 0.7327 
31-May-2018_16:09:25 Exp 7336 19 female R 1 1 6 immoralOther immoralSelf mismatch m m 1 0.6420 
31-May-2018_16:09:27 Exp 7336 19 female R 1 1 7 immoralOther immoralOther match n m 0 0.5494 
31-May-2018_16:09:29 Exp 7336 19 female R 1 1 8 moralOther moralOther match n n 1 0.4949 
31-May-2018_16:09:31 Exp 7336 19 female R 1 1 9 immoralSelf immoralSelf match n n 1 0.5834 
31-May-2018_16:09:33 Exp 7336 19 female R 1 1 10 moralOther moralOther match n n 1 0.5816 
31-May-2018_16:09:35 Exp 7336 19 female R 1 1 11 immoralSelf immoralSelf match n n 1 0.3318 
31-May-2018_16:09:37 Exp 7336 19 female R 1 1 12 moralSelf moralSelf match n m 0 0.5930 
31-May-2018_16:09:39 Exp 7336 19 female R 1 1 13 immoralSelf moralSelf mismatch m m 1 0.7154 
31-May-2018_16:09:41 Exp 7336 19 female R 1 1 14 immoralSelf immoralOther mismatch m m 1 0.7806 
31-May-2018_16:09:44 Exp 7336 19 female R 1 1 15 moralSelf moralSelf match n n 1 0.5867 
31-May-2018_16:09:46 Exp 7336 19 female R 1 1 16 immoralOther immoralSelf mismatch m m 1 0.6772 
31-May-2018_16:09:48 Exp 7336 19 female R 1 1 17 moralOther immoralOther mismatch m m 1 0.7653 
31-May-2018_16:09:50 Exp 7336 19 female R 1 1 18 moralSelf moralSelf match n n 1 0.8712 
31-May-2018_16:09:53 Exp 7336 19 female R 1 1 19 moralOther moralOther match n n 1 0.6873 
31-May-2018_16:09:55 Exp 7336 19 female R 1 1 20 moralSelf moralOther mismatch m m 1 0.9476 
31-May-2018_16:09:58 Exp 7336 19 female R 1 1 21 immoralSelf moralSelf mismatch m m 1 0.9331 
31-May-2018_16:10:00 Exp 7336 19 female R 1 1 22 immoralOther moralOther mismatch m m 1 0.6905 
31-May-2018_16:10:02 Exp 7336 19 female R 1 1 23 immoralOther immoralOther match n n 1 0.5907 
31-May-2018_16:10:04 Exp 7336 19 female R 1 1 24 immoralOther immoralOther match n n 1 0.7052 
31-May-2018_16:10:06 Exp 7336 19 female R 1 2 1 moralOther moralOther match n n 1 0.5660 
31-May-2018_16:10:08 Exp 7336 19 female R 1 2 2 moralOther immoralSelf mismatch m m 1 0.6319 
31-May-2018_16:10:11 Exp 7336 19 female R 1 2 3 moralSelf moralOther mismatch m m 1 0.9350 
31-May-2018_16:10:13 Exp 7336 19 female R 1 2 4 immoralOther immoralSelf mismatch m m 1 0.6924 
31-May-2018_16:10:15 Exp 7336 19 female R 1 2 5 moralSelf immoralOther mismatch m m 1 0.6370 
31-May-2018_16:10:17 Exp 7336 19 female R 1 2 6 immoralSelf moralOther mismatch m m 1 0.6163 
31-May-2018_16:10:19 Exp 7336 19 female R 1 2 7 moralOther moralOther match n n 1 0.5153 
31-May-2018_16:10:21 Exp 7336 19 female R 1 2 8 immoralSelf moralOther mismatch m m 1 0.5401 
31-May-2018_16:10:24 Exp 7336 19 female R 1 2 9 immoralOther moralOther mismatch m m 1 0.6457 
31-May-2018_16:10:26 Exp 7336 19 female R 1 2 10 immoralOther immoralOther match n n 1 0.7413 
31-May-2018_16:10:28 Exp 7336 19 female R 1 2 11 immoralSelf immoralSelf match n n 1 0.7028 
31-May-2018_16:10:30 Exp 7336 19 female R 1 2 12 moralSelf moralSelf match n n 1 0.6074 
31-May-2018_16:10:32 Exp 7336 19 female R 1 2 13 moralSelf moralSelf match n n 1 0.4860 
31-May-2018_16:10:35 Exp 7336 19 female R 1 2 14 moralOther moralSelf mismatch m m 1 0.9863 
31-May-2018_16:10:37 Exp 7336 19 female R 1 2 15 immoralOther immoralOther match n m 0 0.4849 
31-May-2018_16:10:39 Exp 7336 19 female R 1 2 16 immoralOther moralOther mismatch m m 1 0.8730 
31-May-2018_16:10:42 Exp 7336 19 female R 1 2 17 moralOther moralOther match n n 1 0.8332 
31-May-2018_16:10:44 Exp 7336 19 female R 1 2 18 moralSelf immoralSelf mismatch m m 1 0.6926 
31-May-2018_16:10:46 Exp 7336 19 female R 1 2 19 immoralSelf immoralSelf match n n 1 0.6932 
31-May-2018_16:10:48 Exp 7336 19 female R 1 2 20 immoralSelf immoralSelf match n n 1 0.6138 
31-May-2018_16:10:50 Exp 7336 19 female R 1 2 21 moralOther moralSelf mismatch m m 1 0.7526 
31-May-2018_16:10:53 Exp 7336 19 female R 1 2 22 immoralOther immoralOther match n n 1 0.5424 
31-May-2018_16:10:55 Exp 7336 19 female R 1 2 23 immoralSelf moralOther mismatch m m 1 0.6719 
31-May-2018_16:10:57 Exp 7336 19 female R 1 2 24 moralSelf moralSelf match n n 1 0.9039 
Date Prac Sub Age Sex Hand Block Bin Trial Shape Label Match CorrResp Resp ACC RT
31-May-2018_16:14:43 Exp 7336 19 female R 1 1 1 moralOther moralOther match n n 1 0.6540 
31-May-2018_16:14:46 Exp 7336 19 female R 1 1 2 immoralOther moralSelf mismatch m m 1 0.6215 
31-May-2018_16:14:48 Exp 7336 19 female R 1 1 3 immoralOther moralSelf mismatch m m 1 0.6607 
31-May-2018_16:14:50 Exp 7336 19 female R 1 1 4 moralOther moralOther match n n 1 0.7046 
31-May-2018_16:14:52 Exp 7336 19 female R 1 1 5 moralSelf moralOther mismatch m n 0 0.4694 
31-May-2018_16:14:54 Exp 7336 19 female R 1 1 6 immoralOther immoralOther match n n 1 0.7255 
31-May-2018_16:14:56 Exp 7336 19 female R 1 1 7 moralSelf moralSelf match n m 0 0.4945 
31-May-2018_16:14:58 Exp 7336 19 female R 1 1 8 moralSelf moralOther mismatch m n 0 0.4390 
31-May-2018_16:15:00 Exp 7336 19 female R 1 1 9 immoralSelf moralOther mismatch m m 1 0.6264 
31-May-2018_16:15:02 Exp 7336 19 female R 1 1 10 immoralSelf moralOther mismatch m m 1 0.5536 
31-May-2018_16:15:05 Exp 7336 19 female R 1 1 11 immoralOther immoralOther match n n 1 0.5833 
31-May-2018_16:15:07 Exp 7336 19 female R 1 1 12 immoralOther moralOther mismatch m n 0 0.5415 
31-May-2018_16:15:09 Exp 7336 19 female R 1 1 13 moralSelf moralSelf match n n 1 0.4949 
31-May-2018_16:15:11 Exp 7336 19 female R 1 1 14 moralSelf moralSelf match n n 1 0.5034 
31-May-2018_16:15:13 Exp 7336 19 female R 1 1 15 moralSelf immoralSelf mismatch m m 1 0.6203 
31-May-2018_16:15:15 Exp 7336 19 female R 1 1 16 moralOther moralSelf mismatch m n 0 0.5112 
31-May-2018_16:15:17 Exp 7336 19 female R 1 1 17 moralOther immoralOther mismatch m m 1 0.7560 
31-May-2018_16:15:19 Exp 7336 19 female R 1 1 18 moralOther moralSelf mismatch m m 1 0.7377 
31-May-2018_16:15:21 Exp 7336 19 female R 1 1 19 immoralSelf moralOther mismatch m m 1 0.6071 
31-May-2018_16:15:24 Exp 7336 19 female R 1 1 20 immoralSelf immoralSelf match n n 1 0.5737 
31-May-2018_16:15:26 Exp 7336 19 female R 1 1 21 immoralSelf immoralSelf match n n 1 0.6040 
31-May-2018_16:15:28 Exp 7336 19 female R 1 1 22 immoralSelf immoralSelf match n n 1 0.4825 
31-May-2018_16:15:30 Exp 7336 19 female R 1 1 23 immoralOther immoralOther match n n 1 0.5588 
31-May-2018_16:15:32 Exp 7336 19 female R 1 1 24 moralOther moralOther match n n 1 0.6526 
31-May-2018_16:15:34 Exp 7336 19 female R 1 2 1 immoralOther immoralOther match n n 1 0.5642 
31-May-2018_16:15:36 Exp 7336 19 female R 1 2 2 immoralOther moralOther mismatch m m 1 0.7742 
31-May-2018_16:15:39 Exp 7336 19 female R 1 2 3 immoralOther moralOther mismatch m m 1 0.7244 
31-May-2018_16:15:41 Exp 7336 19 female R 1 2 4 moralOther immoralOther mismatch m m 1 0.7094 
31-May-2018_16:15:43 Exp 7336 19 female R 1 2 5 moralOther moralOther match n n 1 0.5783 
31-May-2018_16:15:45 Exp 7336 19 female R 1 2 6 moralOther moralOther match n m 0 0.6644 
31-May-2018_16:15:47 Exp 7336 19 female R 1 2 7 immoralSelf immoralSelf match n n 1 0.6043 
31-May-2018_16:15:50 Exp 7336 19 female R 1 2 8 immoralOther immoralOther match n n 1 0.7230 
31-May-2018_16:15:52 Exp 7336 19 female R 1 2 9 immoralSelf moralOther mismatch m m 1 0.7079 
31-May-2018_16:15:54 Exp 7336 19 female R 1 2 10 moralSelf moralSelf match n n 1 0.5687 
31-May-2018_16:15:56 Exp 7336 19 female R 1 2 11 immoralOther immoralOther match n n 1 0.5147 
31-May-2018_16:15:58 Exp 7336 19 female R 1 2 12 moralOther immoralSelf mismatch m m 1 0.6795 
31-May-2018_16:16:00 Exp 7336 19 female R 1 2 13 immoralSelf immoralSelf match n n 1 0.6119 
31-May-2018_16:16:03 Exp 7336 19 female R 1 2 14 immoralOther immoralSelf mismatch m NA -1 1.0731 
31-May-2018_16:16:05 Exp 7336 19 female R 1 2 15 moralOther moralOther match n n 1 0.5428 
31-May-2018_16:16:07 Exp 7336 19 female R 1 2 16 immoralSelf moralOther mismatch m m 1 0.5843 
31-May-2018_16:16:09 Exp 7336 19 female R 1 2 17 moralSelf immoralSelf mismatch m m 1 0.6545 
31-May-2018_16:16:11 Exp 7336 19 female R 1 2 18 immoralSelf moralOther mismatch m m 1 0.6302 
31-May-2018_16:16:14 Exp 7336 19 female R 1 2 19 immoralSelf immoralSelf match n n 1 0.6133 
31-May-2018_16:16:16 Exp 7336 19 female R 1 2 20 moralOther moralSelf mismatch m m 1 0.6322 
31-May-2018_16:16:18 Exp 7336 19 female R 1 2 21 moralSelf immoralOther mismatch m m 1 0.5273 
31-May-2018_16:16:20 Exp 7336 19 female R 1 2 22 moralSelf moralSelf match n n 1 0.4365 
31-May-2018_16:16:22 Exp 7336 19 female R 1 2 23 moralSelf moralSelf match n n 1 0.6480 
31-May-2018_16:16:24 Exp 7336 19 female R 1 2 24 moralSelf immoralSelf mismatch m m 1 0.6555 
