Date Prac Sub Age Sex Hand Block Bin Trial Shape Label Match CorrResp Resp ACC RT
17-May-2018_15:09:56 Exp 7319 19 male R 1 1 1 moralSelf moralOther mismatch n n 1 0.8916 
17-May-2018_15:09:58 Exp 7319 19 male R 1 1 2 immoralOther immoralOther match m n 0 0.8716 
17-May-2018_15:10:00 Exp 7319 19 male R 1 1 3 immoralSelf immoralSelf match m n 0 0.7549 
17-May-2018_15:10:02 Exp 7319 19 male R 1 1 4 immoralOther moralOther mismatch n m 0 0.6680 
17-May-2018_15:10:05 Exp 7319 19 male R 1 1 5 moralOther moralOther match m m 1 0.7193 
17-May-2018_15:10:07 Exp 7319 19 male R 1 1 6 moralSelf immoralSelf mismatch n n 1 0.7637 
17-May-2018_15:10:09 Exp 7319 19 male R 1 1 7 moralOther immoralSelf mismatch n n 1 0.8490 
17-May-2018_15:10:12 Exp 7319 19 male R 1 1 8 immoralSelf immoralSelf match m m 1 0.9878 
17-May-2018_15:10:14 Exp 7319 19 male R 1 1 9 immoralSelf moralOther mismatch n n 1 1.0095 
17-May-2018_15:10:17 Exp 7319 19 male R 1 1 10 immoralOther immoralOther match m m 1 1.0558 
17-May-2018_15:10:19 Exp 7319 19 male R 1 1 11 moralOther moralOther match m m 1 0.7270 
17-May-2018_15:10:21 Exp 7319 19 male R 1 1 12 immoralSelf immoralSelf match m n 0 0.7835 
17-May-2018_15:10:24 Exp 7319 19 male R 1 1 13 immoralOther moralSelf mismatch n n 1 0.9450 
17-May-2018_15:10:26 Exp 7319 19 male R 1 1 14 moralSelf moralSelf match m m 1 0.6379 
17-May-2018_15:10:28 Exp 7319 19 male R 1 1 15 moralOther immoralSelf mismatch n n 1 0.8926 
17-May-2018_15:10:31 Exp 7319 19 male R 1 1 16 moralSelf moralSelf match m m 1 0.7924 
17-May-2018_15:10:33 Exp 7319 19 male R 1 1 17 moralSelf immoralOther mismatch n n 1 0.7662 
17-May-2018_15:10:35 Exp 7319 19 male R 1 1 18 immoralSelf immoralOther mismatch n NA -1 1.1831 
17-May-2018_15:10:38 Exp 7319 19 male R 1 1 19 moralSelf moralSelf match m m 1 0.6050 
17-May-2018_15:10:40 Exp 7319 19 male R 1 1 20 immoralSelf moralSelf mismatch n n 1 0.8149 
17-May-2018_15:10:42 Exp 7319 19 male R 1 1 21 immoralOther moralOther mismatch n n 1 0.8931 
17-May-2018_15:10:45 Exp 7319 19 male R 1 1 22 moralOther moralSelf mismatch n n 1 0.8089 
17-May-2018_15:10:47 Exp 7319 19 male R 1 1 23 immoralOther immoralOther match m m 1 0.8792 
17-May-2018_15:10:49 Exp 7319 19 male R 1 1 24 moralOther moralOther match m m 1 0.7066 
17-May-2018_15:10:51 Exp 7319 19 male R 1 2 1 immoralSelf moralSelf mismatch n n 1 0.7066 
17-May-2018_15:10:54 Exp 7319 19 male R 1 2 2 immoralOther immoralOther match m m 1 0.8027 
17-May-2018_15:10:56 Exp 7319 19 male R 1 2 3 moralOther immoralOther mismatch n m 0 0.9008 
17-May-2018_15:10:58 Exp 7319 19 male R 1 2 4 moralSelf moralSelf match m m 1 0.7765 
17-May-2018_15:11:01 Exp 7319 19 male R 1 2 5 immoralSelf immoralSelf match m n 0 0.8181 
17-May-2018_15:11:03 Exp 7319 19 male R 1 2 6 immoralOther immoralOther match m m 1 0.8723 
17-May-2018_15:11:05 Exp 7319 19 male R 1 2 7 moralOther moralOther match m m 1 1.0196 
17-May-2018_15:11:08 Exp 7319 19 male R 1 2 8 moralOther immoralSelf mismatch n n 1 0.6980 
17-May-2018_15:11:10 Exp 7319 19 male R 1 2 9 moralSelf immoralSelf mismatch n n 1 0.7177 
17-May-2018_15:11:12 Exp 7319 19 male R 1 2 10 moralOther moralSelf mismatch n n 1 0.8181 
17-May-2018_15:11:15 Exp 7319 19 male R 1 2 11 immoralSelf immoralOther mismatch n n 1 0.8883 
17-May-2018_15:11:17 Exp 7319 19 male R 1 2 12 moralSelf moralOther mismatch n n 1 0.9598 
17-May-2018_15:11:19 Exp 7319 19 male R 1 2 13 immoralSelf moralSelf mismatch n n 1 0.7609 
17-May-2018_15:11:22 Exp 7319 19 male R 1 2 14 moralOther moralOther match m m 1 0.7859 
17-May-2018_15:11:24 Exp 7319 19 male R 1 2 15 moralSelf moralSelf match m m 1 0.7197 
17-May-2018_15:11:26 Exp 7319 19 male R 1 2 16 immoralOther immoralOther match m m 1 0.7641 
17-May-2018_15:11:28 Exp 7319 19 male R 1 2 17 immoralSelf immoralSelf match m n 0 0.8174 
17-May-2018_15:11:31 Exp 7319 19 male R 1 2 18 immoralSelf immoralSelf match m m 1 0.7995 
17-May-2018_15:11:33 Exp 7319 19 male R 1 2 19 moralSelf moralSelf match m m 1 0.7535 
17-May-2018_15:11:35 Exp 7319 19 male R 1 2 20 immoralOther moralSelf mismatch n n 1 0.7145 
17-May-2018_15:11:37 Exp 7319 19 male R 1 2 21 immoralOther moralOther mismatch n m 0 0.9067 
17-May-2018_15:11:40 Exp 7319 19 male R 1 2 22 immoralOther moralOther mismatch n n 1 0.7947 
17-May-2018_15:11:42 Exp 7319 19 male R 1 2 23 moralSelf moralOther mismatch n n 1 0.8565 
17-May-2018_15:11:44 Exp 7319 19 male R 1 2 24 moralOther moralOther match m m 1 0.7356 
17-May-2018_15:11:47 Exp 7319 19 male R 1 3 1 moralOther moralSelf mismatch n n 1 0.7522 
17-May-2018_15:11:49 Exp 7319 19 male R 1 3 2 immoralOther immoralSelf mismatch n n 1 0.8173 
17-May-2018_15:11:52 Exp 7319 19 male R 1 3 3 immoralOther moralSelf mismatch n NA -1 1.1831 
17-May-2018_15:11:54 Exp 7319 19 male R 1 3 4 moralOther immoralSelf mismatch n n 1 0.7849 
17-May-2018_15:11:56 Exp 7319 19 male R 1 3 5 immoralSelf immoralOther mismatch n n 1 1.0745 
17-May-2018_15:11:59 Exp 7319 19 male R 1 3 6 moralOther moralOther match m m 1 0.7738 
17-May-2018_15:12:01 Exp 7319 19 male R 1 3 7 moralSelf moralSelf match m m 1 0.6233 
17-May-2018_15:12:03 Exp 7319 19 male R 1 3 8 immoralSelf immoralSelf match m n 0 0.9458 
17-May-2018_15:12:06 Exp 7319 19 male R 1 3 9 moralOther moralOther match m m 1 0.9905 
17-May-2018_15:12:08 Exp 7319 19 male R 1 3 10 moralSelf immoralOther mismatch n n 1 0.8042 
17-May-2018_15:12:10 Exp 7319 19 male R 1 3 11 immoralSelf immoralOther mismatch n n 1 0.9823 
17-May-2018_15:12:13 Exp 7319 19 male R 1 3 12 moralSelf moralSelf match m m 1 0.6718 
17-May-2018_15:12:15 Exp 7319 19 male R 1 3 13 moralOther moralOther match m m 1 0.7232 
17-May-2018_15:12:17 Exp 7319 19 male R 1 3 14 immoralSelf immoralSelf match m n 0 0.7355 
17-May-2018_15:12:19 Exp 7319 19 male R 1 3 15 moralOther immoralSelf mismatch n m 0 0.9360 
17-May-2018_15:12:22 Exp 7319 19 male R 1 3 16 immoralOther immoralOther match m n 0 0.9606 
17-May-2018_15:12:24 Exp 7319 19 male R 1 3 17 moralSelf moralOther mismatch n n 1 0.8657 
17-May-2018_15:12:27 Exp 7319 19 male R 1 3 18 immoralSelf moralOther mismatch n n 1 0.8807 
17-May-2018_15:12:29 Exp 7319 19 male R 1 3 19 immoralOther immoralOther match m m 1 0.8086 
17-May-2018_15:12:31 Exp 7319 19 male R 1 3 20 moralSelf moralSelf match m n 0 0.6584 
17-May-2018_15:12:33 Exp 7319 19 male R 1 3 21 immoralOther immoralOther match m m 1 0.7296 
17-May-2018_15:12:36 Exp 7319 19 male R 1 3 22 immoralSelf immoralSelf match m n 0 0.7621 
17-May-2018_15:12:38 Exp 7319 19 male R 1 3 23 moralSelf immoralOther mismatch n n 1 0.8634 
17-May-2018_15:12:40 Exp 7319 19 male R 1 3 24 immoralOther immoralSelf mismatch n n 1 0.8545 
17-May-2018_15:13:14 Exp 7319 19 male R 1 4 1 moralOther moralOther match m m 1 0.8487 
17-May-2018_15:13:16 Exp 7319 19 male R 1 4 2 moralSelf immoralOther mismatch n n 1 0.6438 
17-May-2018_15:13:19 Exp 7319 19 male R 1 4 3 moralOther immoralOther mismatch n m 0 0.9464 
17-May-2018_15:13:21 Exp 7319 19 male R 1 4 4 moralSelf moralSelf match m n 0 0.6792 
17-May-2018_15:13:23 Exp 7319 19 male R 1 4 5 moralOther moralOther match m m 1 0.7706 
17-May-2018_15:13:25 Exp 7319 19 male R 1 4 6 moralSelf moralOther mismatch n n 1 0.6799 
17-May-2018_15:13:28 Exp 7319 19 male R 1 4 7 moralOther immoralOther mismatch n n 1 1.0795 
17-May-2018_15:13:30 Exp 7319 19 male R 1 4 8 immoralSelf immoralOther mismatch n n 1 0.8152 
17-May-2018_15:13:32 Exp 7319 19 male R 1 4 9 moralSelf moralSelf match m m 1 0.6613 
17-May-2018_15:13:34 Exp 7319 19 male R 1 4 10 immoralOther moralOther mismatch n m 0 0.6925 
17-May-2018_15:13:37 Exp 7319 19 male R 1 4 11 immoralSelf moralOther mismatch n n 1 0.8483 
17-May-2018_15:13:39 Exp 7319 19 male R 1 4 12 immoralSelf immoralOther mismatch n n 1 0.7392 
17-May-2018_15:13:41 Exp 7319 19 male R 1 4 13 moralOther moralOther match m m 1 0.8000 
17-May-2018_15:13:44 Exp 7319 19 male R 1 4 14 immoralSelf immoralSelf match m n 0 0.9620 
17-May-2018_15:13:46 Exp 7319 19 male R 1 4 15 immoralOther moralOther mismatch n n 1 0.8393 
17-May-2018_15:13:49 Exp 7319 19 male R 1 4 16 immoralOther immoralOther match m m 1 1.0699 
17-May-2018_15:13:51 Exp 7319 19 male R 1 4 17 immoralOther immoralOther match m m 1 0.6973 
17-May-2018_15:13:53 Exp 7319 19 male R 1 4 18 moralSelf moralOther mismatch n n 1 0.7493 
17-May-2018_15:13:55 Exp 7319 19 male R 1 4 19 immoralSelf immoralSelf match m m 1 0.8981 
17-May-2018_15:13:58 Exp 7319 19 male R 1 4 20 moralSelf moralSelf match m m 1 0.7259 
17-May-2018_15:14:00 Exp 7319 19 male R 1 4 21 immoralOther immoralOther match m n 0 1.0581 
17-May-2018_15:14:02 Exp 7319 19 male R 1 4 22 moralOther immoralOther mismatch n n 1 0.6813 
17-May-2018_15:14:05 Exp 7319 19 male R 1 4 23 immoralSelf immoralSelf match m n 0 0.6249 
17-May-2018_15:14:07 Exp 7319 19 male R 1 4 24 immoralOther immoralSelf mismatch n n 1 0.8514 
17-May-2018_15:14:10 Exp 7319 19 male R 1 5 1 moralSelf immoralOther mismatch n n 1 1.1183 
17-May-2018_15:14:12 Exp 7319 19 male R 1 5 2 immoralOther moralOther mismatch n n 1 0.9066 
17-May-2018_15:14:14 Exp 7319 19 male R 1 5 3 immoralSelf immoralSelf match m n 0 0.6988 
17-May-2018_15:14:17 Exp 7319 19 male R 1 5 4 moralOther immoralSelf mismatch n n 1 0.9185 
17-May-2018_15:14:19 Exp 7319 19 male R 1 5 5 moralOther moralOther match m m 1 0.7789 
17-May-2018_15:14:21 Exp 7319 19 male R 1 5 6 immoralSelf immoralSelf match m m 1 0.6444 
17-May-2018_15:14:23 Exp 7319 19 male R 1 5 7 immoralOther moralOther mismatch n n 1 0.8553 
17-May-2018_15:14:25 Exp 7319 19 male R 1 5 8 immoralOther immoralOther match m n 0 0.6662 
17-May-2018_15:14:28 Exp 7319 19 male R 1 5 9 immoralOther moralSelf mismatch n n 1 0.6974 
17-May-2018_15:14:30 Exp 7319 19 male R 1 5 10 moralOther moralOther match m m 1 0.7812 
17-May-2018_15:14:32 Exp 7319 19 male R 1 5 11 moralSelf moralSelf match m m 1 0.6467 
17-May-2018_15:14:34 Exp 7319 19 male R 1 5 12 moralSelf moralSelf match m m 1 0.6256 
17-May-2018_15:14:36 Exp 7319 19 male R 1 5 13 immoralSelf moralOther mismatch n n 1 0.7881 
17-May-2018_15:14:39 Exp 7319 19 male R 1 5 14 moralOther immoralOther mismatch n m 0 0.7138 
17-May-2018_15:14:41 Exp 7319 19 male R 1 5 15 immoralOther immoralOther match m m 1 0.6579 
17-May-2018_15:14:43 Exp 7319 19 male R 1 5 16 moralOther immoralSelf mismatch n n 1 0.8650 
17-May-2018_15:14:45 Exp 7319 19 male R 1 5 17 immoralSelf immoralOther mismatch n n 1 0.8482 
17-May-2018_15:14:48 Exp 7319 19 male R 1 5 18 moralSelf immoralOther mismatch n n 1 0.7551 
17-May-2018_15:14:50 Exp 7319 19 male R 1 5 19 moralSelf moralOther mismatch n n 1 0.7882 
17-May-2018_15:14:52 Exp 7319 19 male R 1 5 20 immoralOther immoralOther match m m 1 0.7699 
17-May-2018_15:14:54 Exp 7319 19 male R 1 5 21 immoralSelf immoralSelf match m n 0 0.6551 
17-May-2018_15:14:57 Exp 7319 19 male R 1 5 22 immoralSelf immoralOther mismatch n n 1 0.6581 
17-May-2018_15:14:59 Exp 7319 19 male R 1 5 23 moralSelf moralSelf match m m 1 0.8572 
17-May-2018_15:15:01 Exp 7319 19 male R 1 5 24 moralOther moralOther match m m 1 0.6884 
17-May-2018_15:15:07 Exp 7319 19 male R 2 1 1 moralSelf immoralSelf mismatch n n 1 0.9685 
17-May-2018_15:15:09 Exp 7319 19 male R 2 1 2 moralSelf moralSelf match m m 1 0.8778 
17-May-2018_15:15:11 Exp 7319 19 male R 2 1 3 moralOther immoralSelf mismatch n n 1 0.7692 
17-May-2018_15:15:14 Exp 7319 19 male R 2 1 4 immoralOther immoralOther match m m 1 0.8864 
17-May-2018_15:15:16 Exp 7319 19 male R 2 1 5 immoralOther immoralSelf mismatch n m 0 0.6621 
17-May-2018_15:15:18 Exp 7319 19 male R 2 1 6 moralSelf immoralOther mismatch n n 1 0.9332 
17-May-2018_15:15:20 Exp 7319 19 male R 2 1 7 immoralOther immoralOther match m m 1 0.7898 
17-May-2018_15:15:22 Exp 7319 19 male R 2 1 8 immoralSelf immoralSelf match m m 1 0.5156 
17-May-2018_15:15:25 Exp 7319 19 male R 2 1 9 moralOther moralSelf mismatch n n 1 0.7359 
17-May-2018_15:15:27 Exp 7319 19 male R 2 1 10 immoralSelf moralSelf mismatch n n 1 0.8164 
17-May-2018_15:15:29 Exp 7319 19 male R 2 1 11 moralSelf moralSelf match m m 1 0.9427 
17-May-2018_15:15:32 Exp 7319 19 male R 2 1 12 moralSelf immoralOther mismatch n n 1 0.9474 
17-May-2018_15:15:34 Exp 7319 19 male R 2 1 13 moralOther moralOther match m m 1 0.7123 
17-May-2018_15:15:36 Exp 7319 19 male R 2 1 14 moralOther moralSelf mismatch n m 0 0.5523 
17-May-2018_15:15:38 Exp 7319 19 male R 2 1 15 immoralSelf immoralSelf match m m 1 0.8413 
17-May-2018_15:15:41 Exp 7319 19 male R 2 1 16 moralOther moralOther match m m 1 0.8800 
17-May-2018_15:15:43 Exp 7319 19 male R 2 1 17 immoralOther immoralOther match m m 1 0.7117 
17-May-2018_15:15:45 Exp 7319 19 male R 2 1 18 immoralSelf immoralSelf match m n 0 0.7677 
17-May-2018_15:15:47 Exp 7319 19 male R 2 1 19 immoralOther moralSelf mismatch n n 1 0.7491 
17-May-2018_15:15:50 Exp 7319 19 male R 2 1 20 moralOther moralOther match m m 1 0.7458 
17-May-2018_15:15:52 Exp 7319 19 male R 2 1 21 immoralSelf moralOther mismatch n n 1 0.7025 
17-May-2018_15:15:54 Exp 7319 19 male R 2 1 22 moralSelf moralSelf match m m 1 0.8904 
17-May-2018_15:15:56 Exp 7319 19 male R 2 1 23 immoralSelf moralOther mismatch n n 1 0.6341 
17-May-2018_15:15:59 Exp 7319 19 male R 2 1 24 immoralOther immoralSelf mismatch n m 0 0.7447 
17-May-2018_15:16:01 Exp 7319 19 male R 2 2 1 moralSelf moralSelf match m m 1 0.7495 
17-May-2018_15:16:03 Exp 7319 19 male R 2 2 2 moralOther moralSelf mismatch n n 1 0.8023 
17-May-2018_15:16:05 Exp 7319 19 male R 2 2 3 immoralOther immoralOther match m m 1 0.7003 
17-May-2018_15:16:08 Exp 7319 19 male R 2 2 4 moralOther moralOther match m n 0 1.0002 
17-May-2018_15:16:10 Exp 7319 19 male R 2 2 5 immoralOther immoralOther match m n 0 0.9382 
17-May-2018_15:16:12 Exp 7319 19 male R 2 2 6 moralOther moralOther match m m 1 0.7189 
17-May-2018_15:16:15 Exp 7319 19 male R 2 2 7 immoralOther immoralSelf mismatch n n 1 0.7712 
17-May-2018_15:16:17 Exp 7319 19 male R 2 2 8 immoralSelf immoralSelf match m m 1 0.7126 
17-May-2018_15:16:19 Exp 7319 19 male R 2 2 9 moralSelf immoralSelf mismatch n n 1 0.6966 
17-May-2018_15:16:22 Exp 7319 19 male R 2 2 10 immoralOther moralOther mismatch n n 1 0.9004 
17-May-2018_15:16:24 Exp 7319 19 male R 2 2 11 moralSelf moralSelf match m m 1 0.7765 
17-May-2018_15:16:26 Exp 7319 19 male R 2 2 12 immoralSelf immoralOther mismatch n n 1 0.8579 
17-May-2018_15:16:28 Exp 7319 19 male R 2 2 13 immoralOther moralSelf mismatch n n 1 0.8409 
17-May-2018_15:16:31 Exp 7319 19 male R 2 2 14 immoralOther immoralOther match m m 1 0.7517 
17-May-2018_15:16:33 Exp 7319 19 male R 2 2 15 immoralSelf immoralSelf match m n 0 0.6647 
17-May-2018_15:16:35 Exp 7319 19 male R 2 2 16 immoralSelf immoralSelf match m m 1 0.9278 
17-May-2018_15:16:37 Exp 7319 19 male R 2 2 17 moralSelf moralSelf match m m 1 0.6083 
17-May-2018_15:16:40 Exp 7319 19 male R 2 2 18 moralOther moralOther match m m 1 0.6824 
17-May-2018_15:16:42 Exp 7319 19 male R 2 2 19 moralSelf immoralSelf mismatch n n 1 1.0740 
17-May-2018_15:16:44 Exp 7319 19 male R 2 2 20 moralOther immoralOther mismatch n m 0 0.6534 
17-May-2018_15:16:46 Exp 7319 19 male R 2 2 21 moralOther immoralSelf mismatch n n 1 0.7363 
17-May-2018_15:16:49 Exp 7319 19 male R 2 2 22 moralSelf moralOther mismatch n n 1 0.7288 
17-May-2018_15:16:51 Exp 7319 19 male R 2 2 23 immoralSelf moralSelf mismatch n n 1 0.6333 
17-May-2018_15:16:53 Exp 7319 19 male R 2 2 24 immoralSelf immoralOther mismatch n m 0 0.6641 
17-May-2018_15:16:55 Exp 7319 19 male R 2 3 1 moralSelf moralOther mismatch n n 1 0.8232 
17-May-2018_15:16:58 Exp 7319 19 male R 2 3 2 immoralSelf immoralOther mismatch n n 1 0.8657 
17-May-2018_15:17:00 Exp 7319 19 male R 2 3 3 moralSelf moralSelf match m m 1 0.8247 
17-May-2018_15:17:02 Exp 7319 19 male R 2 3 4 moralOther immoralOther mismatch n n 1 0.6752 
17-May-2018_15:17:04 Exp 7319 19 male R 2 3 5 moralSelf moralOther mismatch n n 1 0.7986 
17-May-2018_15:17:07 Exp 7319 19 male R 2 3 6 moralOther moralOther match m m 1 0.8566 
17-May-2018_15:17:09 Exp 7319 19 male R 2 3 7 moralOther immoralSelf mismatch n n 1 0.6237 
17-May-2018_15:17:11 Exp 7319 19 male R 2 3 8 moralSelf moralSelf match m m 1 0.6422 
17-May-2018_15:17:13 Exp 7319 19 male R 2 3 9 immoralOther immoralOther match m m 1 0.9208 
17-May-2018_15:17:16 Exp 7319 19 male R 2 3 10 immoralSelf immoralSelf match m n 0 0.5812 
17-May-2018_15:17:18 Exp 7319 19 male R 2 3 11 moralOther moralOther match m m 1 0.7186 
17-May-2018_15:17:20 Exp 7319 19 male R 2 3 12 immoralOther immoralSelf mismatch n n 1 0.5710 
17-May-2018_15:17:22 Exp 7319 19 male R 2 3 13 immoralSelf immoralSelf match m m 1 0.6402 
17-May-2018_15:17:24 Exp 7319 19 male R 2 3 14 immoralOther immoralOther match m m 1 0.7749 
17-May-2018_15:17:26 Exp 7319 19 male R 2 3 15 immoralOther immoralOther match m m 1 0.5524 
17-May-2018_15:17:28 Exp 7319 19 male R 2 3 16 immoralSelf moralSelf mismatch n n 1 0.6574 
17-May-2018_15:17:31 Exp 7319 19 male R 2 3 17 immoralSelf immoralSelf match m n 0 0.7286 
17-May-2018_15:17:33 Exp 7319 19 male R 2 3 18 immoralOther immoralSelf mismatch n n 1 0.7371 
17-May-2018_15:17:35 Exp 7319 19 male R 2 3 19 moralSelf moralSelf match m m 1 0.7057 
17-May-2018_15:17:37 Exp 7319 19 male R 2 3 20 immoralSelf moralOther mismatch n m 0 0.6498 
17-May-2018_15:17:40 Exp 7319 19 male R 2 3 21 moralOther moralSelf mismatch n m 0 0.9247 
17-May-2018_15:17:42 Exp 7319 19 male R 2 3 22 moralOther moralOther match m m 1 0.5530 
17-May-2018_15:17:44 Exp 7319 19 male R 2 3 23 moralSelf immoralSelf mismatch n n 1 0.9700 
17-May-2018_15:17:46 Exp 7319 19 male R 2 3 24 immoralOther immoralSelf mismatch n n 1 0.7993 
17-May-2018_15:18:23 Exp 7319 19 male R 2 4 1 immoralSelf moralSelf mismatch n n 1 0.8346 
17-May-2018_15:18:25 Exp 7319 19 male R 2 4 2 moralSelf moralSelf match m m 1 0.6333 
17-May-2018_15:18:27 Exp 7319 19 male R 2 4 3 moralSelf immoralOther mismatch n n 1 0.6720 
17-May-2018_15:18:29 Exp 7319 19 male R 2 4 4 moralSelf moralSelf match m m 1 0.8433 
17-May-2018_15:18:32 Exp 7319 19 male R 2 4 5 moralOther moralOther match m m 1 0.6820 
17-May-2018_15:18:34 Exp 7319 19 male R 2 4 6 immoralOther moralSelf mismatch n n 1 0.5857 
17-May-2018_15:18:36 Exp 7319 19 male R 2 4 7 immoralSelf immoralSelf match m m 1 0.8153 
17-May-2018_15:18:38 Exp 7319 19 male R 2 4 8 immoralOther moralOther mismatch n n 1 0.7895 
17-May-2018_15:18:40 Exp 7319 19 male R 2 4 9 immoralOther moralOther mismatch n n 1 0.6834 
17-May-2018_15:18:43 Exp 7319 19 male R 2 4 10 immoralSelf moralSelf mismatch n n 1 0.8269 
17-May-2018_15:18:45 Exp 7319 19 male R 2 4 11 immoralSelf immoralSelf match m n 0 1.1095 
17-May-2018_15:18:47 Exp 7319 19 male R 2 4 12 moralSelf moralSelf match m m 1 0.6535 
17-May-2018_15:18:50 Exp 7319 19 male R 2 4 13 moralOther moralOther match m m 1 1.0083 
17-May-2018_15:18:52 Exp 7319 19 male R 2 4 14 moralOther immoralSelf mismatch n n 1 0.7383 
17-May-2018_15:18:54 Exp 7319 19 male R 2 4 15 moralSelf moralOther mismatch n n 1 0.7192 
17-May-2018_15:18:56 Exp 7319 19 male R 2 4 16 moralSelf immoralOther mismatch n n 1 0.5715 
17-May-2018_15:18:59 Exp 7319 19 male R 2 4 17 immoralSelf moralSelf mismatch n n 1 0.7208 
17-May-2018_15:19:01 Exp 7319 19 male R 2 4 18 immoralOther immoralOther match m m 1 0.5010 
17-May-2018_15:19:03 Exp 7319 19 male R 2 4 19 moralOther immoralOther mismatch n n 1 0.7129 
17-May-2018_15:19:05 Exp 7319 19 male R 2 4 20 moralOther immoralSelf mismatch n n 1 0.8090 
17-May-2018_15:19:07 Exp 7319 19 male R 2 4 21 immoralSelf immoralSelf match m n 0 0.7032 
17-May-2018_15:19:10 Exp 7319 19 male R 2 4 22 immoralOther immoralOther match m n 0 0.7032 
17-May-2018_15:19:12 Exp 7319 19 male R 2 4 23 moralOther moralOther match m m 1 0.6073 
17-May-2018_15:19:14 Exp 7319 19 male R 2 4 24 immoralOther immoralOther match m m 1 0.8813 
17-May-2018_15:19:16 Exp 7319 19 male R 2 5 1 moralOther moralOther match m m 1 0.6649 
17-May-2018_15:19:18 Exp 7319 19 male R 2 5 2 immoralSelf moralOther mismatch n n 1 0.6880 
17-May-2018_15:19:21 Exp 7319 19 male R 2 5 3 immoralOther moralSelf mismatch n n 1 0.9997 
17-May-2018_15:19:23 Exp 7319 19 male R 2 5 4 immoralSelf immoralSelf match m m 1 0.8177 
17-May-2018_15:19:25 Exp 7319 19 male R 2 5 5 immoralSelf immoralOther mismatch n n 1 0.7279 
17-May-2018_15:19:28 Exp 7319 19 male R 2 5 6 moralOther moralOther match m m 1 0.7284 
17-May-2018_15:19:30 Exp 7319 19 male R 2 5 7 moralOther moralOther match m m 1 0.5450 
17-May-2018_15:19:32 Exp 7319 19 male R 2 5 8 immoralSelf immoralSelf match m n 0 0.5417 
17-May-2018_15:19:34 Exp 7319 19 male R 2 5 9 moralOther immoralSelf mismatch n n 1 0.7225 
17-May-2018_15:19:36 Exp 7319 19 male R 2 5 10 immoralOther moralOther mismatch n n 1 0.7510 
17-May-2018_15:19:38 Exp 7319 19 male R 2 5 11 moralSelf moralOther mismatch n n 1 0.7999 
17-May-2018_15:19:41 Exp 7319 19 male R 2 5 12 moralSelf moralSelf match m m 1 0.7619 
17-May-2018_15:19:43 Exp 7319 19 male R 2 5 13 moralSelf moralSelf match m m 1 0.6391 
17-May-2018_15:19:45 Exp 7319 19 male R 2 5 14 immoralSelf immoralOther mismatch n n 1 0.8138 
17-May-2018_15:19:47 Exp 7319 19 male R 2 5 15 immoralOther immoralOther match m n 0 0.8520 
17-May-2018_15:19:50 Exp 7319 19 male R 2 5 16 moralOther immoralSelf mismatch n n 1 0.9750 
17-May-2018_15:19:52 Exp 7319 19 male R 2 5 17 immoralOther immoralOther match m m 1 0.8804 
17-May-2018_15:19:54 Exp 7319 19 male R 2 5 18 moralSelf moralOther mismatch n n 1 0.6721 
17-May-2018_15:19:57 Exp 7319 19 male R 2 5 19 moralOther immoralOther mismatch n n 1 0.8996 
17-May-2018_15:19:59 Exp 7319 19 male R 2 5 20 immoralOther moralOther mismatch n n 1 0.9513 
17-May-2018_15:20:02 Exp 7319 19 male R 2 5 21 moralSelf moralOther mismatch n n 1 0.7523 
17-May-2018_15:20:04 Exp 7319 19 male R 2 5 22 immoralSelf immoralSelf match m m 1 0.9294 
17-May-2018_15:20:06 Exp 7319 19 male R 2 5 23 moralSelf moralSelf match m m 1 0.6339 
17-May-2018_15:20:08 Exp 7319 19 male R 2 5 24 immoralOther immoralOther match m m 1 0.8246 
17-May-2018_15:20:14 Exp 7319 19 male R 3 1 1 immoralOther immoralOther match m m 1 0.8276 
17-May-2018_15:20:16 Exp 7319 19 male R 3 1 2 immoralOther moralOther mismatch n n 1 0.8221 
17-May-2018_15:20:18 Exp 7319 19 male R 3 1 3 moralSelf immoralSelf mismatch n n 1 0.9205 
17-May-2018_15:20:21 Exp 7319 19 male R 3 1 4 moralSelf moralSelf match m m 1 0.7008 
17-May-2018_15:20:23 Exp 7319 19 male R 3 1 5 moralSelf immoralOther mismatch n m 0 0.7127 
17-May-2018_15:20:25 Exp 7319 19 male R 3 1 6 moralSelf moralSelf match m m 1 0.7288 
17-May-2018_15:20:27 Exp 7319 19 male R 3 1 7 immoralSelf immoralOther mismatch n n 1 0.8413 
17-May-2018_15:20:30 Exp 7319 19 male R 3 1 8 moralOther moralSelf mismatch n n 1 0.8401 
17-May-2018_15:20:32 Exp 7319 19 male R 3 1 9 immoralSelf moralOther mismatch n n 1 0.8468 
17-May-2018_15:20:34 Exp 7319 19 male R 3 1 10 immoralSelf moralSelf mismatch n n 1 0.6176 
17-May-2018_15:20:37 Exp 7319 19 male R 3 1 11 immoralOther immoralOther match m m 1 0.9358 
17-May-2018_15:20:39 Exp 7319 19 male R 3 1 12 immoralSelf immoralSelf match m n 0 0.7124 
17-May-2018_15:20:41 Exp 7319 19 male R 3 1 13 moralOther immoralOther mismatch n n 1 1.1685 
17-May-2018_15:20:44 Exp 7319 19 male R 3 1 14 moralOther moralOther match m m 1 0.8858 
17-May-2018_15:20:46 Exp 7319 19 male R 3 1 15 moralSelf moralSelf match m m 1 0.6933 
17-May-2018_15:20:48 Exp 7319 19 male R 3 1 16 immoralOther moralOther mismatch n n 1 0.6252 
17-May-2018_15:20:50 Exp 7319 19 male R 3 1 17 moralOther moralOther match m m 1 0.6677 
17-May-2018_15:20:53 Exp 7319 19 male R 3 1 18 immoralSelf immoralSelf match m n 0 0.7511 
17-May-2018_15:20:55 Exp 7319 19 male R 3 1 19 immoralSelf immoralSelf match m m 1 0.6640 
17-May-2018_15:20:57 Exp 7319 19 male R 3 1 20 immoralOther immoralOther match m n 0 0.6633 
17-May-2018_15:20:59 Exp 7319 19 male R 3 1 21 moralSelf immoralSelf mismatch n n 1 0.7424 
17-May-2018_15:21:01 Exp 7319 19 male R 3 1 22 moralOther moralOther match m m 1 0.6752 
17-May-2018_15:21:04 Exp 7319 19 male R 3 1 23 moralOther immoralOther mismatch n n 1 0.7584 
17-May-2018_15:21:06 Exp 7319 19 male R 3 1 24 immoralOther moralOther mismatch n n 1 0.8556 
17-May-2018_15:21:08 Exp 7319 19 male R 3 2 1 moralOther immoralSelf mismatch n n 1 0.7464 
17-May-2018_15:21:10 Exp 7319 19 male R 3 2 2 moralOther moralOther match m m 1 0.8632 
17-May-2018_15:21:13 Exp 7319 19 male R 3 2 3 moralSelf moralOther mismatch n n 1 0.7504 
17-May-2018_15:21:15 Exp 7319 19 male R 3 2 4 moralOther moralSelf mismatch n m 0 1.0074 
17-May-2018_15:21:18 Exp 7319 19 male R 3 2 5 immoralSelf immoralSelf match m n 0 0.8974 
17-May-2018_15:21:20 Exp 7319 19 male R 3 2 6 immoralOther immoralOther match m m 1 0.7572 
17-May-2018_15:21:22 Exp 7319 19 male R 3 2 7 immoralSelf moralSelf mismatch n n 1 0.8703 
17-May-2018_15:21:24 Exp 7319 19 male R 3 2 8 moralSelf immoralOther mismatch n n 1 0.7296 
17-May-2018_15:21:27 Exp 7319 19 male R 3 2 9 immoralOther moralSelf mismatch n n 1 0.9223 
17-May-2018_15:21:29 Exp 7319 19 male R 3 2 10 immoralSelf moralSelf mismatch n n 1 0.6866 
17-May-2018_15:21:31 Exp 7319 19 male R 3 2 11 immoralOther immoralOther match m m 1 0.8462 
17-May-2018_15:21:34 Exp 7319 19 male R 3 2 12 immoralSelf immoralSelf match m n 0 0.6812 
17-May-2018_15:21:36 Exp 7319 19 male R 3 2 13 moralOther moralOther match m m 1 0.6567 
17-May-2018_15:21:38 Exp 7319 19 male R 3 2 14 moralOther moralSelf mismatch n n 1 0.6718 
17-May-2018_15:21:40 Exp 7319 19 male R 3 2 15 immoralSelf immoralOther mismatch n n 1 0.8272 
17-May-2018_15:21:43 Exp 7319 19 male R 3 2 16 immoralOther immoralSelf mismatch n n 1 0.8616 
17-May-2018_15:21:45 Exp 7319 19 male R 3 2 17 immoralOther immoralSelf mismatch n n 1 0.6048 
17-May-2018_15:21:47 Exp 7319 19 male R 3 2 18 moralSelf moralSelf match m m 1 0.7828 
17-May-2018_15:21:49 Exp 7319 19 male R 3 2 19 immoralSelf immoralSelf match m n 0 0.6322 
17-May-2018_15:21:51 Exp 7319 19 male R 3 2 20 moralSelf moralOther mismatch n n 1 0.7147 
17-May-2018_15:21:53 Exp 7319 19 male R 3 2 21 moralSelf moralSelf match m m 1 0.7110 
17-May-2018_15:21:56 Exp 7319 19 male R 3 2 22 moralOther moralOther match m m 1 0.7351 
17-May-2018_15:21:58 Exp 7319 19 male R 3 2 23 moralSelf moralSelf match m m 1 0.8557 
17-May-2018_15:22:00 Exp 7319 19 male R 3 2 24 immoralOther immoralOther match m m 1 0.7946 
17-May-2018_15:22:02 Exp 7319 19 male R 3 3 1 moralOther moralOther match m m 1 0.7363 
17-May-2018_15:22:05 Exp 7319 19 male R 3 3 2 moralOther moralSelf mismatch n n 1 0.8729 
17-May-2018_15:22:07 Exp 7319 19 male R 3 3 3 immoralOther immoralOther match m n 0 0.9402 
17-May-2018_15:22:10 Exp 7319 19 male R 3 3 4 moralSelf immoralSelf mismatch n n 1 1.0090 
17-May-2018_15:22:12 Exp 7319 19 male R 3 3 5 moralOther moralOther match m m 1 0.6872 
17-May-2018_15:22:14 Exp 7319 19 male R 3 3 6 immoralSelf moralSelf mismatch n n 1 0.9110 
17-May-2018_15:22:17 Exp 7319 19 male R 3 3 7 moralSelf immoralOther mismatch n n 1 0.7110 
17-May-2018_15:22:19 Exp 7319 19 male R 3 3 8 moralOther moralOther match m m 1 0.8951 
17-May-2018_15:22:21 Exp 7319 19 male R 3 3 9 immoralSelf moralSelf mismatch n n 1 0.7710 
17-May-2018_15:22:24 Exp 7319 19 male R 3 3 10 moralSelf moralOther mismatch n n 1 0.8242 
17-May-2018_15:22:26 Exp 7319 19 male R 3 3 11 moralSelf moralSelf match m m 1 0.7786 
17-May-2018_15:22:28 Exp 7319 19 male R 3 3 12 immoralSelf immoralSelf match m m 1 0.9882 
17-May-2018_15:22:30 Exp 7319 19 male R 3 3 13 immoralOther immoralOther match m n 0 0.6979 
17-May-2018_15:22:33 Exp 7319 19 male R 3 3 14 moralOther moralSelf mismatch n n 1 0.6217 
17-May-2018_15:22:35 Exp 7319 19 male R 3 3 15 immoralOther moralOther mismatch n n 1 1.0082 
17-May-2018_15:22:37 Exp 7319 19 male R 3 3 16 immoralOther moralOther mismatch n n 1 0.6903 
17-May-2018_15:22:40 Exp 7319 19 male R 3 3 17 moralOther immoralSelf mismatch n n 1 0.8577 
17-May-2018_15:22:42 Exp 7319 19 male R 3 3 18 immoralOther immoralOther match m m 1 0.8089 
17-May-2018_15:22:44 Exp 7319 19 male R 3 3 19 moralSelf moralSelf match m m 1 0.7111 
17-May-2018_15:22:47 Exp 7319 19 male R 3 3 20 immoralSelf moralOther mismatch n n 1 0.9112 
17-May-2018_15:22:49 Exp 7319 19 male R 3 3 21 moralSelf moralSelf match m m 1 0.7592 
17-May-2018_15:22:51 Exp 7319 19 male R 3 3 22 immoralSelf immoralSelf match m n 0 0.8163 
17-May-2018_15:22:53 Exp 7319 19 male R 3 3 23 immoralOther immoralSelf mismatch n n 1 0.7425 
17-May-2018_15:22:55 Exp 7319 19 male R 3 3 24 immoralSelf immoralSelf match m m 1 0.6912 
17-May-2018_15:23:33 Exp 7319 19 male R 3 4 1 moralSelf immoralOther mismatch n n 1 0.6956 
17-May-2018_15:23:36 Exp 7319 19 male R 3 4 2 immoralOther moralOther mismatch n n 1 0.9314 
17-May-2018_15:23:38 Exp 7319 19 male R 3 4 3 immoralSelf immoralSelf match m m 1 0.8520 
17-May-2018_15:23:40 Exp 7319 19 male R 3 4 4 moralOther moralOther match m m 1 0.7268 
17-May-2018_15:23:43 Exp 7319 19 male R 3 4 5 moralSelf moralSelf match m m 1 0.6075 
17-May-2018_15:23:45 Exp 7319 19 male R 3 4 6 immoralSelf immoralSelf match m m 1 0.8255 
17-May-2018_15:23:47 Exp 7319 19 male R 3 4 7 moralOther immoralSelf mismatch n n 1 0.7558 
17-May-2018_15:23:49 Exp 7319 19 male R 3 4 8 immoralSelf moralSelf mismatch n n 1 0.7729 
17-May-2018_15:23:52 Exp 7319 19 male R 3 4 9 moralSelf moralSelf match m m 1 0.7301 
17-May-2018_15:23:54 Exp 7319 19 male R 3 4 10 immoralSelf immoralOther mismatch n n 1 0.7228 
17-May-2018_15:23:56 Exp 7319 19 male R 3 4 11 moralSelf immoralSelf mismatch n n 1 0.8630 
17-May-2018_15:23:58 Exp 7319 19 male R 3 4 12 immoralSelf moralOther mismatch n n 1 0.7342 
17-May-2018_15:24:01 Exp 7319 19 male R 3 4 13 moralOther immoralOther mismatch n m 0 0.7587 
17-May-2018_15:24:03 Exp 7319 19 male R 3 4 14 immoralOther immoralOther match m m 1 0.6398 
17-May-2018_15:24:05 Exp 7319 19 male R 3 4 15 moralOther moralOther match m m 1 0.6465 
17-May-2018_15:24:07 Exp 7319 19 male R 3 4 16 moralOther immoralOther mismatch n n 1 0.7054 
17-May-2018_15:24:09 Exp 7319 19 male R 3 4 17 immoralOther immoralOther match m n 0 0.8495 
17-May-2018_15:24:12 Exp 7319 19 male R 3 4 18 moralSelf moralOther mismatch n n 1 0.7323 
17-May-2018_15:24:14 Exp 7319 19 male R 3 4 19 immoralOther immoralOther match m m 1 0.6128 
17-May-2018_15:24:16 Exp 7319 19 male R 3 4 20 immoralSelf immoralSelf match m m 1 0.5791 
17-May-2018_15:24:18 Exp 7319 19 male R 3 4 21 immoralOther moralOther mismatch n n 1 0.7406 
17-May-2018_15:24:20 Exp 7319 19 male R 3 4 22 moralOther moralOther match m m 1 0.7854 
17-May-2018_15:24:23 Exp 7319 19 male R 3 4 23 immoralOther moralOther mismatch n n 1 0.7751 
17-May-2018_15:24:25 Exp 7319 19 male R 3 4 24 moralSelf moralSelf match m m 1 0.6805 
17-May-2018_15:24:27 Exp 7319 19 male R 3 5 1 immoralSelf moralOther mismatch n n 1 0.7683 
17-May-2018_15:24:29 Exp 7319 19 male R 3 5 2 moralOther moralOther match m m 1 0.7895 
17-May-2018_15:24:32 Exp 7319 19 male R 3 5 3 immoralOther moralSelf mismatch n n 1 0.8912 
17-May-2018_15:24:34 Exp 7319 19 male R 3 5 4 moralOther immoralOther mismatch n n 1 0.8550 
17-May-2018_15:24:36 Exp 7319 19 male R 3 5 5 immoralSelf moralOther mismatch n n 1 0.7140 
17-May-2018_15:24:38 Exp 7319 19 male R 3 5 6 immoralSelf immoralSelf match m n 0 0.6182 
17-May-2018_15:24:41 Exp 7319 19 male R 3 5 7 immoralOther immoralOther match m m 1 0.8483 
17-May-2018_15:24:43 Exp 7319 19 male R 3 5 8 moralSelf moralSelf match m m 1 0.6593 
17-May-2018_15:24:45 Exp 7319 19 male R 3 5 9 moralSelf immoralOther mismatch n n 1 0.7703 
17-May-2018_15:24:47 Exp 7319 19 male R 3 5 10 moralSelf moralSelf match m m 1 0.6956 
17-May-2018_15:24:50 Exp 7319 19 male R 3 5 11 immoralOther moralSelf mismatch n n 1 0.7793 
17-May-2018_15:24:52 Exp 7319 19 male R 3 5 12 moralSelf moralSelf match m m 1 0.7970 
17-May-2018_15:24:54 Exp 7319 19 male R 3 5 13 moralOther moralSelf mismatch n n 1 0.8470 
17-May-2018_15:24:57 Exp 7319 19 male R 3 5 14 moralSelf immoralOther mismatch n m 0 0.8257 
17-May-2018_15:24:59 Exp 7319 19 male R 3 5 15 immoralSelf immoralSelf match m m 1 0.9003 
17-May-2018_15:25:01 Exp 7319 19 male R 3 5 16 moralOther immoralSelf mismatch n n 1 0.8402 
17-May-2018_15:25:04 Exp 7319 19 male R 3 5 17 moralOther moralOther match m m 1 0.8309 
17-May-2018_15:25:06 Exp 7319 19 male R 3 5 18 immoralOther immoralOther match m m 1 0.8172 
17-May-2018_15:25:08 Exp 7319 19 male R 3 5 19 moralSelf moralOther mismatch n n 1 0.7114 
17-May-2018_15:25:10 Exp 7319 19 male R 3 5 20 immoralSelf moralSelf mismatch n n 1 0.7915 
17-May-2018_15:25:13 Exp 7319 19 male R 3 5 21 moralOther moralOther match m n 0 0.7652 
17-May-2018_15:25:15 Exp 7319 19 male R 3 5 22 immoralOther moralSelf mismatch n n 1 0.7386 
17-May-2018_15:25:17 Exp 7319 19 male R 3 5 23 immoralSelf immoralSelf match m m 1 0.8793 
17-May-2018_15:25:19 Exp 7319 19 male R 3 5 24 immoralOther immoralOther match m m 1 0.7308 
Date Prac Sub Age Sex Hand Block Bin Trial Shape Label Match CorrResp Resp ACC RT
17-May-2018_15:31:41 Exp 7319 19 male R 1 1 1 immoralSelf immoralSelf match m m 1 0.5258 
17-May-2018_15:31:43 Exp 7319 19 male R 1 1 2 immoralSelf immoralSelf match m m 1 0.6103 
17-May-2018_15:31:45 Exp 7319 19 male R 1 1 3 immoralOther moralOther mismatch n n 1 0.6964 
17-May-2018_15:31:48 Exp 7319 19 male R 1 1 4 moralOther immoralSelf mismatch n n 1 0.9083 
17-May-2018_15:31:50 Exp 7319 19 male R 1 1 5 moralSelf immoralOther mismatch n n 1 0.7164 
17-May-2018_15:31:52 Exp 7319 19 male R 1 1 6 immoralOther immoralSelf mismatch n n 1 0.5367 
17-May-2018_15:31:54 Exp 7319 19 male R 1 1 7 moralSelf moralSelf match m m 1 0.7532 
17-May-2018_15:31:56 Exp 7319 19 male R 1 1 8 immoralOther immoralSelf mismatch n n 1 0.6743 
17-May-2018_15:31:58 Exp 7319 19 male R 1 1 9 moralOther moralOther match m m 1 0.7656 
17-May-2018_15:32:01 Exp 7319 19 male R 1 1 10 immoralOther immoralOther match m n 0 0.7229 
17-May-2018_15:32:03 Exp 7319 19 male R 1 1 11 immoralOther immoralOther match m m 1 0.6232 
17-May-2018_15:32:05 Exp 7319 19 male R 1 1 12 moralOther moralSelf mismatch n n 1 0.7056 
17-May-2018_15:32:07 Exp 7319 19 male R 1 1 13 moralOther moralOther match m m 1 0.8657 
17-May-2018_15:32:09 Exp 7319 19 male R 1 1 14 moralOther immoralSelf mismatch n n 1 0.7129 
17-May-2018_15:32:12 Exp 7319 19 male R 1 1 15 moralSelf immoralSelf mismatch n n 1 0.8249 
17-May-2018_15:32:14 Exp 7319 19 male R 1 1 16 moralSelf moralOther mismatch n n 1 0.7314 
17-May-2018_15:32:16 Exp 7319 19 male R 1 1 17 immoralOther immoralOther match m m 1 0.7480 
17-May-2018_15:32:19 Exp 7319 19 male R 1 1 18 immoralSelf moralOther mismatch n n 1 0.8727 
17-May-2018_15:32:21 Exp 7319 19 male R 1 1 19 moralOther moralOther match m n 0 0.6762 
17-May-2018_15:32:23 Exp 7319 19 male R 1 1 20 immoralSelf immoralSelf match m m 1 0.6956 
17-May-2018_15:32:25 Exp 7319 19 male R 1 1 21 moralSelf moralSelf match m m 1 0.6594 
17-May-2018_15:32:27 Exp 7319 19 male R 1 1 22 immoralSelf moralOther mismatch n n 1 0.7545 
17-May-2018_15:32:29 Exp 7319 19 male R 1 1 23 moralSelf moralSelf match m m 1 0.5715 
17-May-2018_15:32:32 Exp 7319 19 male R 1 1 24 immoralSelf moralOther mismatch n n 1 0.8328 
17-May-2018_15:32:34 Exp 7319 19 male R 1 2 1 moralSelf moralOther mismatch n n 1 0.6954 
17-May-2018_15:32:36 Exp 7319 19 male R 1 2 2 immoralSelf immoralSelf match m m 1 1.0032 
17-May-2018_15:32:39 Exp 7319 19 male R 1 2 3 moralSelf immoralSelf mismatch n n 1 0.7252 
17-May-2018_15:32:41 Exp 7319 19 male R 1 2 4 immoralSelf immoralOther mismatch n n 1 0.6735 
17-May-2018_15:32:43 Exp 7319 19 male R 1 2 5 immoralOther immoralOther match m m 1 0.8769 
17-May-2018_15:32:45 Exp 7319 19 male R 1 2 6 moralSelf moralSelf match m m 1 0.5763 
17-May-2018_15:32:48 Exp 7319 19 male R 1 2 7 immoralSelf immoralSelf match m m 1 0.9059 
17-May-2018_15:32:50 Exp 7319 19 male R 1 2 8 moralOther moralOther match m m 1 0.7459 
17-May-2018_15:32:52 Exp 7319 19 male R 1 2 9 moralSelf moralSelf match m m 1 0.6867 
17-May-2018_15:32:54 Exp 7319 19 male R 1 2 10 moralSelf moralSelf match m m 1 0.5183 
17-May-2018_15:32:56 Exp 7319 19 male R 1 2 11 immoralOther immoralOther match m m 1 0.8826 
17-May-2018_15:32:59 Exp 7319 19 male R 1 2 12 immoralOther immoralOther match m m 1 0.8104 
17-May-2018_15:33:01 Exp 7319 19 male R 1 2 13 moralOther moralOther match m m 1 0.6724 
17-May-2018_15:33:03 Exp 7319 19 male R 1 2 14 immoralSelf immoralSelf match m m 1 0.7078 
17-May-2018_15:33:06 Exp 7319 19 male R 1 2 15 immoralSelf moralOther mismatch n n 1 0.9559 
17-May-2018_15:33:08 Exp 7319 19 male R 1 2 16 moralOther moralSelf mismatch n n 1 0.9090 
17-May-2018_15:33:10 Exp 7319 19 male R 1 2 17 moralOther immoralOther mismatch n m 0 0.8850 
17-May-2018_15:33:13 Exp 7319 19 male R 1 2 18 immoralOther immoralSelf mismatch n n 1 1.0046 
17-May-2018_15:33:15 Exp 7319 19 male R 1 2 19 moralOther immoralSelf mismatch n n 1 0.9106 
17-May-2018_15:33:17 Exp 7319 19 male R 1 2 20 moralOther moralOther match m m 1 0.6147 
17-May-2018_15:33:20 Exp 7319 19 male R 1 2 21 immoralOther moralOther mismatch n n 1 0.6769 
17-May-2018_15:33:22 Exp 7319 19 male R 1 2 22 moralSelf moralOther mismatch n n 1 0.6803 
17-May-2018_15:33:24 Exp 7319 19 male R 1 2 23 immoralOther immoralSelf mismatch n n 1 0.9199 
17-May-2018_15:33:26 Exp 7319 19 male R 1 2 24 immoralSelf moralSelf mismatch n n 1 0.7162 
Date Prac Sub Age Sex Hand Block Bin Trial Shape Label Match CorrResp Resp ACC RT
17-May-2018_15:40:50 Exp 7319 19 male R 1 1 1 immoralOther immoralOther match m n 0 0.7304 
17-May-2018_15:40:52 Exp 7319 19 male R 1 1 2 moralSelf immoralSelf mismatch n n 1 0.7070 
17-May-2018_15:40:54 Exp 7319 19 male R 1 1 3 immoralOther immoralSelf mismatch n n 1 0.7951 
17-May-2018_15:40:56 Exp 7319 19 male R 1 1 4 moralSelf moralSelf match m n 0 0.6248 
17-May-2018_15:40:59 Exp 7319 19 male R 1 1 5 immoralOther immoralOther match m m 1 0.6993 
17-May-2018_15:41:01 Exp 7319 19 male R 1 1 6 moralSelf moralSelf match m m 1 0.4951 
17-May-2018_15:41:03 Exp 7319 19 male R 1 1 7 immoralSelf immoralSelf match m n 0 0.7469 
17-May-2018_15:41:05 Exp 7319 19 male R 1 1 8 moralOther moralOther match m m 1 0.5517 
17-May-2018_15:41:07 Exp 7319 19 male R 1 1 9 moralOther moralSelf mismatch n n 1 0.7689 
17-May-2018_15:41:09 Exp 7319 19 male R 1 1 10 moralOther immoralOther mismatch n n 1 0.7660 
17-May-2018_15:41:12 Exp 7319 19 male R 1 1 11 immoralSelf moralOther mismatch n n 1 0.7792 
17-May-2018_15:41:14 Exp 7319 19 male R 1 1 12 moralOther immoralSelf mismatch n n 1 0.9649 
17-May-2018_15:41:17 Exp 7319 19 male R 1 1 13 moralOther moralOther match m m 1 1.0899 
17-May-2018_15:41:19 Exp 7319 19 male R 1 1 14 immoralSelf immoralOther mismatch n n 1 0.6658 
17-May-2018_15:41:21 Exp 7319 19 male R 1 1 15 immoralOther immoralSelf mismatch n n 1 0.7368 
17-May-2018_15:41:23 Exp 7319 19 male R 1 1 16 moralOther moralOther match m m 1 0.9454 
17-May-2018_15:41:26 Exp 7319 19 male R 1 1 17 immoralSelf immoralSelf match m m 1 0.8942 
17-May-2018_15:41:28 Exp 7319 19 male R 1 1 18 moralSelf immoralOther mismatch n n 1 0.7541 
17-May-2018_15:41:30 Exp 7319 19 male R 1 1 19 immoralOther immoralOther match m m 1 0.7070 
17-May-2018_15:41:33 Exp 7319 19 male R 1 1 20 immoralSelf immoralOther mismatch n n 1 0.8352 
17-May-2018_15:41:35 Exp 7319 19 male R 1 1 21 moralSelf moralSelf match m m 1 0.6018 
17-May-2018_15:41:37 Exp 7319 19 male R 1 1 22 moralSelf moralOther mismatch n n 1 0.7398 
17-May-2018_15:41:39 Exp 7319 19 male R 1 1 23 immoralSelf immoralSelf match m m 1 0.7685 
17-May-2018_15:41:42 Exp 7319 19 male R 1 1 24 immoralOther immoralSelf mismatch n n 1 0.8138 
17-May-2018_15:41:44 Exp 7319 19 male R 1 2 1 moralOther moralSelf mismatch n n 1 1.0920 
17-May-2018_15:41:46 Exp 7319 19 male R 1 2 2 moralOther moralOther match m m 1 0.7599 
17-May-2018_15:41:49 Exp 7319 19 male R 1 2 3 immoralSelf immoralSelf match m m 1 0.6569 
17-May-2018_15:41:51 Exp 7319 19 male R 1 2 4 immoralOther immoralSelf mismatch n n 1 0.7201 
17-May-2018_15:41:53 Exp 7319 19 male R 1 2 5 moralSelf immoralOther mismatch n n 1 0.7164 
17-May-2018_15:41:55 Exp 7319 19 male R 1 2 6 immoralOther immoralOther match m m 1 0.8727 
17-May-2018_15:41:58 Exp 7319 19 male R 1 2 7 immoralSelf immoralSelf match m m 1 0.8281 
17-May-2018_15:42:00 Exp 7319 19 male R 1 2 8 moralOther moralOther match m m 1 0.5666 
17-May-2018_15:42:02 Exp 7319 19 male R 1 2 9 moralSelf moralOther mismatch n n 1 0.7878 
17-May-2018_15:42:04 Exp 7319 19 male R 1 2 10 immoralSelf immoralOther mismatch n n 1 0.7295 
17-May-2018_15:42:06 Exp 7319 19 male R 1 2 11 moralOther moralOther match m m 1 0.6660 
17-May-2018_15:42:09 Exp 7319 19 male R 1 2 12 immoralOther immoralOther match m m 1 0.7532 
17-May-2018_15:42:11 Exp 7319 19 male R 1 2 13 immoralOther immoralSelf mismatch n n 1 0.7542 
17-May-2018_15:42:13 Exp 7319 19 male R 1 2 14 immoralSelf moralOther mismatch n m 0 0.6434 
17-May-2018_15:42:15 Exp 7319 19 male R 1 2 15 immoralOther immoralOther match m m 1 0.5620 
17-May-2018_15:42:17 Exp 7319 19 male R 1 2 16 immoralSelf immoralSelf match m m 1 0.8392 
17-May-2018_15:42:20 Exp 7319 19 male R 1 2 17 immoralSelf moralOther mismatch n n 1 0.7499 
17-May-2018_15:42:22 Exp 7319 19 male R 1 2 18 moralSelf moralSelf match m m 1 0.6709 
17-May-2018_15:42:24 Exp 7319 19 male R 1 2 19 moralSelf moralSelf match m m 1 0.6022 
17-May-2018_15:42:26 Exp 7319 19 male R 1 2 20 moralOther immoralSelf mismatch n n 1 0.7962 
17-May-2018_15:42:29 Exp 7319 19 male R 1 2 21 immoralOther moralSelf mismatch n n 1 0.9859 
17-May-2018_15:42:31 Exp 7319 19 male R 1 2 22 moralOther immoralOther mismatch n m 0 0.6957 
17-May-2018_15:42:33 Exp 7319 19 male R 1 2 23 moralSelf immoralOther mismatch n n 1 0.6916 
17-May-2018_15:42:35 Exp 7319 19 male R 1 2 24 moralSelf moralSelf match m m 1 0.6634 
Date Prac Sub Age Sex Hand Block Bin Trial Shape Label Match CorrResp Resp ACC RT
17-May-2018_15:47:59 Exp 7319 19 male R 1 1 1 moralSelf immoralSelf mismatch n n 1 0.6336 
17-May-2018_15:48:02 Exp 7319 19 male R 1 1 2 moralSelf moralOther mismatch n n 1 0.7124 
17-May-2018_15:48:04 Exp 7319 19 male R 1 1 3 moralSelf immoralSelf mismatch n n 1 0.7365 
17-May-2018_15:48:06 Exp 7319 19 male R 1 1 4 immoralOther immoralOther match m m 1 0.5770 
17-May-2018_15:48:08 Exp 7319 19 male R 1 1 5 moralOther immoralSelf mismatch n n 1 0.5386 
17-May-2018_15:48:10 Exp 7319 19 male R 1 1 6 moralSelf moralSelf match m m 1 0.9673 
17-May-2018_15:48:13 Exp 7319 19 male R 1 1 7 moralOther moralOther match m m 1 0.7966 
17-May-2018_15:48:15 Exp 7319 19 male R 1 1 8 immoralOther immoralOther match m m 1 0.5143 
17-May-2018_15:48:17 Exp 7319 19 male R 1 1 9 moralOther moralOther match m m 1 0.5704 
17-May-2018_15:48:19 Exp 7319 19 male R 1 1 10 immoralSelf immoralSelf match m m 1 0.8557 
17-May-2018_15:48:21 Exp 7319 19 male R 1 1 11 immoralSelf immoralOther mismatch n n 1 0.7145 
17-May-2018_15:48:24 Exp 7319 19 male R 1 1 12 immoralOther moralOther mismatch n n 1 1.0026 
17-May-2018_15:48:26 Exp 7319 19 male R 1 1 13 immoralSelf immoralSelf match m m 1 0.8446 
17-May-2018_15:48:28 Exp 7319 19 male R 1 1 14 immoralOther immoralOther match m m 1 0.5595 
17-May-2018_15:48:30 Exp 7319 19 male R 1 1 15 immoralOther moralOther mismatch n n 1 0.7926 
17-May-2018_15:48:33 Exp 7319 19 male R 1 1 16 moralSelf moralSelf match m m 1 0.6303 
17-May-2018_15:48:35 Exp 7319 19 male R 1 1 17 immoralSelf immoralSelf match m m 1 0.8887 
17-May-2018_15:48:37 Exp 7319 19 male R 1 1 18 immoralSelf immoralOther mismatch n n 1 0.6083 
17-May-2018_15:48:39 Exp 7319 19 male R 1 1 19 immoralSelf immoralOther mismatch n n 1 0.7463 
17-May-2018_15:48:41 Exp 7319 19 male R 1 1 20 moralSelf moralSelf match m m 1 0.5591 
17-May-2018_15:48:44 Exp 7319 19 male R 1 1 21 immoralOther moralSelf mismatch n n 1 0.7041 
17-May-2018_15:48:46 Exp 7319 19 male R 1 1 22 moralOther immoralOther mismatch n n 1 0.9122 
17-May-2018_15:48:48 Exp 7319 19 male R 1 1 23 moralOther moralOther match m m 1 0.5843 
17-May-2018_15:48:50 Exp 7319 19 male R 1 1 24 moralOther immoralOther mismatch n n 1 0.5938 
17-May-2018_15:48:52 Exp 7319 19 male R 1 2 1 moralOther immoralSelf mismatch n n 1 0.6635 
17-May-2018_15:48:55 Exp 7319 19 male R 1 2 2 immoralSelf immoralSelf match m m 1 0.8147 
17-May-2018_15:48:57 Exp 7319 19 male R 1 2 3 moralSelf moralSelf match m m 1 0.6608 
17-May-2018_15:48:59 Exp 7319 19 male R 1 2 4 immoralSelf immoralSelf match m n 0 0.6839 
17-May-2018_15:49:01 Exp 7319 19 male R 1 2 5 moralOther moralOther match m m 1 0.7076 
17-May-2018_15:49:03 Exp 7319 19 male R 1 2 6 immoralSelf moralSelf mismatch n n 1 0.7077 
17-May-2018_15:49:06 Exp 7319 19 male R 1 2 7 immoralSelf moralOther mismatch n n 1 0.7398 
17-May-2018_15:49:08 Exp 7319 19 male R 1 2 8 immoralOther immoralOther match m m 1 0.6086 
17-May-2018_15:49:10 Exp 7319 19 male R 1 2 9 moralSelf immoralOther mismatch n n 1 0.7225 
17-May-2018_15:49:12 Exp 7319 19 male R 1 2 10 immoralSelf immoralSelf match m m 1 0.7029 
17-May-2018_15:49:14 Exp 7319 19 male R 1 2 11 immoralOther moralOther mismatch n n 1 0.8427 
17-May-2018_15:49:17 Exp 7319 19 male R 1 2 12 moralOther immoralSelf mismatch n n 1 0.8894 
17-May-2018_15:49:19 Exp 7319 19 male R 1 2 13 immoralOther immoralOther match m m 1 0.6570 
17-May-2018_15:49:21 Exp 7319 19 male R 1 2 14 moralSelf moralOther mismatch n n 1 0.7521 
17-May-2018_15:49:23 Exp 7319 19 male R 1 2 15 immoralSelf moralOther mismatch n n 1 0.7372 
17-May-2018_15:49:26 Exp 7319 19 male R 1 2 16 moralSelf moralSelf match m m 1 0.6817 
17-May-2018_15:49:28 Exp 7319 19 male R 1 2 17 moralSelf immoralOther mismatch n n 1 0.6093 
17-May-2018_15:49:30 Exp 7319 19 male R 1 2 18 immoralOther moralOther mismatch n n 1 0.6315 
17-May-2018_15:49:32 Exp 7319 19 male R 1 2 19 moralOther moralOther match m m 1 0.4500 
17-May-2018_15:49:34 Exp 7319 19 male R 1 2 20 moralOther moralOther match m m 1 0.5809 
17-May-2018_15:49:36 Exp 7319 19 male R 1 2 21 moralSelf moralSelf match m m 1 0.5743 
17-May-2018_15:49:38 Exp 7319 19 male R 1 2 22 immoralOther immoralSelf mismatch n n 1 0.7518 
17-May-2018_15:49:40 Exp 7319 19 male R 1 2 23 moralOther immoralOther mismatch n n 1 0.7288 
17-May-2018_15:49:42 Exp 7319 19 male R 1 2 24 immoralOther immoralOther match m n 0 0.6573 
Date Prac Sub Age Sex Hand Block Bin Trial Shape Label Match CorrResp Resp ACC RT
17-May-2018_15:54:52 Exp 7319 19 male R 1 1 1 moralSelf immoralSelf mismatch n n 1 0.6365 
17-May-2018_15:54:54 Exp 7319 19 male R 1 1 2 immoralSelf moralOther mismatch n n 1 0.6352 
17-May-2018_15:54:57 Exp 7319 19 male R 1 1 3 immoralOther immoralOther match m m 1 0.9540 
17-May-2018_15:54:59 Exp 7319 19 male R 1 1 4 moralSelf moralSelf match m m 1 0.6989 
17-May-2018_15:55:01 Exp 7319 19 male R 1 1 5 moralSelf moralSelf match m m 1 0.7828 
17-May-2018_15:55:04 Exp 7319 19 male R 1 1 6 moralOther immoralOther mismatch n n 1 0.9123 
17-May-2018_15:55:06 Exp 7319 19 male R 1 1 7 moralOther moralOther match m m 1 0.8563 
17-May-2018_15:55:08 Exp 7319 19 male R 1 1 8 immoralOther moralSelf mismatch n n 1 0.8235 
17-May-2018_15:55:11 Exp 7319 19 male R 1 1 9 immoralSelf immoralSelf match m m 1 0.9780 
17-May-2018_15:55:13 Exp 7319 19 male R 1 1 10 moralOther moralSelf mismatch n n 1 0.7074 
17-May-2018_15:55:15 Exp 7319 19 male R 1 1 11 moralOther immoralOther mismatch n m 0 0.6276 
17-May-2018_15:55:17 Exp 7319 19 male R 1 1 12 immoralSelf immoralOther mismatch n n 1 0.8459 
17-May-2018_15:55:20 Exp 7319 19 male R 1 1 13 moralOther moralOther match m m 1 0.6969 
17-May-2018_15:55:22 Exp 7319 19 male R 1 1 14 immoralSelf immoralSelf match m n 0 0.8607 
17-May-2018_15:55:24 Exp 7319 19 male R 1 1 15 immoralSelf moralOther mismatch n n 1 0.6438 
17-May-2018_15:55:26 Exp 7319 19 male R 1 1 16 moralOther moralOther match m m 1 0.6825 
17-May-2018_15:55:28 Exp 7319 19 male R 1 1 17 moralSelf moralOther mismatch n n 1 0.6662 
17-May-2018_15:55:31 Exp 7319 19 male R 1 1 18 moralSelf moralSelf match m m 1 0.6493 
17-May-2018_15:55:33 Exp 7319 19 male R 1 1 19 immoralOther moralOther mismatch n h 2 0.9642 
17-May-2018_15:55:36 Exp 7319 19 male R 1 1 20 immoralSelf immoralSelf match m m 1 1.1374 
17-May-2018_15:55:38 Exp 7319 19 male R 1 1 21 immoralOther immoralOther match m m 1 0.8820 
17-May-2018_15:55:40 Exp 7319 19 male R 1 1 22 moralSelf immoralOther mismatch n n 1 0.9377 
17-May-2018_15:55:43 Exp 7319 19 male R 1 1 23 immoralOther immoralOther match m m 1 0.7222 
17-May-2018_15:55:45 Exp 7319 19 male R 1 1 24 immoralOther moralSelf mismatch n n 1 0.7187 
17-May-2018_15:55:47 Exp 7319 19 male R 1 2 1 moralSelf moralSelf match m m 1 0.4989 
17-May-2018_15:55:49 Exp 7319 19 male R 1 2 2 moralOther moralOther match m m 1 0.6388 
17-May-2018_15:55:51 Exp 7319 19 male R 1 2 3 moralSelf moralOther mismatch n n 1 0.6853 
17-May-2018_15:55:53 Exp 7319 19 male R 1 2 4 immoralSelf moralSelf mismatch n n 1 0.8530 
17-May-2018_15:55:56 Exp 7319 19 male R 1 2 5 moralSelf immoralOther mismatch n n 1 0.6959 
17-May-2018_15:55:58 Exp 7319 19 male R 1 2 6 immoralOther immoralSelf mismatch n n 1 0.8678 
17-May-2018_15:56:00 Exp 7319 19 male R 1 2 7 moralOther moralSelf mismatch n n 1 0.7191 
17-May-2018_15:56:03 Exp 7319 19 male R 1 2 8 immoralOther immoralOther match m m 1 0.7634 
17-May-2018_15:56:05 Exp 7319 19 male R 1 2 9 moralOther immoralOther mismatch n n 1 0.7047 
17-May-2018_15:56:07 Exp 7319 19 male R 1 2 10 immoralSelf immoralSelf match m m 1 0.8168 
17-May-2018_15:56:09 Exp 7319 19 male R 1 2 11 immoralOther moralSelf mismatch n n 1 0.7910 
17-May-2018_15:56:11 Exp 7319 19 male R 1 2 12 moralSelf moralSelf match m m 1 0.5889 
17-May-2018_15:56:14 Exp 7319 19 male R 1 2 13 immoralSelf immoralOther mismatch n n 1 0.8185 
17-May-2018_15:56:16 Exp 7319 19 male R 1 2 14 moralOther moralOther match m m 1 0.9766 
17-May-2018_15:56:18 Exp 7319 19 male R 1 2 15 immoralOther immoralOther match m n 0 0.7942 
17-May-2018_15:56:20 Exp 7319 19 male R 1 2 16 immoralOther immoralSelf mismatch n n 1 0.5519 
17-May-2018_15:56:23 Exp 7319 19 male R 1 2 17 moralOther moralOther match m m 1 0.6649 
17-May-2018_15:56:25 Exp 7319 19 male R 1 2 18 moralSelf moralSelf match m m 1 0.5840 
17-May-2018_15:56:27 Exp 7319 19 male R 1 2 19 moralOther immoralSelf mismatch n n 1 0.8176 
17-May-2018_15:56:29 Exp 7319 19 male R 1 2 20 immoralOther immoralOther match m m 1 0.7038 
17-May-2018_15:56:32 Exp 7319 19 male R 1 2 21 immoralSelf immoralSelf match m m 1 0.8399 
17-May-2018_15:56:34 Exp 7319 19 male R 1 2 22 moralSelf moralOther mismatch n n 1 0.8386 
17-May-2018_15:56:36 Exp 7319 19 male R 1 2 23 immoralSelf immoralSelf match m m 1 0.8532 
17-May-2018_15:56:38 Exp 7319 19 male R 1 2 24 immoralSelf immoralOther mismatch n n 1 0.6801 
Date Prac Sub Age Sex Hand Block Bin Trial Shape Label Match CorrResp Resp ACC RT
17-May-2018_16:02:12 Exp 7319 19 male R 1 1 1 moralOther immoralOther mismatch n n 1 0.9061 
17-May-2018_16:02:15 Exp 7319 19 male R 1 1 2 immoralSelf immoralSelf match m m 1 0.8341 
17-May-2018_16:02:17 Exp 7319 19 male R 1 1 3 immoralSelf immoralSelf match m m 1 0.6089 
17-May-2018_16:02:19 Exp 7319 19 male R 1 1 4 immoralSelf moralOther mismatch n n 1 0.7430 
17-May-2018_16:02:21 Exp 7319 19 male R 1 1 5 moralOther moralSelf mismatch n n 1 0.6678 
17-May-2018_16:02:23 Exp 7319 19 male R 1 1 6 moralSelf immoralSelf mismatch n n 1 0.6553 
17-May-2018_16:02:26 Exp 7319 19 male R 1 1 7 moralSelf moralSelf match m m 1 0.6742 
17-May-2018_16:02:28 Exp 7319 19 male R 1 1 8 immoralSelf moralSelf mismatch n n 1 0.7575 
17-May-2018_16:02:30 Exp 7319 19 male R 1 1 9 moralOther moralOther match m m 1 0.6866 
17-May-2018_16:02:32 Exp 7319 19 male R 1 1 10 moralSelf moralOther mismatch n n 1 0.6461 
17-May-2018_16:02:34 Exp 7319 19 male R 1 1 11 moralOther immoralSelf mismatch n n 1 0.6170 
17-May-2018_16:02:37 Exp 7319 19 male R 1 1 12 immoralOther moralSelf mismatch n n 1 0.7992 
17-May-2018_16:02:39 Exp 7319 19 male R 1 1 13 moralOther moralOther match m m 1 0.7052 
17-May-2018_16:02:41 Exp 7319 19 male R 1 1 14 moralSelf moralSelf match m m 1 0.8653 
17-May-2018_16:02:43 Exp 7319 19 male R 1 1 15 moralSelf moralSelf match m m 1 0.5125 
17-May-2018_16:02:46 Exp 7319 19 male R 1 1 16 immoralSelf moralOther mismatch n n 1 1.0325 
17-May-2018_16:02:48 Exp 7319 19 male R 1 1 17 immoralSelf immoralSelf match m m 1 0.8072 
17-May-2018_16:02:50 Exp 7319 19 male R 1 1 18 moralSelf immoralSelf mismatch n n 1 0.6972 
17-May-2018_16:02:52 Exp 7319 19 male R 1 1 19 moralOther moralOther match m m 1 0.6611 
17-May-2018_16:02:54 Exp 7319 19 male R 1 1 20 immoralOther moralOther mismatch n n 1 0.6762 
17-May-2018_16:02:57 Exp 7319 19 male R 1 1 21 immoralOther immoralOther match m m 1 0.7356 
17-May-2018_16:02:59 Exp 7319 19 male R 1 1 22 immoralOther immoralOther match m m 1 0.8242 
17-May-2018_16:03:01 Exp 7319 19 male R 1 1 23 immoralOther moralOther mismatch n n 1 0.5786 
17-May-2018_16:03:03 Exp 7319 19 male R 1 1 24 immoralOther immoralOther match m m 1 0.5960 
17-May-2018_16:03:05 Exp 7319 19 male R 1 2 1 immoralSelf immoralSelf match m m 1 0.7618 
17-May-2018_16:03:08 Exp 7319 19 male R 1 2 2 moralSelf moralSelf match m m 1 0.6790 
17-May-2018_16:03:10 Exp 7319 19 male R 1 2 3 immoralOther immoralSelf mismatch n n 1 0.9144 
17-May-2018_16:03:13 Exp 7319 19 male R 1 2 4 moralOther immoralOther mismatch n n 1 1.1464 
17-May-2018_16:03:15 Exp 7319 19 male R 1 2 5 moralSelf moralSelf match m m 1 0.6154 
17-May-2018_16:03:17 Exp 7319 19 male R 1 2 6 moralOther moralOther match m m 1 0.6135 
17-May-2018_16:03:19 Exp 7319 19 male R 1 2 7 immoralSelf moralSelf mismatch n n 1 0.7877 
17-May-2018_16:03:21 Exp 7319 19 male R 1 2 8 immoralOther immoralSelf mismatch n n 1 0.8413 
17-May-2018_16:03:24 Exp 7319 19 male R 1 2 9 immoralSelf immoralOther mismatch n n 1 0.8961 
17-May-2018_16:03:26 Exp 7319 19 male R 1 2 10 immoralSelf moralOther mismatch n n 1 0.7560 
17-May-2018_16:03:28 Exp 7319 19 male R 1 2 11 moralOther moralOther match m m 1 0.6210 
17-May-2018_16:03:31 Exp 7319 19 male R 1 2 12 immoralOther immoralOther match m m 1 1.1035 
17-May-2018_16:03:33 Exp 7319 19 male R 1 2 13 moralOther moralOther match m m 1 0.7275 
17-May-2018_16:03:35 Exp 7319 19 male R 1 2 14 moralOther immoralSelf mismatch n n 1 0.7841 
17-May-2018_16:03:37 Exp 7319 19 male R 1 2 15 moralSelf immoralOther mismatch n n 1 0.6976 
17-May-2018_16:03:40 Exp 7319 19 male R 1 2 16 immoralSelf immoralSelf match m m 1 0.7654 
17-May-2018_16:03:42 Exp 7319 19 male R 1 2 17 moralSelf moralSelf match m m 1 0.6667 
17-May-2018_16:03:44 Exp 7319 19 male R 1 2 18 moralSelf immoralSelf mismatch n n 1 0.7459 
17-May-2018_16:03:47 Exp 7319 19 male R 1 2 19 moralOther immoralOther mismatch n n 1 0.9506 
17-May-2018_16:03:49 Exp 7319 19 male R 1 2 20 immoralOther moralSelf mismatch n n 1 0.7357 
17-May-2018_16:03:51 Exp 7319 19 male R 1 2 21 moralSelf immoralOther mismatch n n 1 0.8002 
17-May-2018_16:03:53 Exp 7319 19 male R 1 2 22 immoralSelf immoralSelf match m m 1 0.8182 
17-May-2018_16:03:56 Exp 7319 19 male R 1 2 23 immoralOther immoralOther match m m 1 0.7044 
17-May-2018_16:03:58 Exp 7319 19 male R 1 2 24 immoralOther immoralOther match m m 1 0.7444 
