Date Prac Sub Age Sex Hand Block Bin Trial Shape Label Match CorrResp Resp ACC RT
30-May-2018_15:44:32 Exp 7332 20 female R 1 1 1 immoralSelf immoralSelf match m m 1 0.9648 
30-May-2018_15:44:35 Exp 7332 20 female R 1 1 2 immoralOther immoralOther match m m 1 0.7969 
30-May-2018_15:44:37 Exp 7332 20 female R 1 1 3 immoralSelf immoralOther mismatch n m 0 0.7570 
30-May-2018_15:44:39 Exp 7332 20 female R 1 1 4 moralSelf moralOther mismatch n n 1 0.5512 
30-May-2018_15:44:41 Exp 7332 20 female R 1 1 5 immoralSelf immoralSelf match m m 1 0.6893 
30-May-2018_15:44:44 Exp 7332 20 female R 1 1 6 immoralOther immoralOther match m m 1 0.9914 
30-May-2018_15:44:46 Exp 7332 20 female R 1 1 7 immoralSelf immoralSelf match m m 1 0.8255 
30-May-2018_15:44:48 Exp 7332 20 female R 1 1 8 moralOther moralOther match m m 1 0.8297 
30-May-2018_15:44:50 Exp 7332 20 female R 1 1 9 moralOther moralSelf mismatch n n 1 0.6798 
30-May-2018_15:44:53 Exp 7332 20 female R 1 1 10 immoralOther moralOther mismatch n n 1 0.9919 
30-May-2018_15:44:55 Exp 7332 20 female R 1 1 11 immoralOther immoralSelf mismatch n n 1 1.0580 
30-May-2018_15:44:58 Exp 7332 20 female R 1 1 12 moralSelf immoralSelf mismatch n m 0 0.6862 
30-May-2018_15:45:00 Exp 7332 20 female R 1 1 13 immoralSelf immoralOther mismatch n n 1 1.0303 
30-May-2018_15:45:02 Exp 7332 20 female R 1 1 14 immoralOther immoralOther match m m 1 0.7604 
30-May-2018_15:45:05 Exp 7332 20 female R 1 1 15 immoralOther immoralSelf mismatch n NA -1 1.1570 
30-May-2018_15:45:07 Exp 7332 20 female R 1 1 16 moralOther moralSelf mismatch n m 0 1.0267 
30-May-2018_15:45:10 Exp 7332 20 female R 1 1 17 moralSelf moralSelf match m n 0 0.9269 
30-May-2018_15:45:12 Exp 7332 20 female R 1 1 18 immoralSelf moralSelf mismatch n m 0 1.0150 
30-May-2018_15:45:15 Exp 7332 20 female R 1 1 19 moralOther moralOther match m n 0 1.0771 
30-May-2018_15:45:18 Exp 7332 20 female R 1 1 20 moralSelf moralSelf match m NA -1 1.1570 
30-May-2018_15:45:20 Exp 7332 20 female R 1 1 21 moralOther moralOther match m m 1 1.1514 
30-May-2018_15:45:22 Exp 7332 20 female R 1 1 22 moralSelf moralSelf match m m 1 0.7937 
30-May-2018_15:45:25 Exp 7332 20 female R 1 1 23 moralOther moralSelf mismatch n n 1 0.7077 
30-May-2018_15:45:27 Exp 7332 20 female R 1 1 24 moralSelf immoralOther mismatch n n 1 0.9098 
30-May-2018_15:45:29 Exp 7332 20 female R 1 2 1 moralSelf moralSelf match m m 1 0.6320 
30-May-2018_15:45:31 Exp 7332 20 female R 1 2 2 immoralOther immoralOther match m n 0 0.5622 
30-May-2018_15:45:34 Exp 7332 20 female R 1 2 3 moralOther moralOther match m m 1 0.9782 
30-May-2018_15:45:36 Exp 7332 20 female R 1 2 4 immoralSelf moralOther mismatch n n 1 0.7264 
30-May-2018_15:45:38 Exp 7332 20 female R 1 2 5 immoralSelf immoralSelf match m m 1 0.9745 
30-May-2018_15:45:40 Exp 7332 20 female R 1 2 6 moralOther immoralSelf mismatch n n 1 0.6766 
30-May-2018_15:45:43 Exp 7332 20 female R 1 2 7 moralSelf moralSelf match m n 0 0.7028 
30-May-2018_15:45:45 Exp 7332 20 female R 1 2 8 immoralOther immoralSelf mismatch n NA -1 1.1570 
30-May-2018_15:45:48 Exp 7332 20 female R 1 2 9 immoralOther immoralOther match m m 1 1.0211 
30-May-2018_15:45:50 Exp 7332 20 female R 1 2 10 moralOther moralOther match m n 0 0.6892 
30-May-2018_15:45:52 Exp 7332 20 female R 1 2 11 moralOther moralOther match m m 1 0.4634 
30-May-2018_15:45:54 Exp 7332 20 female R 1 2 12 immoralOther moralSelf mismatch n n 1 0.7395 
30-May-2018_15:45:56 Exp 7332 20 female R 1 2 13 immoralOther immoralOther match m m 1 0.5596 
30-May-2018_15:45:58 Exp 7332 20 female R 1 2 14 immoralSelf immoralSelf match m m 1 0.7357 
30-May-2018_15:46:00 Exp 7332 20 female R 1 2 15 moralSelf immoralOther mismatch n n 1 0.6138 
30-May-2018_15:46:02 Exp 7332 20 female R 1 2 16 moralOther moralSelf mismatch n m 0 0.5079 
30-May-2018_15:46:05 Exp 7332 20 female R 1 2 17 moralSelf moralSelf match m m 1 0.6461 
30-May-2018_15:46:07 Exp 7332 20 female R 1 2 18 immoralOther moralSelf mismatch n n 1 0.5822 
30-May-2018_15:46:09 Exp 7332 20 female R 1 2 19 immoralSelf immoralSelf match m m 1 0.6583 
30-May-2018_15:46:11 Exp 7332 20 female R 1 2 20 moralOther immoralSelf mismatch n n 1 0.8144 
30-May-2018_15:46:13 Exp 7332 20 female R 1 2 21 immoralSelf immoralOther mismatch n n 1 0.6046 
30-May-2018_15:46:15 Exp 7332 20 female R 1 2 22 immoralSelf moralSelf mismatch n n 1 0.8687 
30-May-2018_15:46:18 Exp 7332 20 female R 1 2 23 moralSelf immoralSelf mismatch n n 1 0.6308 
30-May-2018_15:46:20 Exp 7332 20 female R 1 2 24 moralSelf immoralSelf mismatch n n 1 0.8410 
30-May-2018_15:46:22 Exp 7332 20 female R 1 3 1 immoralOther moralSelf mismatch n m 0 0.9691 
30-May-2018_15:46:24 Exp 7332 20 female R 1 3 2 immoralOther moralOther mismatch n n 1 0.6952 
30-May-2018_15:46:27 Exp 7332 20 female R 1 3 3 moralSelf moralSelf match m m 1 0.6614 
30-May-2018_15:46:29 Exp 7332 20 female R 1 3 4 immoralSelf immoralSelf match m n 0 0.5695 
30-May-2018_15:46:31 Exp 7332 20 female R 1 3 5 moralSelf moralSelf match m m 1 0.6236 
30-May-2018_15:46:33 Exp 7332 20 female R 1 3 6 moralSelf moralOther mismatch n n 1 0.6757 
30-May-2018_15:46:35 Exp 7332 20 female R 1 3 7 moralOther immoralSelf mismatch n n 1 0.5978 
30-May-2018_15:46:37 Exp 7332 20 female R 1 3 8 moralOther moralOther match m n 0 0.6539 
30-May-2018_15:46:39 Exp 7332 20 female R 1 3 9 moralSelf moralOther mismatch n n 1 0.6840 
30-May-2018_15:46:42 Exp 7332 20 female R 1 3 10 immoralSelf immoralSelf match m m 1 0.9402 
30-May-2018_15:46:44 Exp 7332 20 female R 1 3 11 moralSelf moralSelf match m n 0 0.8083 
30-May-2018_15:46:46 Exp 7332 20 female R 1 3 12 moralOther moralOther match m n 0 0.7264 
30-May-2018_15:46:48 Exp 7332 20 female R 1 3 13 immoralSelf moralOther mismatch n m 0 0.7026 
30-May-2018_15:46:50 Exp 7332 20 female R 1 3 14 immoralSelf moralSelf mismatch n n 1 0.4988 
30-May-2018_15:46:52 Exp 7332 20 female R 1 3 15 immoralOther immoralOther match m n 0 0.5588 
30-May-2018_15:46:54 Exp 7332 20 female R 1 3 16 immoralOther immoralOther match m m 1 0.2950 
30-May-2018_15:46:56 Exp 7332 20 female R 1 3 17 moralOther immoralOther mismatch n m 0 0.5411 
30-May-2018_15:46:58 Exp 7332 20 female R 1 3 18 immoralSelf moralOther mismatch n n 1 0.7851 
30-May-2018_15:47:01 Exp 7332 20 female R 1 3 19 moralSelf moralOther mismatch n n 1 1.0134 
30-May-2018_15:47:03 Exp 7332 20 female R 1 3 20 immoralSelf immoralSelf match m n 0 0.8834 
30-May-2018_15:47:06 Exp 7332 20 female R 1 3 21 immoralOther immoralOther match m m 1 0.8516 
30-May-2018_15:47:08 Exp 7332 20 female R 1 3 22 immoralOther immoralSelf mismatch n n 1 0.6897 
30-May-2018_15:47:10 Exp 7332 20 female R 1 3 23 moralOther moralOther match m m 1 0.8238 
30-May-2018_15:47:12 Exp 7332 20 female R 1 3 24 moralOther immoralOther mismatch n n 1 0.6360 
30-May-2018_15:47:37 Exp 7332 20 female R 1 4 1 moralSelf immoralSelf mismatch n n 1 0.8015 
30-May-2018_15:47:40 Exp 7332 20 female R 1 4 2 moralOther moralOther match m m 1 0.8015 
30-May-2018_15:47:42 Exp 7332 20 female R 1 4 3 moralSelf moralSelf match m m 1 0.7617 
30-May-2018_15:47:44 Exp 7332 20 female R 1 4 4 immoralSelf immoralSelf match m m 1 0.7458 
30-May-2018_15:47:46 Exp 7332 20 female R 1 4 5 moralOther immoralSelf mismatch n n 1 0.9418 
30-May-2018_15:47:49 Exp 7332 20 female R 1 4 6 immoralSelf immoralSelf match m n 0 1.0661 
30-May-2018_15:47:51 Exp 7332 20 female R 1 4 7 moralOther immoralOther mismatch n m 0 0.7502 
30-May-2018_15:47:53 Exp 7332 20 female R 1 4 8 moralOther moralOther match m n 0 0.7763 
30-May-2018_15:47:56 Exp 7332 20 female R 1 4 9 immoralOther immoralOther match m n 0 1.1344 
30-May-2018_15:47:58 Exp 7332 20 female R 1 4 10 immoralOther immoralSelf mismatch n m 0 0.9326 
30-May-2018_15:48:01 Exp 7332 20 female R 1 4 11 moralSelf moralOther mismatch n n 1 1.0507 
30-May-2018_15:48:04 Exp 7332 20 female R 1 4 12 immoralSelf immoralOther mismatch n n 1 1.0889 
30-May-2018_15:48:06 Exp 7332 20 female R 1 4 13 moralSelf moralSelf match m m 1 0.7670 
30-May-2018_15:48:08 Exp 7332 20 female R 1 4 14 moralSelf immoralOther mismatch n n 1 0.9411 
30-May-2018_15:48:10 Exp 7332 20 female R 1 4 15 moralSelf moralSelf match m m 1 0.7213 
30-May-2018_15:48:13 Exp 7332 20 female R 1 4 16 immoralSelf moralSelf mismatch n n 1 0.8574 
30-May-2018_15:48:15 Exp 7332 20 female R 1 4 17 immoralSelf moralSelf mismatch n n 1 1.0136 
30-May-2018_15:48:18 Exp 7332 20 female R 1 4 18 moralOther moralOther match m NA -1 1.1570 
30-May-2018_15:48:20 Exp 7332 20 female R 1 4 19 moralOther immoralSelf mismatch n n 1 0.8459 
30-May-2018_15:48:23 Exp 7332 20 female R 1 4 20 immoralOther moralOther mismatch n n 1 0.8461 
30-May-2018_15:48:25 Exp 7332 20 female R 1 4 21 immoralOther immoralOther match m n 0 0.6301 
30-May-2018_15:48:27 Exp 7332 20 female R 1 4 22 immoralOther immoralSelf mismatch n n 1 0.7683 
30-May-2018_15:48:29 Exp 7332 20 female R 1 4 23 immoralOther immoralOther match m m 1 0.8864 
30-May-2018_15:48:32 Exp 7332 20 female R 1 4 24 immoralSelf immoralSelf match m m 1 0.8945 
30-May-2018_15:48:34 Exp 7332 20 female R 1 5 1 moralOther moralSelf mismatch n m 0 1.0367 
30-May-2018_15:48:36 Exp 7332 20 female R 1 5 2 moralSelf moralSelf match m m 1 0.5669 
30-May-2018_15:48:38 Exp 7332 20 female R 1 5 3 immoralOther moralOther mismatch n n 1 0.7749 
30-May-2018_15:48:41 Exp 7332 20 female R 1 5 4 immoralSelf immoralOther mismatch n m 0 0.8450 
30-May-2018_15:48:43 Exp 7332 20 female R 1 5 5 immoralSelf moralSelf mismatch n n 1 1.0132 
30-May-2018_15:48:46 Exp 7332 20 female R 1 5 6 moralSelf moralOther mismatch n n 1 1.0033 
30-May-2018_15:48:48 Exp 7332 20 female R 1 5 7 moralSelf moralSelf match m n 0 0.6195 
30-May-2018_15:48:50 Exp 7332 20 female R 1 5 8 moralOther immoralOther mismatch n n 1 0.8476 
30-May-2018_15:48:53 Exp 7332 20 female R 1 5 9 moralOther moralOther match m n 0 0.9497 
30-May-2018_15:48:55 Exp 7332 20 female R 1 5 10 moralOther immoralSelf mismatch n n 1 0.8639 
30-May-2018_15:48:57 Exp 7332 20 female R 1 5 11 moralSelf immoralOther mismatch n m 0 1.0520 
30-May-2018_15:49:00 Exp 7332 20 female R 1 5 12 immoralOther immoralOther match m n 0 0.7221 
30-May-2018_15:49:02 Exp 7332 20 female R 1 5 13 moralOther moralOther match m m 1 0.9223 
30-May-2018_15:49:04 Exp 7332 20 female R 1 5 14 immoralSelf immoralSelf match m n 0 0.8425 
30-May-2018_15:49:06 Exp 7332 20 female R 1 5 15 immoralOther immoralOther match m m 1 0.6346 
30-May-2018_15:49:09 Exp 7332 20 female R 1 5 16 immoralOther moralSelf mismatch n n 1 0.6287 
30-May-2018_15:49:11 Exp 7332 20 female R 1 5 17 immoralOther immoralOther match m m 1 0.6789 
30-May-2018_15:49:13 Exp 7332 20 female R 1 5 18 moralSelf moralOther mismatch n n 1 0.7190 
30-May-2018_15:49:15 Exp 7332 20 female R 1 5 19 immoralSelf immoralSelf match m m 1 0.6630 
30-May-2018_15:49:17 Exp 7332 20 female R 1 5 20 moralSelf moralSelf match m m 1 0.6993 
30-May-2018_15:49:20 Exp 7332 20 female R 1 5 21 immoralSelf immoralOther mismatch n n 1 0.8394 
30-May-2018_15:49:22 Exp 7332 20 female R 1 5 22 immoralOther immoralSelf mismatch n m 0 0.7275 
30-May-2018_15:49:24 Exp 7332 20 female R 1 5 23 immoralSelf immoralSelf match m n 0 1.0856 
30-May-2018_15:49:27 Exp 7332 20 female R 1 5 24 moralOther moralOther match m n 0 0.7577 
30-May-2018_15:49:32 Exp 7332 20 female R 2 1 1 immoralSelf immoralSelf match m NA -1 1.1570 
30-May-2018_15:49:34 Exp 7332 20 female R 2 1 2 moralOther moralOther match m m 1 0.5782 
30-May-2018_15:49:36 Exp 7332 20 female R 2 1 3 immoralSelf immoralOther mismatch n m 0 0.6704 
30-May-2018_15:49:38 Exp 7332 20 female R 2 1 4 moralOther immoralOther mismatch n n 1 0.5204 
30-May-2018_15:49:40 Exp 7332 20 female R 2 1 5 immoralSelf immoralSelf match m m 1 0.3525 
30-May-2018_15:49:43 Exp 7332 20 female R 2 1 6 immoralSelf immoralSelf match m m 1 0.8346 
30-May-2018_15:49:45 Exp 7332 20 female R 2 1 7 immoralSelf immoralOther mismatch n n 1 0.8128 
30-May-2018_15:49:47 Exp 7332 20 female R 2 1 8 moralSelf moralSelf match m m 1 0.6269 
30-May-2018_15:49:49 Exp 7332 20 female R 2 1 9 moralSelf immoralOther mismatch n n 1 0.6471 
30-May-2018_15:49:51 Exp 7332 20 female R 2 1 10 immoralOther immoralOther match m m 1 0.7651 
30-May-2018_15:49:54 Exp 7332 20 female R 2 1 11 immoralOther immoralOther match m n 0 0.6933 
30-May-2018_15:49:56 Exp 7332 20 female R 2 1 12 moralSelf immoralSelf mismatch n m 0 0.8274 
30-May-2018_15:49:58 Exp 7332 20 female R 2 1 13 moralSelf moralOther mismatch n m 0 0.7895 
30-May-2018_15:50:00 Exp 7332 20 female R 2 1 14 moralOther moralSelf mismatch n n 1 0.8076 
30-May-2018_15:50:03 Exp 7332 20 female R 2 1 15 immoralSelf immoralOther mismatch n m 0 0.9738 
30-May-2018_15:50:05 Exp 7332 20 female R 2 1 16 moralSelf moralSelf match m n 0 0.8359 
30-May-2018_15:50:08 Exp 7332 20 female R 2 1 17 immoralOther moralOther mismatch n n 1 0.8781 
30-May-2018_15:50:10 Exp 7332 20 female R 2 1 18 moralOther moralOther match m n 0 0.7582 
30-May-2018_15:50:12 Exp 7332 20 female R 2 1 19 immoralOther moralOther mismatch n n 1 0.9344 
30-May-2018_15:50:14 Exp 7332 20 female R 2 1 20 moralSelf moralSelf match m m 1 0.7645 
30-May-2018_15:50:17 Exp 7332 20 female R 2 1 21 moralOther immoralOther mismatch n NA -1 1.1570 
30-May-2018_15:50:19 Exp 7332 20 female R 2 1 22 immoralOther moralSelf mismatch n n 1 0.6948 
30-May-2018_15:50:22 Exp 7332 20 female R 2 1 23 moralOther moralOther match m m 1 0.8689 
30-May-2018_15:50:24 Exp 7332 20 female R 2 1 24 immoralOther immoralOther match m m 1 0.7990 
30-May-2018_15:50:26 Exp 7332 20 female R 2 2 1 immoralOther immoralOther match m m 1 0.8152 
30-May-2018_15:50:28 Exp 7332 20 female R 2 2 2 moralSelf moralSelf match m m 1 0.7333 
30-May-2018_15:50:31 Exp 7332 20 female R 2 2 3 immoralOther moralSelf mismatch n n 1 0.9074 
30-May-2018_15:50:33 Exp 7332 20 female R 2 2 4 moralOther immoralOther mismatch n n 1 0.7735 
30-May-2018_15:50:35 Exp 7332 20 female R 2 2 5 moralOther moralOther match m n 0 0.9877 
30-May-2018_15:50:38 Exp 7332 20 female R 2 2 6 immoralSelf moralSelf mismatch n n 1 0.9100 
30-May-2018_15:50:40 Exp 7332 20 female R 2 2 7 moralOther moralOther match m m 1 0.6880 
30-May-2018_15:50:42 Exp 7332 20 female R 2 2 8 immoralSelf immoralSelf match m m 1 0.9101 
30-May-2018_15:50:45 Exp 7332 20 female R 2 2 9 moralSelf immoralOther mismatch n n 1 0.9282 
30-May-2018_15:50:47 Exp 7332 20 female R 2 2 10 immoralOther immoralOther match m m 1 0.8624 
30-May-2018_15:50:49 Exp 7332 20 female R 2 2 11 moralOther moralOther match m m 1 0.8345 
30-May-2018_15:50:52 Exp 7332 20 female R 2 2 12 moralSelf moralSelf match m NA -1 1.1570 
30-May-2018_15:50:55 Exp 7332 20 female R 2 2 13 moralSelf immoralSelf mismatch n n 1 0.9668 
30-May-2018_15:50:57 Exp 7332 20 female R 2 2 14 moralOther moralSelf mismatch n NA -1 1.1570 
30-May-2018_15:50:59 Exp 7332 20 female R 2 2 15 immoralOther immoralOther match m n 0 0.7051 
30-May-2018_15:51:02 Exp 7332 20 female R 2 2 16 moralSelf moralOther mismatch n n 1 0.9972 
30-May-2018_15:51:04 Exp 7332 20 female R 2 2 17 moralSelf moralSelf match m m 1 0.8293 
30-May-2018_15:51:06 Exp 7332 20 female R 2 2 18 immoralSelf immoralSelf match m m 1 0.7435 
30-May-2018_15:51:09 Exp 7332 20 female R 2 2 19 immoralOther moralSelf mismatch n n 1 0.8356 
30-May-2018_15:51:11 Exp 7332 20 female R 2 2 20 immoralOther moralSelf mismatch n n 1 0.7897 
30-May-2018_15:51:13 Exp 7332 20 female R 2 2 21 immoralSelf immoralOther mismatch n m 0 0.8398 
30-May-2018_15:51:15 Exp 7332 20 female R 2 2 22 moralOther moralSelf mismatch n n 1 0.7360 
30-May-2018_15:51:18 Exp 7332 20 female R 2 2 23 immoralSelf immoralOther mismatch n n 1 0.9021 
30-May-2018_15:51:20 Exp 7332 20 female R 2 2 24 immoralSelf immoralSelf match m n 0 0.8663 
30-May-2018_15:51:22 Exp 7332 20 female R 2 3 1 moralSelf moralSelf match m m 1 0.6385 
30-May-2018_15:51:25 Exp 7332 20 female R 2 3 2 immoralSelf moralOther mismatch n n 1 0.7506 
30-May-2018_15:51:27 Exp 7332 20 female R 2 3 3 moralOther moralSelf mismatch n n 1 0.9367 
30-May-2018_15:51:29 Exp 7332 20 female R 2 3 4 moralSelf moralOther mismatch n n 1 0.8628 
30-May-2018_15:51:31 Exp 7332 20 female R 2 3 5 immoralSelf immoralSelf match m m 1 0.7143 
30-May-2018_15:51:34 Exp 7332 20 female R 2 3 6 moralSelf moralSelf match m m 1 0.7650 
30-May-2018_15:51:36 Exp 7332 20 female R 2 3 7 immoralOther moralOther mismatch n n 1 0.8452 
30-May-2018_15:51:38 Exp 7332 20 female R 2 3 8 moralSelf immoralOther mismatch n n 1 0.8292 
30-May-2018_15:51:41 Exp 7332 20 female R 2 3 9 immoralSelf immoralOther mismatch n NA -1 1.1570 
30-May-2018_15:51:43 Exp 7332 20 female R 2 3 10 immoralOther moralOther mismatch n n 1 0.6976 
30-May-2018_15:51:45 Exp 7332 20 female R 2 3 11 moralOther moralSelf mismatch n n 1 0.8218 
30-May-2018_15:51:47 Exp 7332 20 female R 2 3 12 moralOther moralOther match m n 0 0.5218 
30-May-2018_15:51:50 Exp 7332 20 female R 2 3 13 immoralOther immoralOther match m n 0 0.7860 
30-May-2018_15:51:52 Exp 7332 20 female R 2 3 14 moralOther moralOther match m NA -1 1.1568 
30-May-2018_15:51:55 Exp 7332 20 female R 2 3 15 moralSelf moralSelf match m m 1 0.7283 
30-May-2018_15:51:57 Exp 7332 20 female R 2 3 16 immoralOther immoralOther match m m 1 0.9104 
30-May-2018_15:51:59 Exp 7332 20 female R 2 3 17 immoralOther immoralOther match m m 1 0.5765 
30-May-2018_15:52:01 Exp 7332 20 female R 2 3 18 immoralSelf immoralOther mismatch n n 1 0.5907 
30-May-2018_15:52:03 Exp 7332 20 female R 2 3 19 immoralSelf immoralSelf match m m 1 0.9367 
30-May-2018_15:52:06 Exp 7332 20 female R 2 3 20 moralSelf immoralSelf mismatch n n 1 0.8789 
30-May-2018_15:52:08 Exp 7332 20 female R 2 3 21 moralOther immoralSelf mismatch n n 1 0.9590 
30-May-2018_15:52:11 Exp 7332 20 female R 2 3 22 immoralOther moralOther mismatch n n 1 0.7672 
30-May-2018_15:52:13 Exp 7332 20 female R 2 3 23 moralOther moralOther match m m 1 0.5574 
30-May-2018_15:52:15 Exp 7332 20 female R 2 3 24 immoralSelf immoralSelf match m m 1 0.7895 
30-May-2018_15:52:33 Exp 7332 20 female R 2 4 1 immoralOther moralOther mismatch n n 1 0.9665 
30-May-2018_15:52:35 Exp 7332 20 female R 2 4 2 immoralSelf immoralSelf match m m 1 0.6866 
30-May-2018_15:52:37 Exp 7332 20 female R 2 4 3 moralOther moralOther match m n 0 0.7187 
30-May-2018_15:52:40 Exp 7332 20 female R 2 4 4 immoralSelf immoralOther mismatch n NA -1 1.1570 
30-May-2018_15:52:42 Exp 7332 20 female R 2 4 5 moralSelf moralSelf match m m 1 1.0330 
30-May-2018_15:52:44 Exp 7332 20 female R 2 4 6 moralSelf moralSelf match m m 1 0.5551 
30-May-2018_15:52:47 Exp 7332 20 female R 2 4 7 immoralSelf immoralSelf match m m 1 0.7093 
30-May-2018_15:52:49 Exp 7332 20 female R 2 4 8 moralSelf immoralSelf mismatch n n 1 0.8554 
30-May-2018_15:52:51 Exp 7332 20 female R 2 4 9 immoralSelf moralSelf mismatch n m 0 0.8055 
30-May-2018_15:52:53 Exp 7332 20 female R 2 4 10 moralOther immoralSelf mismatch n n 1 0.7573 
30-May-2018_15:52:56 Exp 7332 20 female R 2 4 11 moralSelf immoralSelf mismatch n NA -1 1.1570 
30-May-2018_15:52:58 Exp 7332 20 female R 2 4 12 moralOther moralOther match m n 0 0.8880 
30-May-2018_15:53:00 Exp 7332 20 female R 2 4 13 moralOther moralOther match m m 1 0.5582 
30-May-2018_15:53:03 Exp 7332 20 female R 2 4 14 immoralOther immoralOther match m n 0 0.6462 
30-May-2018_15:53:05 Exp 7332 20 female R 2 4 15 immoralOther moralSelf mismatch n n 1 0.7824 
30-May-2018_15:53:07 Exp 7332 20 female R 2 4 16 moralOther immoralSelf mismatch n n 1 0.8745 
30-May-2018_15:53:10 Exp 7332 20 female R 2 4 17 immoralOther immoralOther match m m 1 0.8686 
30-May-2018_15:53:12 Exp 7332 20 female R 2 4 18 moralSelf moralSelf match m m 1 0.8067 
30-May-2018_15:53:14 Exp 7332 20 female R 2 4 19 immoralSelf immoralSelf match m m 1 0.9113 
30-May-2018_15:53:16 Exp 7332 20 female R 2 4 20 moralSelf moralOther mismatch n n 1 0.7770 
30-May-2018_15:53:19 Exp 7332 20 female R 2 4 21 immoralOther immoralOther match m m 1 0.6051 
30-May-2018_15:53:21 Exp 7332 20 female R 2 4 22 immoralOther moralSelf mismatch n m 0 0.8532 
30-May-2018_15:53:23 Exp 7332 20 female R 2 4 23 immoralSelf moralSelf mismatch n n 1 0.8274 
30-May-2018_15:53:25 Exp 7332 20 female R 2 4 24 moralOther moralSelf mismatch n n 1 0.5795 
30-May-2018_15:53:28 Exp 7332 20 female R 2 5 1 moralSelf moralOther mismatch n m 0 0.8477 
30-May-2018_15:53:30 Exp 7332 20 female R 2 5 2 moralSelf immoralOther mismatch n n 1 0.8218 
30-May-2018_15:53:32 Exp 7332 20 female R 2 5 3 moralOther moralOther match m n 0 0.8339 
30-May-2018_15:53:35 Exp 7332 20 female R 2 5 4 immoralOther moralSelf mismatch n n 1 0.9000 
30-May-2018_15:53:37 Exp 7332 20 female R 2 5 5 moralSelf moralSelf match m m 1 0.8082 
30-May-2018_15:53:39 Exp 7332 20 female R 2 5 6 moralOther moralOther match m m 1 0.9343 
30-May-2018_15:53:42 Exp 7332 20 female R 2 5 7 moralOther immoralSelf mismatch n n 1 0.8125 
30-May-2018_15:53:44 Exp 7332 20 female R 2 5 8 immoralSelf moralOther mismatch n n 1 1.0666 
30-May-2018_15:53:46 Exp 7332 20 female R 2 5 9 moralOther moralOther match m m 1 0.7988 
30-May-2018_15:53:49 Exp 7332 20 female R 2 5 10 moralOther moralSelf mismatch n NA -1 1.1569 
30-May-2018_15:53:51 Exp 7332 20 female R 2 5 11 immoralOther immoralOther match m m 1 0.8070 
30-May-2018_15:53:54 Exp 7332 20 female R 2 5 12 moralSelf moralSelf match m m 1 0.8152 
30-May-2018_15:53:56 Exp 7332 20 female R 2 5 13 immoralSelf immoralOther mismatch n m 0 0.7813 
30-May-2018_15:53:58 Exp 7332 20 female R 2 5 14 immoralOther immoralOther match m m 1 0.8894 
30-May-2018_15:54:01 Exp 7332 20 female R 2 5 15 immoralSelf moralOther mismatch n n 1 0.9356 
30-May-2018_15:54:03 Exp 7332 20 female R 2 5 16 immoralSelf immoralSelf match m m 1 0.8137 
30-May-2018_15:54:06 Exp 7332 20 female R 2 5 17 immoralOther immoralSelf mismatch n NA -1 1.1570 
30-May-2018_15:54:08 Exp 7332 20 female R 2 5 18 moralSelf moralSelf match m m 1 0.5979 
30-May-2018_15:54:10 Exp 7332 20 female R 2 5 19 immoralSelf immoralSelf match m m 1 0.6781 
30-May-2018_15:54:12 Exp 7332 20 female R 2 5 20 moralSelf immoralOther mismatch n n 1 0.6702 
30-May-2018_15:54:14 Exp 7332 20 female R 2 5 21 immoralOther immoralSelf mismatch n n 1 0.6963 
30-May-2018_15:54:17 Exp 7332 20 female R 2 5 22 immoralSelf immoralSelf match m NA -1 1.1570 
30-May-2018_15:54:19 Exp 7332 20 female R 2 5 23 immoralOther immoralOther match m NA -1 1.1570 
30-May-2018_15:54:22 Exp 7332 20 female R 2 5 24 moralOther moralSelf mismatch n m 0 0.9867 
30-May-2018_15:54:27 Exp 7332 20 female R 3 1 1 moralOther immoralOther mismatch n n 1 0.6671 
30-May-2018_15:54:29 Exp 7332 20 female R 3 1 2 immoralSelf moralOther mismatch n m 0 0.6392 
30-May-2018_15:54:31 Exp 7332 20 female R 3 1 3 immoralSelf immoralSelf match m m 1 0.7593 
30-May-2018_15:54:34 Exp 7332 20 female R 3 1 4 moralSelf immoralOther mismatch n n 1 1.0634 
30-May-2018_15:54:36 Exp 7332 20 female R 3 1 5 moralSelf moralSelf match m m 1 0.8036 
30-May-2018_15:54:38 Exp 7332 20 female R 3 1 6 moralOther moralOther match m m 1 0.6597 
30-May-2018_15:54:41 Exp 7332 20 female R 3 1 7 moralOther immoralSelf mismatch n n 1 0.6878 
30-May-2018_15:54:43 Exp 7332 20 female R 3 1 8 immoralSelf immoralSelf match m m 1 0.6300 
30-May-2018_15:54:45 Exp 7332 20 female R 3 1 9 moralSelf immoralSelf mismatch n n 1 0.6640 
30-May-2018_15:54:47 Exp 7332 20 female R 3 1 10 moralOther immoralOther mismatch n n 1 0.6043 
30-May-2018_15:54:49 Exp 7332 20 female R 3 1 11 immoralOther moralOther mismatch n n 1 0.6043 
30-May-2018_15:54:51 Exp 7332 20 female R 3 1 12 immoralOther moralOther mismatch n n 1 0.7244 
30-May-2018_15:54:53 Exp 7332 20 female R 3 1 13 immoralSelf moralOther mismatch n n 1 0.8366 
30-May-2018_15:54:56 Exp 7332 20 female R 3 1 14 immoralOther immoralOther match m n 0 0.6067 
30-May-2018_15:54:58 Exp 7332 20 female R 3 1 15 immoralSelf moralOther mismatch n n 1 0.7108 
30-May-2018_15:55:00 Exp 7332 20 female R 3 1 16 immoralOther immoralSelf mismatch n n 1 0.7690 
30-May-2018_15:55:02 Exp 7332 20 female R 3 1 17 immoralOther immoralOther match m n 0 0.4871 
30-May-2018_15:55:04 Exp 7332 20 female R 3 1 18 moralSelf immoralSelf mismatch n n 1 0.7412 
30-May-2018_15:55:06 Exp 7332 20 female R 3 1 19 moralOther moralOther match m n 0 0.8494 
30-May-2018_15:55:09 Exp 7332 20 female R 3 1 20 immoralSelf immoralSelf match m m 1 0.7275 
30-May-2018_15:55:11 Exp 7332 20 female R 3 1 21 moralOther moralOther match m m 1 0.9655 
30-May-2018_15:55:14 Exp 7332 20 female R 3 1 22 moralSelf moralSelf match m m 1 0.9498 
30-May-2018_15:55:16 Exp 7332 20 female R 3 1 23 moralSelf moralSelf match m m 1 0.7038 
30-May-2018_15:55:18 Exp 7332 20 female R 3 1 24 immoralOther immoralOther match m m 1 0.8200 
30-May-2018_15:55:20 Exp 7332 20 female R 3 2 1 moralOther moralOther match m m 1 0.7441 
30-May-2018_15:55:22 Exp 7332 20 female R 3 2 2 moralSelf moralSelf match m m 1 0.5562 
30-May-2018_15:55:25 Exp 7332 20 female R 3 2 3 immoralSelf moralOther mismatch n m 0 0.8144 
30-May-2018_15:55:27 Exp 7332 20 female R 3 2 4 immoralOther immoralSelf mismatch n n 1 0.8605 
30-May-2018_15:55:29 Exp 7332 20 female R 3 2 5 moralOther moralOther match m m 1 1.0166 
30-May-2018_15:55:32 Exp 7332 20 female R 3 2 6 moralSelf moralOther mismatch n m 0 0.7828 
30-May-2018_15:55:34 Exp 7332 20 female R 3 2 7 immoralOther moralOther mismatch n n 1 0.8670 
30-May-2018_15:55:37 Exp 7332 20 female R 3 2 8 moralOther moralSelf mismatch n NA -1 1.1570 
30-May-2018_15:55:39 Exp 7332 20 female R 3 2 9 immoralSelf immoralSelf match m m 1 1.0333 
30-May-2018_15:55:41 Exp 7332 20 female R 3 2 10 immoralOther immoralSelf mismatch n m 0 0.6914 
30-May-2018_15:55:43 Exp 7332 20 female R 3 2 11 moralSelf moralOther mismatch n m 0 0.6335 
30-May-2018_15:55:45 Exp 7332 20 female R 3 2 12 moralSelf moralSelf match m m 1 0.5956 
30-May-2018_15:55:48 Exp 7332 20 female R 3 2 13 moralSelf immoralSelf mismatch n n 1 0.7497 
30-May-2018_15:55:50 Exp 7332 20 female R 3 2 14 immoralSelf immoralSelf match m m 1 0.6719 
30-May-2018_15:55:52 Exp 7332 20 female R 3 2 15 moralOther moralOther match m m 1 0.9300 
30-May-2018_15:55:55 Exp 7332 20 female R 3 2 16 immoralSelf immoralOther mismatch n n 1 0.7761 
30-May-2018_15:55:57 Exp 7332 20 female R 3 2 17 immoralOther immoralOther match m m 1 0.7743 
30-May-2018_15:55:59 Exp 7332 20 female R 3 2 18 moralOther immoralOther mismatch n n 1 0.6444 
30-May-2018_15:56:01 Exp 7332 20 female R 3 2 19 immoralSelf moralSelf mismatch n m 0 0.6525 
30-May-2018_15:56:03 Exp 7332 20 female R 3 2 20 moralOther immoralOther mismatch n n 1 0.8106 
30-May-2018_15:56:05 Exp 7332 20 female R 3 2 21 immoralOther immoralOther match m m 1 0.6887 
30-May-2018_15:56:08 Exp 7332 20 female R 3 2 22 moralSelf moralSelf match m m 1 0.9349 
30-May-2018_15:56:10 Exp 7332 20 female R 3 2 23 immoralOther immoralOther match m m 1 0.8610 
30-May-2018_15:56:13 Exp 7332 20 female R 3 2 24 immoralSelf immoralSelf match m m 1 0.8252 
30-May-2018_15:56:15 Exp 7332 20 female R 3 3 1 immoralSelf immoralSelf match m m 1 0.5973 
30-May-2018_15:56:17 Exp 7332 20 female R 3 3 2 moralOther immoralOther mismatch n n 1 0.8614 
30-May-2018_15:56:19 Exp 7332 20 female R 3 3 3 moralSelf immoralOther mismatch n n 1 0.8735 
30-May-2018_15:56:21 Exp 7332 20 female R 3 3 4 moralOther moralSelf mismatch n m 0 0.6517 
30-May-2018_15:56:23 Exp 7332 20 female R 3 3 5 moralSelf moralSelf match m m 1 0.5858 
30-May-2018_15:56:26 Exp 7332 20 female R 3 3 6 immoralOther moralOther mismatch n n 1 1.0459 
30-May-2018_15:56:28 Exp 7332 20 female R 3 3 7 immoralOther immoralOther match m n 0 0.8061 
30-May-2018_15:56:31 Exp 7332 20 female R 3 3 8 immoralSelf immoralSelf match m m 1 0.7982 
30-May-2018_15:56:33 Exp 7332 20 female R 3 3 9 moralSelf moralSelf match m m 1 0.7343 
30-May-2018_15:56:35 Exp 7332 20 female R 3 3 10 immoralSelf moralSelf mismatch n n 1 0.9004 
30-May-2018_15:56:37 Exp 7332 20 female R 3 3 11 moralSelf moralOther mismatch n n 1 0.8086 
30-May-2018_15:56:40 Exp 7332 20 female R 3 3 12 moralSelf immoralOther mismatch n n 1 0.8228 
30-May-2018_15:56:42 Exp 7332 20 female R 3 3 13 immoralOther moralSelf mismatch n n 1 0.8028 
30-May-2018_15:56:44 Exp 7332 20 female R 3 3 14 immoralSelf moralSelf mismatch n m 0 0.7630 
30-May-2018_15:56:47 Exp 7332 20 female R 3 3 15 moralOther immoralSelf mismatch n n 1 0.8271 
30-May-2018_15:56:49 Exp 7332 20 female R 3 3 16 immoralOther immoralOther match m m 1 0.7812 
30-May-2018_15:56:51 Exp 7332 20 female R 3 3 17 immoralSelf moralOther mismatch n n 1 0.7533 
30-May-2018_15:56:53 Exp 7332 20 female R 3 3 18 moralOther moralOther match m m 1 0.6435 
30-May-2018_15:56:55 Exp 7332 20 female R 3 3 19 immoralSelf immoralSelf match m m 1 0.7796 
30-May-2018_15:56:58 Exp 7332 20 female R 3 3 20 moralOther moralOther match m m 1 0.8798 
30-May-2018_15:57:00 Exp 7332 20 female R 3 3 21 immoralOther moralSelf mismatch n n 1 0.9519 
30-May-2018_15:57:03 Exp 7332 20 female R 3 3 22 moralSelf moralSelf match m m 1 0.8580 
30-May-2018_15:57:05 Exp 7332 20 female R 3 3 23 moralOther moralOther match m n 0 0.9182 
30-May-2018_15:57:07 Exp 7332 20 female R 3 3 24 immoralOther immoralOther match m n 0 0.7743 
30-May-2018_15:57:24 Exp 7332 20 female R 3 4 1 moralOther moralOther match m n 0 0.8252 
30-May-2018_15:57:26 Exp 7332 20 female R 3 4 2 moralOther immoralOther mismatch n n 1 0.7174 
30-May-2018_15:57:28 Exp 7332 20 female R 3 4 3 moralSelf moralSelf match m m 1 0.7575 
30-May-2018_15:57:30 Exp 7332 20 female R 3 4 4 immoralOther moralOther mismatch n n 1 0.6776 
30-May-2018_15:57:32 Exp 7332 20 female R 3 4 5 moralSelf immoralSelf mismatch n n 1 0.6698 
30-May-2018_15:57:34 Exp 7332 20 female R 3 4 6 immoralSelf immoralSelf match m m 1 0.5120 
30-May-2018_15:57:37 Exp 7332 20 female R 3 4 7 immoralOther immoralSelf mismatch n n 1 0.7380 
30-May-2018_15:57:39 Exp 7332 20 female R 3 4 8 immoralOther immoralOther match m m 1 1.0221 
30-May-2018_15:57:42 Exp 7332 20 female R 3 4 9 immoralSelf immoralSelf match m NA -1 1.1570 
30-May-2018_15:57:44 Exp 7332 20 female R 3 4 10 immoralOther immoralOther match m NA -1 1.1570 
30-May-2018_15:57:47 Exp 7332 20 female R 3 4 11 immoralOther moralSelf mismatch n n 1 0.6626 
30-May-2018_15:57:49 Exp 7332 20 female R 3 4 12 immoralSelf immoralSelf match m m 1 0.6987 
30-May-2018_15:57:51 Exp 7332 20 female R 3 4 13 moralOther immoralOther mismatch n n 1 0.9029 
30-May-2018_15:57:53 Exp 7332 20 female R 3 4 14 immoralSelf moralOther mismatch n m 0 0.6350 
30-May-2018_15:57:56 Exp 7332 20 female R 3 4 15 moralOther immoralSelf mismatch n n 1 0.8451 
30-May-2018_15:57:58 Exp 7332 20 female R 3 4 16 immoralSelf immoralOther mismatch n m 0 0.8772 
30-May-2018_15:58:00 Exp 7332 20 female R 3 4 17 moralSelf moralOther mismatch n n 1 0.9014 
30-May-2018_15:58:02 Exp 7332 20 female R 3 4 18 moralSelf moralSelf match m m 1 0.5935 
30-May-2018_15:58:05 Exp 7332 20 female R 3 4 19 moralOther moralOther match m n 0 1.0356 
30-May-2018_15:58:07 Exp 7332 20 female R 3 4 20 moralOther moralOther match m m 1 0.5658 
30-May-2018_15:58:09 Exp 7332 20 female R 3 4 21 moralSelf immoralOther mismatch n n 1 0.8059 
30-May-2018_15:58:12 Exp 7332 20 female R 3 4 22 immoralOther immoralOther match m m 1 0.9420 
30-May-2018_15:58:14 Exp 7332 20 female R 3 4 23 immoralSelf immoralOther mismatch n n 1 0.9622 
30-May-2018_15:58:16 Exp 7332 20 female R 3 4 24 moralSelf moralSelf match m m 1 0.6504 
30-May-2018_15:58:19 Exp 7332 20 female R 3 5 1 moralSelf moralSelf match m m 1 0.8964 
30-May-2018_15:58:21 Exp 7332 20 female R 3 5 2 immoralOther immoralOther match m m 1 0.8705 
30-May-2018_15:58:23 Exp 7332 20 female R 3 5 3 immoralSelf immoralOther mismatch n n 1 0.6327 
30-May-2018_15:58:25 Exp 7332 20 female R 3 5 4 moralOther moralOther match m m 1 0.9789 
30-May-2018_15:58:28 Exp 7332 20 female R 3 5 5 moralSelf moralOther mismatch n n 1 0.7909 
30-May-2018_15:58:30 Exp 7332 20 female R 3 5 6 moralSelf immoralOther mismatch n n 1 0.9450 
30-May-2018_15:58:32 Exp 7332 20 female R 3 5 7 immoralSelf immoralOther mismatch n m 0 0.8532 
30-May-2018_15:58:35 Exp 7332 20 female R 3 5 8 immoralSelf immoralSelf match m m 1 0.6835 
30-May-2018_15:58:37 Exp 7332 20 female R 3 5 9 moralOther moralOther match m n 0 1.0035 
30-May-2018_15:58:39 Exp 7332 20 female R 3 5 10 immoralOther moralSelf mismatch n n 1 0.6756 
30-May-2018_15:58:41 Exp 7332 20 female R 3 5 11 immoralOther moralOther mismatch n n 1 0.5818 
30-May-2018_15:58:43 Exp 7332 20 female R 3 5 12 moralSelf moralSelf match m m 1 0.5859 
30-May-2018_15:58:46 Exp 7332 20 female R 3 5 13 moralOther immoralOther mismatch n n 1 0.8540 
30-May-2018_15:58:48 Exp 7332 20 female R 3 5 14 moralOther immoralOther mismatch n n 1 0.6602 
30-May-2018_15:58:50 Exp 7332 20 female R 3 5 15 moralSelf moralSelf match m m 1 0.5522 
30-May-2018_15:58:52 Exp 7332 20 female R 3 5 16 immoralSelf immoralSelf match m m 1 0.9463 
30-May-2018_15:58:55 Exp 7332 20 female R 3 5 17 immoralOther immoralOther match m m 1 0.7185 
30-May-2018_15:58:57 Exp 7332 20 female R 3 5 18 moralOther moralOther match m m 1 0.6947 
30-May-2018_15:58:59 Exp 7332 20 female R 3 5 19 moralSelf immoralOther mismatch n n 1 0.9648 
30-May-2018_15:59:01 Exp 7332 20 female R 3 5 20 moralOther immoralOther mismatch n n 1 0.7089 
30-May-2018_15:59:04 Exp 7332 20 female R 3 5 21 immoralOther immoralOther match m m 1 0.7911 
30-May-2018_15:59:06 Exp 7332 20 female R 3 5 22 immoralSelf moralOther mismatch n n 1 0.8571 
30-May-2018_15:59:08 Exp 7332 20 female R 3 5 23 immoralSelf immoralSelf match m m 1 0.9493 
30-May-2018_15:59:11 Exp 7332 20 female R 3 5 24 immoralOther moralSelf mismatch n n 1 0.7035 
Date Prac Sub Age Sex Hand Block Bin Trial Shape Label Match CorrResp Resp ACC RT
30-May-2018_16:04:11 Exp 7332 20 female R 1 1 1 immoralSelf immoralSelf match m n 0 0.9567 
30-May-2018_16:04:14 Exp 7332 20 female R 1 1 2 immoralSelf moralOther mismatch n NA -1 1.1570 
30-May-2018_16:04:16 Exp 7332 20 female R 1 1 3 moralSelf moralSelf match m m 1 0.5851 
30-May-2018_16:04:18 Exp 7332 20 female R 1 1 4 moralOther immoralSelf mismatch n n 1 0.6452 
30-May-2018_16:04:20 Exp 7332 20 female R 1 1 5 moralOther moralOther match m m 1 0.7493 
30-May-2018_16:04:22 Exp 7332 20 female R 1 1 6 immoralOther immoralOther match m m 1 0.6554 
30-May-2018_16:04:24 Exp 7332 20 female R 1 1 7 moralOther immoralOther mismatch n n 1 0.6936 
30-May-2018_16:04:27 Exp 7332 20 female R 1 1 8 moralOther moralOther match m n 0 1.0437 
30-May-2018_16:04:29 Exp 7332 20 female R 1 1 9 immoralOther moralOther mismatch n n 1 0.8439 
30-May-2018_16:04:31 Exp 7332 20 female R 1 1 10 moralOther immoralSelf mismatch n n 1 0.8679 
30-May-2018_16:04:34 Exp 7332 20 female R 1 1 11 immoralSelf immoralSelf match m m 1 0.8620 
30-May-2018_16:04:36 Exp 7332 20 female R 1 1 12 immoralSelf immoralOther mismatch n n 1 0.7142 
30-May-2018_16:04:38 Exp 7332 20 female R 1 1 13 moralSelf immoralSelf mismatch n n 1 0.8204 
30-May-2018_16:04:40 Exp 7332 20 female R 1 1 14 moralSelf moralSelf match m m 1 0.5125 
30-May-2018_16:04:43 Exp 7332 20 female R 1 1 15 immoralSelf moralSelf mismatch n n 1 0.8025 
30-May-2018_16:04:45 Exp 7332 20 female R 1 1 16 immoralOther moralSelf mismatch n n 1 0.7548 
30-May-2018_16:04:47 Exp 7332 20 female R 1 1 17 immoralOther immoralOther match m m 1 0.7488 
30-May-2018_16:04:49 Exp 7332 20 female R 1 1 18 moralOther moralOther match m m 1 0.9190 
30-May-2018_16:04:52 Exp 7332 20 female R 1 1 19 moralSelf immoralOther mismatch n n 1 0.7191 
30-May-2018_16:04:54 Exp 7332 20 female R 1 1 20 immoralOther immoralOther match m m 1 0.8232 
30-May-2018_16:04:56 Exp 7332 20 female R 1 1 21 moralSelf immoralSelf mismatch n n 1 1.0673 
30-May-2018_16:04:59 Exp 7332 20 female R 1 1 22 immoralSelf immoralSelf match m m 1 0.8216 
30-May-2018_16:05:01 Exp 7332 20 female R 1 1 23 moralSelf moralSelf match m m 1 0.9377 
30-May-2018_16:05:04 Exp 7332 20 female R 1 1 24 immoralOther moralSelf mismatch n n 1 1.0058 
30-May-2018_16:05:06 Exp 7332 20 female R 1 2 1 moralSelf moralSelf match m m 1 0.6219 
30-May-2018_16:05:08 Exp 7332 20 female R 1 2 2 immoralSelf moralSelf mismatch n n 1 0.7460 
30-May-2018_16:05:10 Exp 7332 20 female R 1 2 3 immoralOther immoralOther match m m 1 0.7104 
30-May-2018_16:05:12 Exp 7332 20 female R 1 2 4 moralOther moralOther match m m 1 0.7124 
30-May-2018_16:05:15 Exp 7332 20 female R 1 2 5 moralSelf moralSelf match m m 1 0.7704 
30-May-2018_16:05:17 Exp 7332 20 female R 1 2 6 immoralOther immoralSelf mismatch n n 1 0.7605 
30-May-2018_16:05:19 Exp 7332 20 female R 1 2 7 moralOther moralSelf mismatch n NA -1 1.1570 
30-May-2018_16:05:22 Exp 7332 20 female R 1 2 8 moralOther immoralSelf mismatch n n 1 0.7469 
30-May-2018_16:05:24 Exp 7332 20 female R 1 2 9 moralSelf immoralSelf mismatch n n 1 0.9910 
30-May-2018_16:05:27 Exp 7332 20 female R 1 2 10 immoralSelf immoralSelf match m m 1 1.0651 
30-May-2018_16:05:29 Exp 7332 20 female R 1 2 11 immoralSelf immoralOther mismatch n n 1 0.7812 
30-May-2018_16:05:31 Exp 7332 20 female R 1 2 12 immoralOther moralSelf mismatch n n 1 0.8174 
30-May-2018_16:05:33 Exp 7332 20 female R 1 2 13 immoralOther moralSelf mismatch n n 1 0.6375 
30-May-2018_16:05:36 Exp 7332 20 female R 1 2 14 immoralSelf immoralSelf match m m 1 0.7657 
30-May-2018_16:05:38 Exp 7332 20 female R 1 2 15 immoralSelf immoralSelf match m m 1 0.7658 
30-May-2018_16:05:40 Exp 7332 20 female R 1 2 16 moralOther moralOther match m n 0 0.6460 
30-May-2018_16:05:42 Exp 7332 20 female R 1 2 17 immoralOther immoralOther match m m 1 0.7020 
30-May-2018_16:05:45 Exp 7332 20 female R 1 2 18 moralOther immoralSelf mismatch n n 1 0.9701 
30-May-2018_16:05:47 Exp 7332 20 female R 1 2 19 immoralSelf moralSelf mismatch n n 1 0.9203 
30-May-2018_16:05:49 Exp 7332 20 female R 1 2 20 moralOther moralOther match m m 1 0.9525 
30-May-2018_16:05:52 Exp 7332 20 female R 1 2 21 immoralOther immoralOther match m m 1 0.7706 
30-May-2018_16:05:54 Exp 7332 20 female R 1 2 22 moralSelf moralOther mismatch n n 1 0.8407 
30-May-2018_16:05:56 Exp 7332 20 female R 1 2 23 moralSelf moralSelf match m m 1 0.8008 
30-May-2018_16:05:59 Exp 7332 20 female R 1 2 24 moralSelf moralOther mismatch n n 1 1.1049 
Date Prac Sub Age Sex Hand Block Bin Trial Shape Label Match CorrResp Resp ACC RT
30-May-2018_16:10:26 Exp 7332 20 female R 1 1 1 immoralSelf moralSelf mismatch n n 1 0.7784 
30-May-2018_16:10:29 Exp 7332 20 female R 1 1 2 moralOther immoralOther mismatch n n 1 0.9826 
30-May-2018_16:10:31 Exp 7332 20 female R 1 1 3 immoralOther immoralOther match m n 0 1.0267 
30-May-2018_16:10:33 Exp 7332 20 female R 1 1 4 immoralSelf immoralSelf match m m 1 0.7509 
30-May-2018_16:10:36 Exp 7332 20 female R 1 1 5 immoralOther moralOther mismatch n n 1 0.7050 
30-May-2018_16:10:38 Exp 7332 20 female R 1 1 6 moralOther moralSelf mismatch n n 1 0.7571 
30-May-2018_16:10:40 Exp 7332 20 female R 1 1 7 moralSelf moralSelf match m m 1 0.7812 
30-May-2018_16:10:42 Exp 7332 20 female R 1 1 8 moralOther moralSelf mismatch n n 1 0.6813 
30-May-2018_16:10:44 Exp 7332 20 female R 1 1 9 moralSelf moralOther mismatch n n 1 0.6975 
30-May-2018_16:10:46 Exp 7332 20 female R 1 1 10 moralSelf moralSelf match m m 1 0.6036 
30-May-2018_16:10:48 Exp 7332 20 female R 1 1 11 moralSelf moralSelf match m m 1 0.5317 
30-May-2018_16:10:51 Exp 7332 20 female R 1 1 12 immoralOther immoralSelf mismatch n n 1 1.0658 
30-May-2018_16:10:53 Exp 7332 20 female R 1 1 13 immoralSelf moralSelf mismatch n n 1 0.8459 
30-May-2018_16:10:56 Exp 7332 20 female R 1 1 14 moralSelf immoralSelf mismatch n NA -1 1.1570 
30-May-2018_16:10:58 Exp 7332 20 female R 1 1 15 immoralOther immoralOther match m n 0 0.6723 
30-May-2018_16:11:00 Exp 7332 20 female R 1 1 16 immoralOther immoralOther match m m 1 0.6264 
30-May-2018_16:11:02 Exp 7332 20 female R 1 1 17 moralOther moralOther match m n 0 0.6706 
30-May-2018_16:11:04 Exp 7332 20 female R 1 1 18 moralSelf moralOther mismatch n n 1 0.5847 
30-May-2018_16:11:07 Exp 7332 20 female R 1 1 19 moralOther moralOther match m m 1 0.6767 
30-May-2018_16:11:09 Exp 7332 20 female R 1 1 20 immoralSelf immoralSelf match m m 1 0.7269 
30-May-2018_16:11:11 Exp 7332 20 female R 1 1 21 immoralOther moralOther mismatch n m 0 0.7510 
30-May-2018_16:11:13 Exp 7332 20 female R 1 1 22 moralOther moralOther match m m 1 0.8651 
30-May-2018_16:11:16 Exp 7332 20 female R 1 1 23 immoralSelf moralSelf mismatch n n 1 0.9412 
30-May-2018_16:11:18 Exp 7332 20 female R 1 1 24 immoralSelf immoralSelf match m m 1 0.7694 
30-May-2018_16:11:20 Exp 7332 20 female R 1 2 1 immoralSelf immoralOther mismatch n n 1 0.7435 
30-May-2018_16:11:23 Exp 7332 20 female R 1 2 2 moralSelf moralOther mismatch n n 1 0.8918 
30-May-2018_16:11:25 Exp 7332 20 female R 1 2 3 moralSelf moralOther mismatch n n 1 0.7619 
30-May-2018_16:11:27 Exp 7332 20 female R 1 2 4 moralOther moralOther match m n 0 0.6499 
30-May-2018_16:11:29 Exp 7332 20 female R 1 2 5 immoralOther immoralOther match m m 1 0.7520 
30-May-2018_16:11:31 Exp 7332 20 female R 1 2 6 moralSelf immoralSelf mismatch n n 1 0.7462 
30-May-2018_16:11:34 Exp 7332 20 female R 1 2 7 moralOther moralOther match m m 1 0.9983 
30-May-2018_16:11:36 Exp 7332 20 female R 1 2 8 immoralSelf moralOther mismatch n n 1 0.8225 
30-May-2018_16:11:38 Exp 7332 20 female R 1 2 9 immoralSelf immoralSelf match m m 1 0.7306 
30-May-2018_16:11:41 Exp 7332 20 female R 1 2 10 immoralOther immoralOther match m m 1 0.8488 
30-May-2018_16:11:43 Exp 7332 20 female R 1 2 11 moralOther immoralOther mismatch n n 1 0.8229 
30-May-2018_16:11:45 Exp 7332 20 female R 1 2 12 moralSelf moralSelf match m m 1 0.5949 
30-May-2018_16:11:47 Exp 7332 20 female R 1 2 13 moralOther immoralSelf mismatch n n 1 0.6451 
30-May-2018_16:11:49 Exp 7332 20 female R 1 2 14 moralSelf moralSelf match m n 0 0.6692 
30-May-2018_16:11:51 Exp 7332 20 female R 1 2 15 immoralOther immoralOther match m m 1 0.6313 
30-May-2018_16:11:54 Exp 7332 20 female R 1 2 16 immoralSelf immoralSelf match m m 1 0.9134 
30-May-2018_16:11:56 Exp 7332 20 female R 1 2 17 moralOther immoralSelf mismatch n n 1 0.6516 
30-May-2018_16:11:58 Exp 7332 20 female R 1 2 18 immoralSelf immoralSelf match m m 1 0.5537 
30-May-2018_16:12:00 Exp 7332 20 female R 1 2 19 immoralOther moralOther mismatch n n 1 0.8199 
30-May-2018_16:12:03 Exp 7332 20 female R 1 2 20 immoralOther immoralSelf mismatch n n 1 0.7200 
30-May-2018_16:12:05 Exp 7332 20 female R 1 2 21 moralOther moralOther match m m 1 0.7681 
30-May-2018_16:12:07 Exp 7332 20 female R 1 2 22 moralSelf moralSelf match m m 1 0.5822 
30-May-2018_16:12:09 Exp 7332 20 female R 1 2 23 immoralSelf moralSelf mismatch n n 1 0.6263 
30-May-2018_16:12:11 Exp 7332 20 female R 1 2 24 immoralOther immoralSelf mismatch n n 1 0.6705 
Date Prac Sub Age Sex Hand Block Bin Trial Shape Label Match CorrResp Resp ACC RT
30-May-2018_16:16:06 Exp 7332 20 female R 1 1 1 moralOther immoralOther mismatch n n 1 0.8420 
30-May-2018_16:16:09 Exp 7332 20 female R 1 1 2 immoralSelf immoralSelf match m m 1 0.6423 
30-May-2018_16:16:11 Exp 7332 20 female R 1 1 3 moralSelf moralOther mismatch n NA -1 1.1570 
30-May-2018_16:16:14 Exp 7332 20 female R 1 1 4 moralSelf moralOther mismatch n n 1 0.9164 
30-May-2018_16:16:16 Exp 7332 20 female R 1 1 5 moralOther immoralSelf mismatch n n 1 0.7586 
30-May-2018_16:16:18 Exp 7332 20 female R 1 1 6 immoralOther immoralSelf mismatch n n 1 0.5508 
30-May-2018_16:16:20 Exp 7332 20 female R 1 1 7 immoralOther immoralOther match m m 1 0.7609 
30-May-2018_16:16:22 Exp 7332 20 female R 1 1 8 moralOther moralOther match m n 0 0.6010 
30-May-2018_16:16:24 Exp 7332 20 female R 1 1 9 immoralSelf immoralSelf match m m 1 0.5531 
30-May-2018_16:16:27 Exp 7332 20 female R 1 1 10 moralOther moralOther match m m 1 0.9072 
30-May-2018_16:16:29 Exp 7332 20 female R 1 1 11 immoralSelf immoralSelf match m m 1 0.9494 
30-May-2018_16:16:31 Exp 7332 20 female R 1 1 12 moralSelf moralSelf match m m 1 0.6635 
30-May-2018_16:16:33 Exp 7332 20 female R 1 1 13 immoralSelf moralSelf mismatch n m 0 0.6436 
30-May-2018_16:16:36 Exp 7332 20 female R 1 1 14 immoralSelf immoralOther mismatch n n 1 0.7317 
30-May-2018_16:16:38 Exp 7332 20 female R 1 1 15 moralSelf moralSelf match m m 1 0.5779 
30-May-2018_16:16:40 Exp 7332 20 female R 1 1 16 immoralOther immoralSelf mismatch n m 0 0.7660 
30-May-2018_16:16:42 Exp 7332 20 female R 1 1 17 moralOther immoralOther mismatch n m 0 0.6781 
30-May-2018_16:16:44 Exp 7332 20 female R 1 1 18 moralSelf moralSelf match m m 1 0.6462 
30-May-2018_16:16:46 Exp 7332 20 female R 1 1 19 moralOther moralOther match m n 0 0.7904 
30-May-2018_16:16:49 Exp 7332 20 female R 1 1 20 moralSelf moralOther mismatch n n 1 0.8725 
30-May-2018_16:16:51 Exp 7332 20 female R 1 1 21 immoralSelf moralSelf mismatch n n 1 0.8266 
30-May-2018_16:16:53 Exp 7332 20 female R 1 1 22 immoralOther moralOther mismatch n n 1 0.9108 
30-May-2018_16:16:56 Exp 7332 20 female R 1 1 23 immoralOther immoralOther match m m 1 0.7530 
30-May-2018_16:16:58 Exp 7332 20 female R 1 1 24 immoralOther immoralOther match m m 1 0.8991 
30-May-2018_16:17:00 Exp 7332 20 female R 1 2 1 moralOther moralOther match m m 1 0.7752 
30-May-2018_16:17:02 Exp 7332 20 female R 1 2 2 moralOther immoralSelf mismatch n n 1 0.6293 
30-May-2018_16:17:05 Exp 7332 20 female R 1 2 3 moralSelf moralOther mismatch n n 1 0.8475 
30-May-2018_16:17:07 Exp 7332 20 female R 1 2 4 immoralOther immoralSelf mismatch n n 1 0.8776 
30-May-2018_16:17:09 Exp 7332 20 female R 1 2 5 moralSelf immoralOther mismatch n n 1 0.6217 
30-May-2018_16:17:12 Exp 7332 20 female R 1 2 6 immoralSelf moralOther mismatch n n 1 0.9138 
30-May-2018_16:17:14 Exp 7332 20 female R 1 2 7 moralOther moralOther match m m 1 0.7719 
30-May-2018_16:17:16 Exp 7332 20 female R 1 2 8 immoralSelf moralOther mismatch n n 1 0.7860 
30-May-2018_16:17:18 Exp 7332 20 female R 1 2 9 immoralOther moralOther mismatch n n 1 0.6622 
30-May-2018_16:17:20 Exp 7332 20 female R 1 2 10 immoralOther immoralOther match m n 0 0.6583 
30-May-2018_16:17:23 Exp 7332 20 female R 1 2 11 immoralSelf immoralSelf match m m 1 0.8625 
30-May-2018_16:17:25 Exp 7332 20 female R 1 2 12 moralSelf moralSelf match m m 1 0.8826 
30-May-2018_16:17:27 Exp 7332 20 female R 1 2 13 moralSelf moralSelf match m m 1 0.9147 
30-May-2018_16:17:30 Exp 7332 20 female R 1 2 14 moralOther moralSelf mismatch n n 1 0.6449 
30-May-2018_16:17:32 Exp 7332 20 female R 1 2 15 immoralOther immoralOther match m m 1 0.7570 
30-May-2018_16:17:34 Exp 7332 20 female R 1 2 16 immoralOther moralOther mismatch n n 1 0.7431 
30-May-2018_16:17:36 Exp 7332 20 female R 1 2 17 moralOther moralOther match m m 1 0.5713 
30-May-2018_16:17:38 Exp 7332 20 female R 1 2 18 moralSelf immoralSelf mismatch n n 1 0.8573 
30-May-2018_16:17:40 Exp 7332 20 female R 1 2 19 immoralSelf immoralSelf match m m 1 0.5495 
30-May-2018_16:17:43 Exp 7332 20 female R 1 2 20 immoralSelf immoralSelf match m m 1 0.6076 
30-May-2018_16:17:45 Exp 7332 20 female R 1 2 21 moralOther moralSelf mismatch n n 1 0.6617 
30-May-2018_16:17:47 Exp 7332 20 female R 1 2 22 immoralOther immoralOther match m n 0 0.6419 
30-May-2018_16:17:49 Exp 7332 20 female R 1 2 23 immoralSelf moralOther mismatch n n 1 0.8820 
30-May-2018_16:17:51 Exp 7332 20 female R 1 2 24 moralSelf moralSelf match m m 1 0.6021 
Date Prac Sub Age Sex Hand Block Bin Trial Shape Label Match CorrResp Resp ACC RT
30-May-2018_16:21:59 Exp 7332 20 female R 1 1 1 moralOther moralOther match m m 1 0.9684 
30-May-2018_16:22:01 Exp 7332 20 female R 1 1 2 immoralOther moralSelf mismatch n n 1 0.8305 
30-May-2018_16:22:03 Exp 7332 20 female R 1 1 3 immoralOther moralSelf mismatch n n 1 0.8247 
30-May-2018_16:22:05 Exp 7332 20 female R 1 1 4 moralOther moralOther match m m 1 0.7088 
30-May-2018_16:22:07 Exp 7332 20 female R 1 1 5 moralSelf moralOther mismatch n m 0 0.6869 
30-May-2018_16:22:10 Exp 7332 20 female R 1 1 6 immoralOther immoralOther match m m 1 0.7910 
30-May-2018_16:22:12 Exp 7332 20 female R 1 1 7 moralSelf moralSelf match m m 1 0.6413 
30-May-2018_16:22:14 Exp 7332 20 female R 1 1 8 moralSelf moralOther mismatch n n 1 0.6493 
30-May-2018_16:22:16 Exp 7332 20 female R 1 1 9 immoralSelf moralOther mismatch n n 1 0.8154 
30-May-2018_16:22:18 Exp 7332 20 female R 1 1 10 immoralSelf moralOther mismatch n n 1 0.7336 
30-May-2018_16:22:21 Exp 7332 20 female R 1 1 11 immoralOther immoralOther match m m 1 0.7477 
30-May-2018_16:22:23 Exp 7332 20 female R 1 1 12 immoralOther moralOther mismatch n n 1 0.6618 
30-May-2018_16:22:25 Exp 7332 20 female R 1 1 13 moralSelf moralSelf match m m 1 0.7300 
30-May-2018_16:22:27 Exp 7332 20 female R 1 1 14 moralSelf moralSelf match m m 1 0.8321 
30-May-2018_16:22:30 Exp 7332 20 female R 1 1 15 moralSelf immoralSelf mismatch n n 1 0.9062 
30-May-2018_16:22:32 Exp 7332 20 female R 1 1 16 moralOther moralSelf mismatch n m 0 0.9984 
30-May-2018_16:22:34 Exp 7332 20 female R 1 1 17 moralOther immoralOther mismatch n n 1 0.7584 
30-May-2018_16:22:37 Exp 7332 20 female R 1 1 18 moralOther moralSelf mismatch n n 1 0.6867 
30-May-2018_16:22:39 Exp 7332 20 female R 1 1 19 immoralSelf moralOther mismatch n n 1 0.8387 
30-May-2018_16:22:41 Exp 7332 20 female R 1 1 20 immoralSelf immoralSelf match m m 1 0.6628 
30-May-2018_16:22:43 Exp 7332 20 female R 1 1 21 immoralSelf immoralSelf match m m 1 0.7630 
30-May-2018_16:22:46 Exp 7332 20 female R 1 1 22 immoralSelf immoralSelf match m m 1 0.7472 
30-May-2018_16:22:48 Exp 7332 20 female R 1 1 23 immoralOther immoralOther match m n 0 0.9893 
30-May-2018_16:22:50 Exp 7332 20 female R 1 1 24 moralOther moralOther match m m 1 0.6794 
30-May-2018_16:22:52 Exp 7332 20 female R 1 2 1 immoralOther immoralOther match m m 1 0.5995 
30-May-2018_16:22:55 Exp 7332 20 female R 1 2 2 immoralOther moralOther mismatch n m 0 0.8636 
30-May-2018_16:22:57 Exp 7332 20 female R 1 2 3 immoralOther moralOther mismatch n n 1 0.7318 
30-May-2018_16:22:59 Exp 7332 20 female R 1 2 4 moralOther immoralOther mismatch n n 1 0.7859 
30-May-2018_16:23:01 Exp 7332 20 female R 1 2 5 moralOther moralOther match m n 0 0.9180 
30-May-2018_16:23:04 Exp 7332 20 female R 1 2 6 moralOther moralOther match m m 1 0.7982 
30-May-2018_16:23:06 Exp 7332 20 female R 1 2 7 immoralSelf immoralSelf match m m 1 0.8543 
30-May-2018_16:23:08 Exp 7332 20 female R 1 2 8 immoralOther immoralOther match m n 0 0.9005 
30-May-2018_16:23:11 Exp 7332 20 female R 1 2 9 immoralSelf moralOther mismatch n n 1 0.8726 
30-May-2018_16:23:13 Exp 7332 20 female R 1 2 10 moralSelf moralSelf match m m 1 0.6347 
30-May-2018_16:23:15 Exp 7332 20 female R 1 2 11 immoralOther immoralOther match m m 1 0.6768 
30-May-2018_16:23:17 Exp 7332 20 female R 1 2 12 moralOther immoralSelf mismatch n m 0 0.8710 
30-May-2018_16:23:20 Exp 7332 20 female R 1 2 13 immoralSelf immoralSelf match m m 1 0.6971 
30-May-2018_16:23:22 Exp 7332 20 female R 1 2 14 immoralOther immoralSelf mismatch n n 1 0.7332 
30-May-2018_16:23:24 Exp 7332 20 female R 1 2 15 moralOther moralOther match m m 1 0.7393 
30-May-2018_16:23:26 Exp 7332 20 female R 1 2 16 immoralSelf moralOther mismatch n n 1 0.7515 
30-May-2018_16:23:29 Exp 7332 20 female R 1 2 17 moralSelf immoralSelf mismatch n n 1 0.7936 
30-May-2018_16:23:31 Exp 7332 20 female R 1 2 18 immoralSelf moralOther mismatch n n 1 0.8835 
30-May-2018_16:23:33 Exp 7332 20 female R 1 2 19 immoralSelf immoralSelf match m m 1 0.6279 
30-May-2018_16:23:35 Exp 7332 20 female R 1 2 20 moralOther moralSelf mismatch n n 1 0.6302 
30-May-2018_16:23:37 Exp 7332 20 female R 1 2 21 moralSelf immoralOther mismatch n n 1 0.6401 
30-May-2018_16:23:39 Exp 7332 20 female R 1 2 22 moralSelf moralSelf match m m 1 0.6243 
30-May-2018_16:23:42 Exp 7332 20 female R 1 2 23 moralSelf moralSelf match m m 1 0.7484 
30-May-2018_16:23:44 Exp 7332 20 female R 1 2 24 moralSelf immoralSelf mismatch n n 1 0.5825 
Date Prac Sub Age Sex Hand Block Bin Trial Shape Label Match CorrResp Resp ACC RT
30-May-2018_16:27:59 Exp 7332 20 female R 1 1 1 moralSelf moralSelf match m m 1 0.6312 
30-May-2018_16:28:01 Exp 7332 20 female R 1 1 2 immoralSelf moralSelf mismatch n n 1 0.7054 
30-May-2018_16:28:03 Exp 7332 20 female R 1 1 3 immoralSelf moralOther mismatch n m 0 0.8775 
30-May-2018_16:28:05 Exp 7332 20 female R 1 1 4 moralSelf immoralSelf mismatch n n 1 0.6377 
30-May-2018_16:28:08 Exp 7332 20 female R 1 1 5 immoralOther immoralOther match m m 1 0.7417 
30-May-2018_16:28:10 Exp 7332 20 female R 1 1 6 immoralSelf immoralSelf match m m 1 0.6339 
30-May-2018_16:28:12 Exp 7332 20 female R 1 1 7 moralOther moralOther match m m 1 0.6200 
30-May-2018_16:28:14 Exp 7332 20 female R 1 1 8 immoralSelf moralOther mismatch n n 1 1.0642 
30-May-2018_16:28:17 Exp 7332 20 female R 1 1 9 moralOther moralOther match m m 1 0.6523 
30-May-2018_16:28:19 Exp 7332 20 female R 1 1 10 immoralOther immoralSelf mismatch n n 1 0.7944 
30-May-2018_16:28:21 Exp 7332 20 female R 1 1 11 moralOther immoralSelf mismatch n n 1 0.7645 
30-May-2018_16:28:23 Exp 7332 20 female R 1 1 12 moralSelf immoralOther mismatch n n 1 0.7647 
30-May-2018_16:28:26 Exp 7332 20 female R 1 1 13 immoralSelf immoralSelf match m m 1 0.8367 
30-May-2018_16:28:28 Exp 7332 20 female R 1 1 14 immoralSelf immoralSelf match m m 1 0.7990 
30-May-2018_16:28:30 Exp 7332 20 female R 1 1 15 moralOther moralSelf mismatch n n 1 0.8950 
30-May-2018_16:28:32 Exp 7332 20 female R 1 1 16 moralSelf immoralOther mismatch n n 1 0.6132 
30-May-2018_16:28:35 Exp 7332 20 female R 1 1 17 moralSelf moralSelf match m m 1 0.8512 
30-May-2018_16:28:37 Exp 7332 20 female R 1 1 18 moralSelf moralSelf match m m 1 0.5534 
30-May-2018_16:28:39 Exp 7332 20 female R 1 1 19 immoralOther moralSelf mismatch n n 1 0.6676 
30-May-2018_16:28:41 Exp 7332 20 female R 1 1 20 moralOther moralOther match m n 0 0.6937 
30-May-2018_16:28:43 Exp 7332 20 female R 1 1 21 immoralOther immoralOther match m m 1 0.9638 
30-May-2018_16:28:46 Exp 7332 20 female R 1 1 22 immoralOther moralOther mismatch n n 1 0.8599 
30-May-2018_16:28:48 Exp 7332 20 female R 1 1 23 moralOther immoralSelf mismatch n n 1 0.8161 
30-May-2018_16:28:50 Exp 7332 20 female R 1 1 24 immoralOther immoralOther match m m 1 0.6302 
30-May-2018_16:28:52 Exp 7332 20 female R 1 2 1 moralSelf immoralSelf mismatch n n 1 0.6643 
30-May-2018_16:28:55 Exp 7332 20 female R 1 2 2 immoralOther immoralSelf mismatch n n 1 0.6925 
30-May-2018_16:28:57 Exp 7332 20 female R 1 2 3 moralSelf immoralOther mismatch n n 1 0.6426 
30-May-2018_16:28:59 Exp 7332 20 female R 1 2 4 moralOther moralSelf mismatch n n 1 0.8187 
30-May-2018_16:29:01 Exp 7332 20 female R 1 2 5 moralOther moralSelf mismatch n n 1 0.6628 
30-May-2018_16:29:03 Exp 7332 20 female R 1 2 6 immoralOther moralOther mismatch n n 1 0.8189 
30-May-2018_16:29:06 Exp 7332 20 female R 1 2 7 immoralOther immoralOther match m m 1 0.6631 
30-May-2018_16:29:08 Exp 7332 20 female R 1 2 8 immoralSelf immoralSelf match m m 1 0.7072 
30-May-2018_16:29:10 Exp 7332 20 female R 1 2 9 immoralSelf immoralOther mismatch n n 1 0.7653 
30-May-2018_16:29:12 Exp 7332 20 female R 1 2 10 moralSelf moralSelf match m m 1 0.6215 
30-May-2018_16:29:14 Exp 7332 20 female R 1 2 11 immoralOther immoralOther match m m 1 0.9056 
30-May-2018_16:29:17 Exp 7332 20 female R 1 2 12 immoralOther immoralSelf mismatch n n 1 0.7337 
30-May-2018_16:29:19 Exp 7332 20 female R 1 2 13 moralSelf moralSelf match m m 1 0.5958 
30-May-2018_16:29:21 Exp 7332 20 female R 1 2 14 moralSelf moralSelf match m m 1 0.5500 
30-May-2018_16:29:23 Exp 7332 20 female R 1 2 15 immoralSelf immoralOther mismatch n m 0 0.8001 
30-May-2018_16:29:25 Exp 7332 20 female R 1 2 16 immoralOther immoralOther match m m 1 0.6642 
30-May-2018_16:29:27 Exp 7332 20 female R 1 2 17 moralOther moralOther match m m 1 0.7644 
30-May-2018_16:29:30 Exp 7332 20 female R 1 2 18 moralOther immoralOther mismatch n n 1 0.6605 
30-May-2018_16:29:32 Exp 7332 20 female R 1 2 19 moralOther moralOther match m m 1 0.7206 
30-May-2018_16:29:34 Exp 7332 20 female R 1 2 20 moralSelf immoralSelf mismatch n n 1 0.8168 
30-May-2018_16:29:36 Exp 7332 20 female R 1 2 21 moralOther moralOther match m m 1 0.9349 
30-May-2018_16:29:39 Exp 7332 20 female R 1 2 22 immoralSelf immoralSelf match m m 1 0.8210 
30-May-2018_16:29:41 Exp 7332 20 female R 1 2 23 immoralSelf moralOther mismatch n n 1 0.8091 
30-May-2018_16:29:43 Exp 7332 20 female R 1 2 24 immoralSelf immoralSelf match m n 0 0.9033 
