Date Sub Age Sex Hand Block Bin Trial Task Shape corrResp Resp ACC RT
02-May-2018_14:36:40 7302 22 female R 1 1 1 self immoralOther J NA -1 1.0420 
02-May-2018_14:36:42 7302 22 female R 1 1 2 self moralSelf H h 1 0.7564 
02-May-2018_14:36:44 7302 22 female R 1 1 3 self immoralSelf H h 1 0.4825 
02-May-2018_14:36:46 7302 22 female R 1 1 4 self moralSelf H h 1 0.5446 
02-May-2018_14:36:47 7302 22 female R 1 1 5 self moralOther J j 1 0.5028 
02-May-2018_14:36:49 7302 22 female R 1 1 6 self moralSelf H h 1 0.5228 
02-May-2018_14:36:51 7302 22 female R 1 1 7 self immoralSelf H h 1 0.4969 
02-May-2018_14:36:53 7302 22 female R 1 1 8 self moralOther J j 1 0.5110 
02-May-2018_14:36:54 7302 22 female R 1 1 9 self immoralSelf H h 1 0.5591 
02-May-2018_14:36:56 7302 22 female R 1 1 10 self immoralOther J j 1 0.7311 
02-May-2018_14:36:58 7302 22 female R 1 1 11 self immoralSelf H h 1 0.3893 
02-May-2018_14:37:00 7302 22 female R 1 1 12 self moralSelf H h 1 0.5154 
02-May-2018_14:37:01 7302 22 female R 1 1 13 self immoralOther J j 1 0.4794 
02-May-2018_14:37:03 7302 22 female R 1 1 14 self immoralSelf H h 1 0.5855 
02-May-2018_14:37:05 7302 22 female R 1 1 15 self moralOther J j 1 0.5497 
02-May-2018_14:37:06 7302 22 female R 1 1 16 self moralOther J j 1 0.5497 
02-May-2018_14:37:08 7302 22 female R 1 1 17 self immoralOther J j 1 0.6759 
02-May-2018_14:37:10 7302 22 female R 1 1 18 self immoralOther J j 1 0.4919 
02-May-2018_14:37:12 7302 22 female R 1 1 19 self moralOther J j 1 0.6541 
02-May-2018_14:37:13 7302 22 female R 1 1 20 self immoralSelf H h 1 0.4502 
02-May-2018_14:37:15 7302 22 female R 1 1 21 self immoralOther J j 1 0.6642 
02-May-2018_14:37:17 7302 22 female R 1 1 22 self moralSelf H h 1 0.5624 
02-May-2018_14:37:18 7302 22 female R 1 1 23 self moralOther J j 1 0.5085 
02-May-2018_14:37:20 7302 22 female R 1 1 24 self moralSelf H h 1 0.5865 
02-May-2018_14:37:22 7302 22 female R 1 2 1 self immoralSelf H h 1 0.5226 
02-May-2018_14:37:24 7302 22 female R 1 2 2 self moralOther J j 1 0.4527 
02-May-2018_14:37:25 7302 22 female R 1 2 3 self immoralOther J j 1 0.5529 
02-May-2018_14:37:27 7302 22 female R 1 2 4 self immoralSelf H h 1 0.5409 
02-May-2018_14:37:29 7302 22 female R 1 2 5 self immoralSelf H h 1 0.4971 
02-May-2018_14:37:31 7302 22 female R 1 2 6 self moralSelf H h 1 0.4752 
02-May-2018_14:37:32 7302 22 female R 1 2 7 self immoralOther J j 1 0.4592 
02-May-2018_14:37:34 7302 22 female R 1 2 8 self moralSelf H h 1 0.5934 
02-May-2018_14:37:36 7302 22 female R 1 2 9 self immoralSelf H h 1 0.4073 
02-May-2018_14:37:37 7302 22 female R 1 2 10 self moralOther J j 1 0.4296 
02-May-2018_14:37:39 7302 22 female R 1 2 11 self moralOther J j 1 0.4777 
02-May-2018_14:37:41 7302 22 female R 1 2 12 self immoralOther J j 1 0.5138 
02-May-2018_14:37:42 7302 22 female R 1 2 13 self immoralSelf H h 1 0.5039 
02-May-2018_14:37:44 7302 22 female R 1 2 14 self immoralOther J j 1 0.5119 
02-May-2018_14:37:46 7302 22 female R 1 2 15 self moralOther J j 1 0.5440 
02-May-2018_14:37:47 7302 22 female R 1 2 16 self moralOther J j 1 0.5721 
02-May-2018_14:37:49 7302 22 female R 1 2 17 self moralSelf H h 1 0.4822 
02-May-2018_14:37:51 7302 22 female R 1 2 18 self moralSelf H h 1 0.5362 
02-May-2018_14:37:52 7302 22 female R 1 2 19 self immoralOther J j 1 0.5924 
02-May-2018_14:37:54 7302 22 female R 1 2 20 self moralSelf H j 0 0.4425 
02-May-2018_14:37:56 7302 22 female R 1 2 21 self immoralSelf H h 1 0.5465 
02-May-2018_14:37:57 7302 22 female R 1 2 22 self moralSelf H h 1 0.3867 
02-May-2018_14:37:59 7302 22 female R 1 2 23 self moralOther J j 1 0.5848 
02-May-2018_14:38:01 7302 22 female R 1 2 24 self immoralOther J j 1 0.5288 
02-May-2018_14:38:10 7302 22 female R 1 3 1 self moralOther J j 1 0.5494 
02-May-2018_14:38:12 7302 22 female R 1 3 2 self immoralSelf H h 1 0.4995 
02-May-2018_14:38:13 7302 22 female R 1 3 3 self immoralOther J j 1 0.4736 
02-May-2018_14:38:15 7302 22 female R 1 3 4 self immoralSelf H h 1 0.5517 
02-May-2018_14:38:16 7302 22 female R 1 3 5 self immoralSelf H h 1 0.5218 
02-May-2018_14:38:18 7302 22 female R 1 3 6 self moralOther J j 1 0.4798 
02-May-2018_14:38:20 7302 22 female R 1 3 7 self moralOther J j 1 0.4600 
02-May-2018_14:38:22 7302 22 female R 1 3 8 self immoralSelf H h 1 0.4480 
02-May-2018_14:38:24 7302 22 female R 1 3 9 self moralOther J j 1 0.5002 
02-May-2018_14:38:25 7302 22 female R 1 3 10 self immoralOther J j 1 0.5102 
02-May-2018_14:38:27 7302 22 female R 1 3 11 self moralSelf H h 1 0.5463 
02-May-2018_14:38:29 7302 22 female R 1 3 12 self moralSelf H h 1 0.4104 
02-May-2018_14:38:31 7302 22 female R 1 3 13 self moralSelf H h 1 0.3506 
02-May-2018_14:38:32 7302 22 female R 1 3 14 self immoralSelf H h 1 0.2767 
02-May-2018_14:38:34 7302 22 female R 1 3 15 self immoralOther J j 1 0.4707 
02-May-2018_14:38:35 7302 22 female R 1 3 16 self moralOther J j 1 0.4888 
02-May-2018_14:38:37 7302 22 female R 1 3 17 self immoralOther J j 1 0.5189 
02-May-2018_14:38:39 7302 22 female R 1 3 18 self moralSelf H h 1 0.4771 
02-May-2018_14:38:41 7302 22 female R 1 3 19 self moralOther J j 1 0.4451 
02-May-2018_14:38:43 7302 22 female R 1 3 20 self immoralOther J j 1 0.4752 
02-May-2018_14:38:44 7302 22 female R 1 3 21 self moralSelf H h 1 0.4173 
02-May-2018_14:38:46 7302 22 female R 1 3 22 self immoralSelf H h 1 0.4274 
02-May-2018_14:38:47 7302 22 female R 1 3 23 self moralSelf H h 1 0.4475 
02-May-2018_14:38:49 7302 22 female R 1 3 24 self immoralOther J j 1 0.5176 
02-May-2018_14:38:51 7302 22 female R 1 4 1 self moralSelf H j 0 0.3298 
02-May-2018_14:38:53 7302 22 female R 1 4 2 self immoralSelf H h 1 0.3738 
02-May-2018_14:38:54 7302 22 female R 1 4 3 self immoralOther J j 1 0.4418 
02-May-2018_14:38:56 7302 22 female R 1 4 4 self moralOther J j 1 0.5660 
02-May-2018_14:38:57 7302 22 female R 1 4 5 self immoralSelf H h 1 0.4480 
02-May-2018_14:38:59 7302 22 female R 1 4 6 self moralSelf H h 1 0.4482 
02-May-2018_14:39:00 7302 22 female R 1 4 7 self moralOther J j 1 0.5123 
02-May-2018_14:39:02 7302 22 female R 1 4 8 self immoralSelf H h 1 0.4923 
02-May-2018_14:39:04 7302 22 female R 1 4 9 self moralSelf H h 1 0.5344 
02-May-2018_14:39:05 7302 22 female R 1 4 10 self immoralOther J j 1 0.5065 
02-May-2018_14:39:07 7302 22 female R 1 4 11 self moralOther J j 1 0.6206 
02-May-2018_14:39:09 7302 22 female R 1 4 12 self immoralSelf H h 1 0.5006 
02-May-2018_14:39:10 7302 22 female R 1 4 13 self immoralOther J j 1 0.4807 
02-May-2018_14:39:12 7302 22 female R 1 4 14 self moralOther J j 1 0.5530 
02-May-2018_14:39:14 7302 22 female R 1 4 15 self immoralOther J j 1 0.6250 
02-May-2018_14:39:16 7302 22 female R 1 4 16 self moralOther J j 1 0.4511 
02-May-2018_14:39:17 7302 22 female R 1 4 17 self moralOther J j 1 0.4152 
02-May-2018_14:39:19 7302 22 female R 1 4 18 self immoralOther J j 1 0.5752 
02-May-2018_14:39:21 7302 22 female R 1 4 19 self moralSelf H h 1 0.6014 
02-May-2018_14:39:23 7302 22 female R 1 4 20 self moralSelf H h 1 0.3695 
02-May-2018_14:39:24 7302 22 female R 1 4 21 self immoralOther J j 1 0.4697 
02-May-2018_14:39:26 7302 22 female R 1 4 22 self immoralSelf H h 1 0.4776 
02-May-2018_14:39:28 7302 22 female R 1 4 23 self immoralSelf H h 1 0.5378 
02-May-2018_14:39:29 7302 22 female R 1 4 24 self moralSelf H h 1 0.5338 
02-May-2018_14:39:38 7302 22 female R 1 5 1 self immoralOther J j 1 0.7863 
02-May-2018_14:39:40 7302 22 female R 1 5 2 self moralOther J j 1 0.4725 
02-May-2018_14:39:42 7302 22 female R 1 5 3 self moralSelf H h 1 0.5505 
02-May-2018_14:39:44 7302 22 female R 1 5 4 self immoralOther J j 1 0.4787 
02-May-2018_14:39:45 7302 22 female R 1 5 5 self moralSelf H h 1 0.4889 
02-May-2018_14:39:47 7302 22 female R 1 5 6 self immoralOther J j 1 0.4748 
02-May-2018_14:39:49 7302 22 female R 1 5 7 self moralSelf H h 1 0.4090 
02-May-2018_14:39:51 7302 22 female R 1 5 8 self immoralSelf H h 1 0.5392 
02-May-2018_14:39:52 7302 22 female R 1 5 9 self moralOther J j 1 0.4352 
02-May-2018_14:39:54 7302 22 female R 1 5 10 self moralSelf H h 1 0.3932 
02-May-2018_14:39:56 7302 22 female R 1 5 11 self moralOther J j 1 0.4934 
02-May-2018_14:39:57 7302 22 female R 1 5 12 self immoralSelf H h 1 0.4075 
02-May-2018_14:39:59 7302 22 female R 1 5 13 self immoralOther J j 1 0.4715 
02-May-2018_14:40:00 7302 22 female R 1 5 14 self moralSelf H h 1 0.4517 
02-May-2018_14:40:02 7302 22 female R 1 5 15 self moralOther J j 1 0.4656 
02-May-2018_14:40:04 7302 22 female R 1 5 16 self immoralSelf H h 1 0.4178 
02-May-2018_14:40:05 7302 22 female R 1 5 17 self immoralOther J j 1 0.4519 
02-May-2018_14:40:07 7302 22 female R 1 5 18 self immoralSelf H h 1 0.4261 
02-May-2018_14:40:09 7302 22 female R 1 5 19 self moralOther J j 1 0.4941 
02-May-2018_14:40:10 7302 22 female R 1 5 20 self immoralSelf H h 1 0.4662 
02-May-2018_14:40:12 7302 22 female R 1 5 21 self immoralSelf H h 1 0.4422 
02-May-2018_14:40:14 7302 22 female R 1 5 22 self moralSelf H h 1 0.5004 
02-May-2018_14:40:15 7302 22 female R 1 5 23 self immoralOther J j 1 0.3666 
02-May-2018_14:40:17 7302 22 female R 1 5 24 self moralOther J j 1 0.5646 
Date Sub Age Sex Hand Block Bin Trial Task Shape corrResp Resp ACC RT
02-May-2018_14:42:41 7302 22 female R 2 1 1 moral immoralOther Y NA -1 1.0420 
02-May-2018_14:42:44 7302 22 female R 2 1 2 moral immoralOther Y y 1 0.9028 
02-May-2018_14:42:46 7302 22 female R 2 1 3 moral moralSelf U NA -1 1.0420 
02-May-2018_14:42:47 7302 22 female R 2 1 4 moral immoralSelf Y y 1 0.6451 
02-May-2018_14:42:49 7302 22 female R 2 1 5 moral moralOther U u 1 0.7132 
02-May-2018_14:42:51 7302 22 female R 2 1 6 moral moralSelf U u 1 0.7113 
02-May-2018_14:42:53 7302 22 female R 2 1 7 moral immoralSelf Y y 1 0.5834 
02-May-2018_14:42:55 7302 22 female R 2 1 8 moral moralOther U u 1 0.9535 
02-May-2018_14:42:56 7302 22 female R 2 1 9 moral moralSelf U u 1 0.5477 
02-May-2018_14:42:58 7302 22 female R 2 1 10 moral immoralOther Y y 1 0.5997 
02-May-2018_14:43:00 7302 22 female R 2 1 11 moral moralOther U u 1 0.5599 
02-May-2018_14:43:01 7302 22 female R 2 1 12 moral immoralOther Y y 1 0.6099 
02-May-2018_14:43:03 7302 22 female R 2 1 13 moral moralOther U u 1 0.5820 
02-May-2018_14:43:05 7302 22 female R 2 1 14 moral immoralOther Y y 1 0.6081 
02-May-2018_14:43:07 7302 22 female R 2 1 15 moral moralSelf U u 1 0.7001 
02-May-2018_14:43:09 7302 22 female R 2 1 16 moral immoralOther Y y 1 0.5102 
02-May-2018_14:43:10 7302 22 female R 2 1 17 moral moralOther U u 1 0.4804 
02-May-2018_14:43:12 7302 22 female R 2 1 18 moral immoralSelf Y y 1 0.4126 
02-May-2018_14:43:14 7302 22 female R 2 1 19 moral moralOther U u 1 0.6327 
02-May-2018_14:43:16 7302 22 female R 2 1 20 moral immoralSelf Y y 1 0.6707 
02-May-2018_14:43:17 7302 22 female R 2 1 21 moral immoralSelf Y y 1 0.4908 
02-May-2018_14:43:19 7302 22 female R 2 1 22 moral moralSelf U u 1 0.6928 
02-May-2018_14:43:20 7302 22 female R 2 1 23 moral moralSelf U u 1 0.3930 
02-May-2018_14:43:22 7302 22 female R 2 1 24 moral immoralSelf Y y 1 0.7211 
02-May-2018_14:43:24 7302 22 female R 2 2 1 moral moralSelf U u 1 0.7611 
02-May-2018_14:43:26 7302 22 female R 2 2 2 moral moralOther U u 1 0.6772 
02-May-2018_14:43:28 7302 22 female R 2 2 3 moral moralOther U u 1 0.9413 
02-May-2018_14:43:30 7302 22 female R 2 2 4 moral immoralOther Y y 1 0.5655 
02-May-2018_14:43:32 7302 22 female R 2 2 5 moral immoralOther Y y 1 0.6256 
02-May-2018_14:43:34 7302 22 female R 2 2 6 moral immoralSelf Y y 1 0.4318 
02-May-2018_14:43:35 7302 22 female R 2 2 7 moral moralOther U u 1 0.4878 
02-May-2018_14:43:37 7302 22 female R 2 2 8 moral immoralOther Y y 1 0.5100 
02-May-2018_14:43:39 7302 22 female R 2 2 9 moral moralSelf U u 1 0.5940 
02-May-2018_14:43:40 7302 22 female R 2 2 10 moral immoralSelf Y y 1 0.4722 
02-May-2018_14:43:42 7302 22 female R 2 2 11 moral moralOther U u 1 0.4682 
02-May-2018_14:43:44 7302 22 female R 2 2 12 moral moralSelf U u 1 0.8362 
02-May-2018_14:43:46 7302 22 female R 2 2 13 moral moralSelf U u 1 0.4284 
02-May-2018_14:43:48 7302 22 female R 2 2 14 moral immoralSelf Y y 1 0.5245 
02-May-2018_14:43:49 7302 22 female R 2 2 15 moral immoralOther Y y 1 0.5426 
02-May-2018_14:43:51 7302 22 female R 2 2 16 moral moralSelf U y 0 0.4307 
02-May-2018_14:43:52 7302 22 female R 2 2 17 moral moralOther U u 1 0.5309 
02-May-2018_14:43:54 7302 22 female R 2 2 18 moral immoralSelf Y y 1 0.6728 
02-May-2018_14:43:56 7302 22 female R 2 2 19 moral immoralOther Y y 1 0.5190 
02-May-2018_14:43:58 7302 22 female R 2 2 20 moral immoralSelf Y y 1 0.6325 
02-May-2018_14:44:00 7302 22 female R 2 2 21 moral moralSelf U u 1 0.6371 
02-May-2018_14:44:01 7302 22 female R 2 2 22 moral immoralSelf Y y 1 0.6353 
02-May-2018_14:44:03 7302 22 female R 2 2 23 moral moralOther U u 1 0.4814 
02-May-2018_14:44:05 7302 22 female R 2 2 24 moral immoralOther Y y 1 0.5096 
02-May-2018_14:44:13 7302 22 female R 2 3 1 moral moralOther U u 1 0.4920 
02-May-2018_14:44:15 7302 22 female R 2 3 2 moral immoralSelf Y y 1 0.4921 
02-May-2018_14:44:16 7302 22 female R 2 3 3 moral immoralOther Y y 1 0.5422 
02-May-2018_14:44:18 7302 22 female R 2 3 4 moral moralSelf U u 1 0.5843 
02-May-2018_14:44:20 7302 22 female R 2 3 5 moral moralOther U u 1 0.5464 
02-May-2018_14:44:22 7302 22 female R 2 3 6 moral moralSelf U u 1 0.5506 
02-May-2018_14:44:23 7302 22 female R 2 3 7 moral immoralOther Y y 1 0.5145 
02-May-2018_14:44:25 7302 22 female R 2 3 8 moral immoralOther Y y 1 0.4586 
02-May-2018_14:44:26 7302 22 female R 2 3 9 moral moralOther U u 1 0.5327 
02-May-2018_14:44:28 7302 22 female R 2 3 10 moral immoralSelf Y y 1 0.5028 
02-May-2018_14:44:30 7302 22 female R 2 3 11 moral moralSelf U u 1 0.6988 
02-May-2018_14:44:32 7302 22 female R 2 3 12 moral moralSelf U u 1 0.7950 
02-May-2018_14:44:34 7302 22 female R 2 3 13 moral immoralOther Y y 1 0.5410 
02-May-2018_14:44:36 7302 22 female R 2 3 14 moral moralOther U u 1 0.4872 
02-May-2018_14:44:38 7302 22 female R 2 3 15 moral moralSelf U u 1 0.8774 
02-May-2018_14:44:40 7302 22 female R 2 3 16 moral immoralOther Y y 1 0.4735 
02-May-2018_14:44:41 7302 22 female R 2 3 17 moral immoralSelf Y y 1 0.2896 
02-May-2018_14:44:43 7302 22 female R 2 3 18 moral immoralSelf Y y 1 0.3256 
02-May-2018_14:44:44 7302 22 female R 2 3 19 moral moralOther U u 1 0.4817 
02-May-2018_14:44:46 7302 22 female R 2 3 20 moral immoralSelf Y y 1 0.4878 
02-May-2018_14:44:48 7302 22 female R 2 3 21 moral moralSelf U u 1 0.5719 
02-May-2018_14:44:49 7302 22 female R 2 3 22 moral immoralOther Y y 1 0.4460 
02-May-2018_14:44:51 7302 22 female R 2 3 23 moral immoralSelf Y y 1 0.4301 
02-May-2018_14:44:52 7302 22 female R 2 3 24 moral moralOther U u 1 0.4382 
02-May-2018_14:44:54 7302 22 female R 2 4 1 moral immoralOther Y y 1 0.4203 
02-May-2018_14:44:56 7302 22 female R 2 4 2 moral immoralSelf Y y 1 0.4366 
02-May-2018_14:44:58 7302 22 female R 2 4 3 moral moralSelf U u 1 0.7525 
02-May-2018_14:44:59 7302 22 female R 2 4 4 moral moralSelf U u 1 0.4706 
02-May-2018_14:45:01 7302 22 female R 2 4 5 moral moralSelf U u 1 0.3646 
02-May-2018_14:45:02 7302 22 female R 2 4 6 moral immoralSelf Y y 1 0.4867 
02-May-2018_14:45:04 7302 22 female R 2 4 7 moral immoralOther Y y 1 0.5749 
02-May-2018_14:45:06 7302 22 female R 2 4 8 moral immoralOther Y y 1 0.4013 
02-May-2018_14:45:07 7302 22 female R 2 4 9 moral moralOther U u 1 0.4593 
02-May-2018_14:45:09 7302 22 female R 2 4 10 moral immoralSelf Y y 1 0.4811 
02-May-2018_14:45:10 7302 22 female R 2 4 11 moral moralOther U u 1 0.5752 
02-May-2018_14:45:12 7302 22 female R 2 4 12 moral immoralOther Y y 1 0.4953 
02-May-2018_14:45:14 7302 22 female R 2 4 13 moral moralOther U u 1 0.4814 
02-May-2018_14:45:15 7302 22 female R 2 4 14 moral immoralOther Y y 1 0.4636 
02-May-2018_14:45:17 7302 22 female R 2 4 15 moral moralOther U u 1 0.4496 
02-May-2018_14:45:18 7302 22 female R 2 4 16 moral immoralOther Y y 1 0.5037 
02-May-2018_14:45:20 7302 22 female R 2 4 17 moral immoralSelf Y y 1 0.4177 
02-May-2018_14:45:22 7302 22 female R 2 4 18 moral immoralSelf Y y 1 0.3460 
02-May-2018_14:45:23 7302 22 female R 2 4 19 moral moralSelf U u 1 0.4619 
02-May-2018_14:45:25 7302 22 female R 2 4 20 moral immoralSelf Y y 1 0.5741 
02-May-2018_14:45:26 7302 22 female R 2 4 21 moral moralOther U u 1 0.4221 
02-May-2018_14:45:28 7302 22 female R 2 4 22 moral moralSelf U y 0 0.4162 
02-May-2018_14:45:30 7302 22 female R 2 4 23 moral moralOther U u 1 0.5123 
02-May-2018_14:45:31 7302 22 female R 2 4 24 moral moralSelf U u 1 0.4423 
02-May-2018_14:45:37 7302 22 female R 2 5 1 moral immoralOther Y y 1 0.6407 
02-May-2018_14:45:39 7302 22 female R 2 5 2 moral immoralOther Y y 1 0.3928 
02-May-2018_14:45:41 7302 22 female R 2 5 3 moral moralOther U u 1 0.5029 
02-May-2018_14:45:42 7302 22 female R 2 5 4 moral moralSelf U u 1 0.4950 
02-May-2018_14:45:44 7302 22 female R 2 5 5 moral immoralSelf Y y 1 0.4630 
02-May-2018_14:45:46 7302 22 female R 2 5 6 moral immoralSelf Y y 1 0.3433 
02-May-2018_14:45:47 7302 22 female R 2 5 7 moral immoralSelf Y y 1 0.3433 
02-May-2018_14:45:49 7302 22 female R 2 5 8 moral moralSelf U y 0 0.4774 
02-May-2018_14:45:51 7302 22 female R 2 5 9 moral moralSelf U u 1 0.5095 
02-May-2018_14:45:52 7302 22 female R 2 5 10 moral moralSelf U u 1 0.3456 
02-May-2018_14:45:53 7302 22 female R 2 5 11 moral moralSelf U u 1 0.3156 
02-May-2018_14:45:55 7302 22 female R 2 5 12 moral immoralOther Y y 1 0.5297 
02-May-2018_14:45:57 7302 22 female R 2 5 13 moral moralSelf U u 1 0.5879 
02-May-2018_14:45:59 7302 22 female R 2 5 14 moral immoralOther Y y 1 0.7760 
02-May-2018_14:46:01 7302 22 female R 2 5 15 moral immoralSelf Y y 1 0.5681 
02-May-2018_14:46:03 7302 22 female R 2 5 16 moral immoralSelf Y y 1 0.5582 
02-May-2018_14:46:05 7302 22 female R 2 5 17 moral moralOther U u 1 0.5963 
02-May-2018_14:46:07 7302 22 female R 2 5 18 moral moralOther U u 1 0.5204 
02-May-2018_14:46:08 7302 22 female R 2 5 19 moral moralOther U u 1 0.4145 
02-May-2018_14:46:10 7302 22 female R 2 5 20 moral immoralSelf Y y 1 0.4690 
02-May-2018_14:46:12 7302 22 female R 2 5 21 moral immoralOther Y y 1 0.5488 
02-May-2018_14:46:13 7302 22 female R 2 5 22 moral moralOther U u 1 0.5268 
02-May-2018_14:46:15 7302 22 female R 2 5 23 moral immoralOther Y y 1 0.4749 
02-May-2018_14:46:17 7302 22 female R 2 5 24 moral moralOther U u 1 0.4210 
Date Sub Age Sex Hand Block Bin Trial Task Shape corrResp Resp ACC RT
02-May-2018_14:48:28 7302 22 female R 3 1 1 self immoralOther J j 1 0.5544 
02-May-2018_14:48:30 7302 22 female R 3 1 2 self immoralSelf H h 1 0.5446 
02-May-2018_14:48:32 7302 22 female R 3 1 3 self moralSelf H h 1 0.5047 
02-May-2018_14:48:34 7302 22 female R 3 1 4 self moralSelf H h 1 0.4168 
02-May-2018_14:48:35 7302 22 female R 3 1 5 self immoralOther J j 1 0.5828 
02-May-2018_14:48:37 7302 22 female R 3 1 6 self moralOther J j 1 0.7169 
02-May-2018_14:48:39 7302 22 female R 3 1 7 self moralSelf H h 1 0.3890 
02-May-2018_14:48:40 7302 22 female R 3 1 8 self immoralSelf H h 1 0.3731 
02-May-2018_14:48:42 7302 22 female R 3 1 9 self immoralSelf H h 1 0.5173 
02-May-2018_14:48:43 7302 22 female R 3 1 10 self immoralSelf H h 1 0.4173 
02-May-2018_14:48:45 7302 22 female R 3 1 11 self moralOther J j 1 0.4594 
02-May-2018_14:48:47 7302 22 female R 3 1 12 self moralSelf H h 1 0.6075 
02-May-2018_14:48:48 7302 22 female R 3 1 13 self moralSelf H h 1 0.4556 
02-May-2018_14:48:50 7302 22 female R 3 1 14 self moralSelf H h 1 0.3377 
02-May-2018_14:48:51 7302 22 female R 3 1 15 self immoralOther J j 1 0.5637 
02-May-2018_14:48:53 7302 22 female R 3 1 16 self immoralOther J j 1 0.3939 
02-May-2018_14:48:54 7302 22 female R 3 1 17 self immoralOther J j 1 0.3219 
02-May-2018_14:48:56 7302 22 female R 3 1 18 self immoralSelf H h 1 0.5221 
02-May-2018_14:48:58 7302 22 female R 3 1 19 self moralOther J j 1 0.6360 
02-May-2018_14:48:59 7302 22 female R 3 1 20 self moralOther J j 1 0.8041 
02-May-2018_14:49:01 7302 22 female R 3 1 21 self moralOther J j 1 0.4083 
02-May-2018_14:49:02 7302 22 female R 3 1 22 self immoralSelf H h 1 0.4984 
02-May-2018_14:49:04 7302 22 female R 3 1 23 self moralOther J j 1 0.5884 
02-May-2018_14:49:06 7302 22 female R 3 1 24 self immoralOther J j 1 0.6726 
02-May-2018_14:49:08 7302 22 female R 3 2 1 self immoralOther J j 1 0.5927 
02-May-2018_14:49:10 7302 22 female R 3 2 2 self moralOther J j 1 0.5567 
02-May-2018_14:49:12 7302 22 female R 3 2 3 self immoralOther J j 1 0.4550 
02-May-2018_14:49:13 7302 22 female R 3 2 4 self moralSelf H h 1 0.5210 
02-May-2018_14:49:15 7302 22 female R 3 2 5 self moralSelf H h 1 0.3711 
02-May-2018_14:49:16 7302 22 female R 3 2 6 self immoralSelf H h 1 0.5032 
02-May-2018_14:49:18 7302 22 female R 3 2 7 self immoralSelf H h 1 0.5293 
02-May-2018_14:49:20 7302 22 female R 3 2 8 self moralOther J j 1 0.4233 
02-May-2018_14:49:21 7302 22 female R 3 2 9 self immoralSelf H h 1 0.4774 
02-May-2018_14:49:23 7302 22 female R 3 2 10 self moralOther J j 1 0.4296 
02-May-2018_14:49:24 7302 22 female R 3 2 11 self moralSelf H h 1 0.6057 
02-May-2018_14:49:26 7302 22 female R 3 2 12 self immoralOther J j 1 0.4257 
02-May-2018_14:49:28 7302 22 female R 3 2 13 self immoralSelf H h 1 0.5858 
02-May-2018_14:49:30 7302 22 female R 3 2 14 self immoralSelf H h 1 0.4979 
02-May-2018_14:49:31 7302 22 female R 3 2 15 self moralSelf H h 1 0.5100 
02-May-2018_14:49:33 7302 22 female R 3 2 16 self immoralOther J j 1 0.5162 
02-May-2018_14:49:35 7302 22 female R 3 2 17 self immoralOther J j 1 0.4023 
02-May-2018_14:49:36 7302 22 female R 3 2 18 self immoralOther J j 1 0.4663 
02-May-2018_14:49:38 7302 22 female R 3 2 19 self moralSelf H h 1 0.5564 
02-May-2018_14:49:40 7302 22 female R 3 2 20 self moralOther J j 1 0.5565 
02-May-2018_14:49:42 7302 22 female R 3 2 21 self moralOther J j 1 0.5287 
02-May-2018_14:49:43 7302 22 female R 3 2 22 self moralOther J j 1 0.5907 
02-May-2018_14:49:45 7302 22 female R 3 2 23 self moralSelf H h 1 0.6848 
02-May-2018_14:49:47 7302 22 female R 3 2 24 self immoralSelf H h 1 0.4529 
02-May-2018_14:49:54 7302 22 female R 3 3 1 self immoralSelf H h 1 0.5133 
02-May-2018_14:49:56 7302 22 female R 3 3 2 self moralOther J j 1 0.5574 
02-May-2018_14:49:57 7302 22 female R 3 3 3 self immoralOther J j 1 0.4395 
02-May-2018_14:49:59 7302 22 female R 3 3 4 self moralSelf H h 1 0.5576 
02-May-2018_14:50:00 7302 22 female R 3 3 5 self moralSelf H h 1 0.4037 
02-May-2018_14:50:02 7302 22 female R 3 3 6 self immoralOther J j 1 0.4837 
02-May-2018_14:50:04 7302 22 female R 3 3 7 self moralOther J j 1 0.5480 
02-May-2018_14:50:06 7302 22 female R 3 3 8 self immoralOther J j 1 0.4079 
02-May-2018_14:50:07 7302 22 female R 3 3 9 self moralSelf H j 0 0.3800 
02-May-2018_14:50:09 7302 22 female R 3 3 10 self immoralSelf H h 1 0.5542 
02-May-2018_14:50:11 7302 22 female R 3 3 11 self immoralOther J j 1 0.4523 
02-May-2018_14:50:13 7302 22 female R 3 3 12 self immoralOther J j 1 0.5283 
02-May-2018_14:50:14 7302 22 female R 3 3 13 self moralOther J j 1 0.6005 
02-May-2018_14:50:16 7302 22 female R 3 3 14 self immoralSelf H h 1 0.4705 
02-May-2018_14:50:18 7302 22 female R 3 3 15 self moralSelf H h 1 0.5766 
02-May-2018_14:50:20 7302 22 female R 3 3 16 self moralOther J j 1 0.6147 
02-May-2018_14:50:22 7302 22 female R 3 3 17 self immoralSelf H h 1 0.5188 
02-May-2018_14:50:24 7302 22 female R 3 3 18 self moralOther J j 1 0.5950 
02-May-2018_14:50:25 7302 22 female R 3 3 19 self moralSelf H h 1 0.5310 
02-May-2018_14:50:27 7302 22 female R 3 3 20 self moralSelf H h 1 0.3613 
02-May-2018_14:50:28 7302 22 female R 3 3 21 self immoralSelf H h 1 0.5352 
02-May-2018_14:50:30 7302 22 female R 3 3 22 self immoralSelf H h 1 0.4453 
02-May-2018_14:50:32 7302 22 female R 3 3 23 self immoralOther J j 1 0.5094 
02-May-2018_14:50:34 7302 22 female R 3 3 24 self moralOther J j 1 0.5875 
02-May-2018_14:50:36 7302 22 female R 3 4 1 self immoralOther J j 1 0.6337 
02-May-2018_14:50:37 7302 22 female R 3 4 2 self immoralOther J j 1 0.4657 
02-May-2018_14:50:39 7302 22 female R 3 4 3 self moralOther J j 1 0.6278 
02-May-2018_14:50:41 7302 22 female R 3 4 4 self immoralSelf H h 1 0.4639 
02-May-2018_14:50:43 7302 22 female R 3 4 5 self immoralOther J j 1 0.4860 
02-May-2018_14:50:44 7302 22 female R 3 4 6 self immoralSelf H h 1 0.4462 
02-May-2018_14:50:46 7302 22 female R 3 4 7 self moralSelf H h 1 0.4583 
02-May-2018_14:50:48 7302 22 female R 3 4 8 self moralOther J j 1 0.9002 
02-May-2018_14:50:50 7302 22 female R 3 4 9 self moralOther J j 1 0.5265 
02-May-2018_14:50:51 7302 22 female R 3 4 10 self moralOther J j 1 0.3866 
02-May-2018_14:50:52 7302 22 female R 3 4 11 self moralOther J j 1 0.3366 
02-May-2018_14:50:54 7302 22 female R 3 4 12 self moralSelf H h 1 0.5167 
02-May-2018_14:50:56 7302 22 female R 3 4 13 self moralOther J j 1 0.4429 
02-May-2018_14:50:58 7302 22 female R 3 4 14 self moralSelf H h 1 0.3129 
02-May-2018_14:50:59 7302 22 female R 3 4 15 self immoralOther J j 1 0.5330 
02-May-2018_14:51:01 7302 22 female R 3 4 16 self immoralSelf H h 1 0.4751 
02-May-2018_14:51:03 7302 22 female R 3 4 17 self moralSelf H h 1 0.5172 
02-May-2018_14:51:04 7302 22 female R 3 4 18 self immoralSelf H h 1 0.4293 
02-May-2018_14:51:06 7302 22 female R 3 4 19 self immoralOther J j 1 0.5634 
02-May-2018_14:51:08 7302 22 female R 3 4 20 self immoralOther J j 1 0.6294 
02-May-2018_14:51:09 7302 22 female R 3 4 21 self moralSelf H h 1 0.4976 
02-May-2018_14:51:11 7302 22 female R 3 4 22 self immoralSelf H h 1 0.5196 
02-May-2018_14:51:13 7302 22 female R 3 4 23 self immoralSelf H h 1 0.5117 
02-May-2018_14:51:14 7302 22 female R 3 4 24 self moralSelf H h 1 0.4398 
02-May-2018_14:51:20 7302 22 female R 3 5 1 self immoralOther J j 1 0.5022 
02-May-2018_14:51:22 7302 22 female R 3 5 2 self moralOther J j 1 0.5423 
02-May-2018_14:51:24 7302 22 female R 3 5 3 self moralSelf H h 1 0.3884 
02-May-2018_14:51:25 7302 22 female R 3 5 4 self moralOther J j 1 0.5965 
02-May-2018_14:51:26 7302 22 female R 3 5 5 self immoralSelf H h 1 0.4026 
02-May-2018_14:51:28 7302 22 female R 3 5 6 self immoralOther J j 1 0.5487 
02-May-2018_14:51:30 7302 22 female R 3 5 7 self moralSelf H h 1 0.3908 
02-May-2018_14:51:32 7302 22 female R 3 5 8 self immoralOther J j 1 0.5428 
02-May-2018_14:51:34 7302 22 female R 3 5 9 self immoralOther J j 1 0.5610 
02-May-2018_14:51:35 7302 22 female R 3 5 10 self moralSelf H h 1 0.4291 
02-May-2018_14:51:37 7302 22 female R 3 5 11 self immoralSelf H h 1 0.4832 
02-May-2018_14:51:39 7302 22 female R 3 5 12 self immoralSelf H h 1 0.4612 
02-May-2018_14:51:40 7302 22 female R 3 5 13 self immoralSelf H h 1 0.4693 
02-May-2018_14:51:42 7302 22 female R 3 5 14 self moralSelf H h 1 0.3975 
02-May-2018_14:51:44 7302 22 female R 3 5 15 self moralOther J j 1 0.5176 
02-May-2018_14:51:45 7302 22 female R 3 5 16 self moralOther J j 1 0.5456 
02-May-2018_14:51:47 7302 22 female R 3 5 17 self immoralOther J j 1 0.5018 
02-May-2018_14:51:49 7302 22 female R 3 5 18 self moralOther J j 1 0.5558 
02-May-2018_14:51:50 7302 22 female R 3 5 19 self immoralSelf H h 1 0.4620 
02-May-2018_14:51:52 7302 22 female R 3 5 20 self immoralSelf H h 1 0.3281 
02-May-2018_14:51:53 7302 22 female R 3 5 21 self moralSelf H h 1 0.4121 
02-May-2018_14:51:55 7302 22 female R 3 5 22 self immoralOther J j 1 0.5222 
02-May-2018_14:51:56 7302 22 female R 3 5 23 self moralOther J j 1 0.5183 
02-May-2018_14:51:58 7302 22 female R 3 5 24 self moralSelf H h 1 0.4943 
Date Sub Age Sex Hand Block Bin Trial Task Shape corrResp Resp ACC RT
02-May-2018_14:53:58 7302 22 female R 4 1 1 moral moralOther U u 1 0.5532 
02-May-2018_14:54:00 7302 22 female R 4 1 2 moral moralSelf U u 1 0.7432 
02-May-2018_14:54:02 7302 22 female R 4 1 3 moral immoralOther Y y 1 0.4775 
02-May-2018_14:54:03 7302 22 female R 4 1 4 moral immoralSelf Y u 0 0.6355 
02-May-2018_14:54:05 7302 22 female R 4 1 5 moral immoralSelf Y y 1 0.5695 
02-May-2018_14:54:07 7302 22 female R 4 1 6 moral immoralOther Y y 1 0.5037 
02-May-2018_14:54:08 7302 22 female R 4 1 7 moral moralOther U u 1 0.4378 
02-May-2018_14:54:10 7302 22 female R 4 1 8 moral immoralOther Y y 1 0.6220 
02-May-2018_14:54:12 7302 22 female R 4 1 9 moral moralOther U u 1 0.4062 
02-May-2018_14:54:13 7302 22 female R 4 1 10 moral immoralSelf Y y 1 0.5760 
02-May-2018_14:54:15 7302 22 female R 4 1 11 moral moralOther U u 1 0.4801 
02-May-2018_14:54:17 7302 22 female R 4 1 12 moral immoralOther Y y 1 0.4742 
02-May-2018_14:54:18 7302 22 female R 4 1 13 moral immoralSelf Y y 1 0.5863 
02-May-2018_14:54:20 7302 22 female R 4 1 14 moral moralSelf U u 1 0.4945 
02-May-2018_14:54:21 7302 22 female R 4 1 15 moral moralSelf U u 1 0.4286 
02-May-2018_14:54:23 7302 22 female R 4 1 16 moral moralSelf U u 1 0.3426 
02-May-2018_14:54:24 7302 22 female R 4 1 17 moral immoralOther Y y 1 0.5146 
02-May-2018_14:54:26 7302 22 female R 4 1 18 moral immoralOther Y y 1 0.4047 
02-May-2018_14:54:27 7302 22 female R 4 1 19 moral moralOther U u 1 0.4189 
02-May-2018_14:54:29 7302 22 female R 4 1 20 moral immoralSelf Y y 1 0.4369 
02-May-2018_14:54:30 7302 22 female R 4 1 21 moral moralSelf U u 1 0.5730 
02-May-2018_14:54:32 7302 22 female R 4 1 22 moral moralSelf U u 1 0.3671 
02-May-2018_14:54:34 7302 22 female R 4 1 23 moral immoralSelf Y y 1 0.6773 
02-May-2018_14:54:36 7302 22 female R 4 1 24 moral moralOther U u 1 0.5014 
02-May-2018_14:54:37 7302 22 female R 4 2 1 moral moralOther U u 1 0.3174 
02-May-2018_14:54:39 7302 22 female R 4 2 2 moral immoralOther Y u 0 0.3555 
02-May-2018_14:54:41 7302 22 female R 4 2 3 moral immoralOther Y y 1 0.5774 
02-May-2018_14:54:43 7302 22 female R 4 2 4 moral moralSelf U u 1 0.5957 
02-May-2018_14:54:44 7302 22 female R 4 2 5 moral immoralSelf Y y 1 0.4878 
02-May-2018_14:54:46 7302 22 female R 4 2 6 moral immoralOther Y y 1 0.5979 
02-May-2018_14:54:47 7302 22 female R 4 2 7 moral moralSelf U u 1 0.5100 
02-May-2018_14:54:49 7302 22 female R 4 2 8 moral moralOther U u 1 0.7000 
02-May-2018_14:54:51 7302 22 female R 4 2 9 moral immoralOther Y y 1 0.4741 
02-May-2018_14:54:53 7302 22 female R 4 2 10 moral moralOther U u 1 0.4104 
02-May-2018_14:54:54 7302 22 female R 4 2 11 moral moralOther U u 1 0.5023 
02-May-2018_14:54:56 7302 22 female R 4 2 12 moral immoralOther Y y 1 0.4705 
02-May-2018_14:54:58 7302 22 female R 4 2 13 moral moralOther U u 1 0.5108 
02-May-2018_14:54:59 7302 22 female R 4 2 14 moral immoralOther Y y 1 0.4867 
02-May-2018_14:55:01 7302 22 female R 4 2 15 moral immoralSelf Y y 1 0.5507 
02-May-2018_14:55:03 7302 22 female R 4 2 16 moral immoralSelf Y y 1 0.5789 
02-May-2018_14:55:04 7302 22 female R 4 2 17 moral immoralSelf Y y 1 0.5069 
02-May-2018_14:55:06 7302 22 female R 4 2 18 moral moralOther U u 1 0.4711 
02-May-2018_14:55:08 7302 22 female R 4 2 19 moral moralSelf U u 1 0.6031 
02-May-2018_14:55:10 7302 22 female R 4 2 20 moral immoralSelf Y y 1 0.4612 
02-May-2018_14:55:12 7302 22 female R 4 2 21 moral moralSelf U y 0 0.9334 
02-May-2018_14:55:14 7302 22 female R 4 2 22 moral immoralSelf Y y 1 0.7815 
02-May-2018_14:55:16 7302 22 female R 4 2 23 moral moralSelf U u 1 0.4477 
02-May-2018_14:55:17 7302 22 female R 4 2 24 moral moralSelf U u 1 0.3596 
02-May-2018_14:55:24 7302 22 female R 4 3 1 moral immoralOther Y y 1 0.4480 
02-May-2018_14:55:25 7302 22 female R 4 3 2 moral immoralOther Y y 1 0.3401 
02-May-2018_14:55:27 7302 22 female R 4 3 3 moral moralSelf U u 1 0.5062 
02-May-2018_14:55:28 7302 22 female R 4 3 4 moral immoralOther Y y 1 0.4143 
02-May-2018_14:55:30 7302 22 female R 4 3 5 moral moralOther U u 1 0.4565 
02-May-2018_14:55:31 7302 22 female R 4 3 6 moral moralSelf U u 1 0.5005 
02-May-2018_14:55:33 7302 22 female R 4 3 7 moral immoralSelf Y y 1 0.7185 
02-May-2018_14:55:35 7302 22 female R 4 3 8 moral immoralOther Y y 1 0.4827 
02-May-2018_14:55:37 7302 22 female R 4 3 9 moral moralOther U u 1 0.5247 
02-May-2018_14:55:38 7302 22 female R 4 3 10 moral immoralOther Y y 1 0.5008 
02-May-2018_14:55:40 7302 22 female R 4 3 11 moral moralOther U u 1 0.5150 
02-May-2018_14:55:42 7302 22 female R 4 3 12 moral moralSelf U u 1 0.5771 
02-May-2018_14:55:44 7302 22 female R 4 3 13 moral immoralOther Y y 1 0.5311 
02-May-2018_14:55:45 7302 22 female R 4 3 14 moral moralOther U u 1 0.4573 
02-May-2018_14:55:47 7302 22 female R 4 3 15 moral moralSelf U u 1 0.3635 
02-May-2018_14:55:48 7302 22 female R 4 3 16 moral moralOther U u 1 0.5814 
02-May-2018_14:55:50 7302 22 female R 4 3 17 moral moralSelf U u 1 0.3636 
02-May-2018_14:55:52 7302 22 female R 4 3 18 moral immoralSelf Y u 0 0.3856 
02-May-2018_14:55:53 7302 22 female R 4 3 19 moral immoralSelf Y y 1 0.5296 
02-May-2018_14:55:55 7302 22 female R 4 3 20 moral immoralSelf Y y 1 0.4058 
02-May-2018_14:55:56 7302 22 female R 4 3 21 moral immoralSelf Y y 1 0.4340 
02-May-2018_14:55:58 7302 22 female R 4 3 22 moral moralOther U u 1 0.4539 
02-May-2018_14:56:00 7302 22 female R 4 3 23 moral immoralSelf Y y 1 0.4560 
02-May-2018_14:56:01 7302 22 female R 4 3 24 moral moralSelf U u 1 0.4962 
02-May-2018_14:56:03 7302 22 female R 4 4 1 moral immoralSelf Y y 1 0.5163 
02-May-2018_14:56:05 7302 22 female R 4 4 2 moral moralOther U u 1 0.4204 
02-May-2018_14:56:06 7302 22 female R 4 4 3 moral immoralOther Y y 1 0.4504 
02-May-2018_14:56:08 7302 22 female R 4 4 4 moral moralOther U u 1 0.6485 
02-May-2018_14:56:10 7302 22 female R 4 4 5 moral immoralSelf Y y 1 0.4907 
02-May-2018_14:56:12 7302 22 female R 4 4 6 moral moralSelf U u 1 0.4787 
02-May-2018_14:56:13 7302 22 female R 4 4 7 moral immoralOther Y y 1 0.5048 
02-May-2018_14:56:15 7302 22 female R 4 4 8 moral moralOther U u 1 0.4509 
02-May-2018_14:56:16 7302 22 female R 4 4 9 moral immoralOther Y y 1 0.5510 
02-May-2018_14:56:18 7302 22 female R 4 4 10 moral moralSelf U u 1 0.4413 
02-May-2018_14:56:20 7302 22 female R 4 4 11 moral moralSelf U u 1 0.5172 
02-May-2018_14:56:21 7302 22 female R 4 4 12 moral immoralSelf Y y 1 0.5473 
02-May-2018_14:56:23 7302 22 female R 4 4 13 moral immoralSelf Y y 1 0.6854 
02-May-2018_14:56:25 7302 22 female R 4 4 14 moral moralOther U u 1 0.4835 
02-May-2018_14:56:26 7302 22 female R 4 4 15 moral immoralOther Y y 1 0.4356 
02-May-2018_14:56:28 7302 22 female R 4 4 16 moral immoralOther Y y 1 0.5253 
02-May-2018_14:56:30 7302 22 female R 4 4 17 moral moralSelf U u 1 0.8619 
02-May-2018_14:56:32 7302 22 female R 4 4 18 moral moralSelf U u 1 0.4799 
02-May-2018_14:56:33 7302 22 female R 4 4 19 moral immoralOther Y y 1 0.4719 
02-May-2018_14:56:35 7302 22 female R 4 4 20 moral immoralSelf Y y 1 0.6221 
02-May-2018_14:56:37 7302 22 female R 4 4 21 moral moralSelf U u 1 0.4862 
02-May-2018_14:56:38 7302 22 female R 4 4 22 moral moralOther U u 1 0.5583 
02-May-2018_14:56:40 7302 22 female R 4 4 23 moral immoralSelf Y y 1 0.4303 
02-May-2018_14:56:42 7302 22 female R 4 4 24 moral moralOther U u 1 0.6424 
02-May-2018_14:56:48 7302 22 female R 4 5 1 moral moralSelf U u 1 0.5428 
02-May-2018_14:56:50 7302 22 female R 4 5 2 moral immoralOther Y y 1 0.4770 
02-May-2018_14:56:52 7302 22 female R 4 5 3 moral moralOther U u 1 0.4230 
02-May-2018_14:56:53 7302 22 female R 4 5 4 moral immoralSelf Y y 1 0.4991 
02-May-2018_14:56:55 7302 22 female R 4 5 5 moral moralOther U u 1 0.4012 
02-May-2018_14:56:56 7302 22 female R 4 5 6 moral immoralSelf Y y 1 0.4993 
02-May-2018_14:56:58 7302 22 female R 4 5 7 moral immoralSelf Y y 1 0.5754 
02-May-2018_14:57:00 7302 22 female R 4 5 8 moral immoralOther Y y 1 0.5954 
02-May-2018_14:57:01 7302 22 female R 4 5 9 moral moralSelf U u 1 0.5876 
02-May-2018_14:57:03 7302 22 female R 4 5 10 moral moralSelf U u 1 0.4795 
02-May-2018_14:57:05 7302 22 female R 4 5 11 moral moralOther U u 1 0.5058 
02-May-2018_14:57:06 7302 22 female R 4 5 12 moral immoralSelf Y y 1 0.5459 
02-May-2018_14:57:08 7302 22 female R 4 5 13 moral moralSelf U u 1 0.6219 
02-May-2018_14:57:10 7302 22 female R 4 5 14 moral immoralSelf Y y 1 0.6061 
02-May-2018_14:57:12 7302 22 female R 4 5 15 moral immoralSelf Y y 1 0.4021 
02-May-2018_14:57:13 7302 22 female R 4 5 16 moral moralSelf U u 1 0.5523 
02-May-2018_14:57:15 7302 22 female R 4 5 17 moral immoralOther Y y 1 0.5064 
02-May-2018_14:57:17 7302 22 female R 4 5 18 moral immoralOther Y y 1 0.6204 
02-May-2018_14:57:19 7302 22 female R 4 5 19 moral moralOther U u 1 0.4826 
02-May-2018_14:57:20 7302 22 female R 4 5 20 moral moralOther U u 1 0.4847 
02-May-2018_14:57:22 7302 22 female R 4 5 21 moral immoralOther Y y 1 0.4987 
02-May-2018_14:57:23 7302 22 female R 4 5 22 moral moralOther U u 1 0.4548 
02-May-2018_14:57:25 7302 22 female R 4 5 23 moral moralSelf U u 1 0.4089 
02-May-2018_14:57:27 7302 22 female R 4 5 24 moral immoralOther Y y 1 0.4356 
Date Sub Age Sex Hand Block Bin Trial Task Shape corrResp Resp ACC RT
02-May-2018_14:59:33 7302 22 female R 5 1 1 self moralOther J j 1 0.7322 
02-May-2018_14:59:35 7302 22 female R 5 1 2 self moralSelf H h 1 0.5823 
02-May-2018_14:59:36 7302 22 female R 5 1 3 self moralOther J j 1 0.6144 
02-May-2018_14:59:38 7302 22 female R 5 1 4 self immoralSelf H j 0 0.8985 
02-May-2018_14:59:40 7302 22 female R 5 1 5 self moralOther J j 1 0.6746 
02-May-2018_14:59:42 7302 22 female R 5 1 6 self immoralOther J j 1 0.5708 
02-May-2018_14:59:43 7302 22 female R 5 1 7 self moralSelf H h 1 0.4428 
02-May-2018_14:59:45 7302 22 female R 5 1 8 self immoralSelf H h 1 0.3589 
02-May-2018_14:59:46 7302 22 female R 5 1 9 self moralOther J j 1 0.5530 
02-May-2018_14:59:48 7302 22 female R 5 1 10 self immoralOther J j 1 0.4410 
02-May-2018_14:59:49 7302 22 female R 5 1 11 self immoralOther J j 1 0.3991 
02-May-2018_14:59:51 7302 22 female R 5 1 12 self moralSelf H h 1 0.4948 
02-May-2018_14:59:53 7302 22 female R 5 1 13 self immoralSelf H h 1 0.4234 
02-May-2018_14:59:54 7302 22 female R 5 1 14 self moralOther J j 1 0.5113 
02-May-2018_14:59:56 7302 22 female R 5 1 15 self immoralSelf H h 1 0.4675 
02-May-2018_14:59:57 7302 22 female R 5 1 16 self immoralOther J j 1 0.3617 
02-May-2018_14:59:59 7302 22 female R 5 1 17 self immoralOther J j 1 0.5337 
02-May-2018_15:00:00 7302 22 female R 5 1 18 self moralSelf H h 1 0.4158 
02-May-2018_15:00:02 7302 22 female R 5 1 19 self moralSelf H h 1 0.4939 
02-May-2018_15:00:04 7302 22 female R 5 1 20 self immoralSelf H h 1 0.4239 
02-May-2018_15:00:05 7302 22 female R 5 1 21 self immoralSelf H h 1 0.3620 
02-May-2018_15:00:07 7302 22 female R 5 1 22 self moralSelf H h 1 0.5941 
02-May-2018_15:00:09 7302 22 female R 5 1 23 self moralOther J j 1 0.8341 
02-May-2018_15:00:11 7302 22 female R 5 1 24 self immoralOther J j 1 0.5104 
02-May-2018_15:00:13 7302 22 female R 5 2 1 self immoralSelf H h 1 0.5426 
02-May-2018_15:00:15 7302 22 female R 5 2 2 self moralOther J j 1 0.6365 
02-May-2018_15:00:17 7302 22 female R 5 2 3 self moralSelf H h 1 0.6507 
02-May-2018_15:00:19 7302 22 female R 5 2 4 self immoralSelf H h 1 0.6629 
02-May-2018_15:00:21 7302 22 female R 5 2 5 self immoralOther J j 1 0.6088 
02-May-2018_15:00:23 7302 22 female R 5 2 6 self moralOther J j 1 0.2830 
02-May-2018_15:00:24 7302 22 female R 5 2 7 self moralSelf H h 1 0.4572 
02-May-2018_15:00:26 7302 22 female R 5 2 8 self immoralOther J j 1 0.5172 
02-May-2018_15:00:28 7302 22 female R 5 2 9 self immoralOther J j 1 0.4853 
02-May-2018_15:00:30 7302 22 female R 5 2 10 self moralSelf H h 1 0.5074 
02-May-2018_15:00:31 7302 22 female R 5 2 11 self immoralSelf H h 1 0.4575 
02-May-2018_15:00:33 7302 22 female R 5 2 12 self moralOther J j 1 0.6096 
02-May-2018_15:00:34 7302 22 female R 5 2 13 self moralOther J j 1 0.5017 
02-May-2018_15:00:36 7302 22 female R 5 2 14 self moralSelf H h 1 0.5618 
02-May-2018_15:00:37 7302 22 female R 5 2 15 self moralOther J j 1 0.5058 
02-May-2018_15:00:39 7302 22 female R 5 2 16 self moralSelf H h 1 0.5659 
02-May-2018_15:00:41 7302 22 female R 5 2 17 self immoralSelf H h 1 0.4345 
02-May-2018_15:00:43 7302 22 female R 5 2 18 self immoralSelf H h 1 0.4262 
02-May-2018_15:00:44 7302 22 female R 5 2 19 self immoralOther J j 1 0.4822 
02-May-2018_15:00:46 7302 22 female R 5 2 20 self immoralOther J j 1 0.3323 
02-May-2018_15:00:47 7302 22 female R 5 2 21 self immoralSelf H h 1 0.5243 
02-May-2018_15:00:49 7302 22 female R 5 2 22 self moralOther J j 1 0.4805 
02-May-2018_15:00:51 7302 22 female R 5 2 23 self immoralOther J j 1 0.4986 
02-May-2018_15:00:52 7302 22 female R 5 2 24 self moralSelf H h 1 0.4687 
02-May-2018_15:00:57 7302 22 female R 5 3 1 self immoralSelf H h 1 0.4669 
02-May-2018_15:00:59 7302 22 female R 5 3 2 self immoralOther J j 1 0.5351 
02-May-2018_15:01:01 7302 22 female R 5 3 3 self moralOther J h 0 0.3472 
02-May-2018_15:01:02 7302 22 female R 5 3 4 self moralSelf H h 1 0.4572 
02-May-2018_15:01:04 7302 22 female R 5 3 5 self immoralSelf H h 1 0.3474 
02-May-2018_15:01:06 7302 22 female R 5 3 6 self moralSelf H h 1 0.4234 
02-May-2018_15:01:07 7302 22 female R 5 3 7 self moralOther J j 1 0.4876 
02-May-2018_15:01:09 7302 22 female R 5 3 8 self moralOther J j 1 0.4376 
02-May-2018_15:01:10 7302 22 female R 5 3 9 self immoralOther J j 1 0.5098 
02-May-2018_15:01:12 7302 22 female R 5 3 10 self immoralOther J j 1 0.4018 
02-May-2018_15:01:14 7302 22 female R 5 3 11 self moralOther J j 1 0.5539 
02-May-2018_15:01:16 7302 22 female R 5 3 12 self immoralSelf H h 1 0.5320 
02-May-2018_15:01:17 7302 22 female R 5 3 13 self moralOther J j 1 0.4621 
02-May-2018_15:01:19 7302 22 female R 5 3 14 self immoralSelf H h 1 0.4163 
02-May-2018_15:01:20 7302 22 female R 5 3 15 self immoralSelf H h 1 0.3923 
02-May-2018_15:01:22 7302 22 female R 5 3 16 self moralSelf H h 1 0.2884 
02-May-2018_15:01:24 7302 22 female R 5 3 17 self immoralOther J j 1 0.4905 
02-May-2018_15:01:26 7302 22 female R 5 3 18 self immoralOther J j 1 0.4406 
02-May-2018_15:01:27 7302 22 female R 5 3 19 self moralSelf H h 1 0.4768 
02-May-2018_15:01:29 7302 22 female R 5 3 20 self immoralSelf H h 1 0.4150 
02-May-2018_15:01:31 7302 22 female R 5 3 21 self moralOther J j 1 0.5609 
02-May-2018_15:01:32 7302 22 female R 5 3 22 self immoralOther J h 0 0.4930 
02-May-2018_15:01:34 7302 22 female R 5 3 23 self moralSelf H h 1 0.6030 
02-May-2018_15:01:36 7302 22 female R 5 3 24 self moralSelf H h 1 0.6331 
02-May-2018_15:01:37 7302 22 female R 5 4 1 self immoralSelf H h 1 0.4732 
02-May-2018_15:01:39 7302 22 female R 5 4 2 self moralSelf H h 1 0.4033 
02-May-2018_15:01:41 7302 22 female R 5 4 3 self moralSelf H h 1 0.3931 
02-May-2018_15:01:42 7302 22 female R 5 4 4 self moralSelf H h 1 0.2996 
02-May-2018_15:01:44 7302 22 female R 5 4 5 self immoralSelf H h 1 0.4463 
02-May-2018_15:01:46 7302 22 female R 5 4 6 self immoralSelf H h 1 0.3138 
02-May-2018_15:01:47 7302 22 female R 5 4 7 self moralOther J j 1 0.4658 
02-May-2018_15:01:49 7302 22 female R 5 4 8 self moralSelf H j 0 0.4059 
02-May-2018_15:01:50 7302 22 female R 5 4 9 self immoralSelf H h 1 0.5340 
02-May-2018_15:01:52 7302 22 female R 5 4 10 self immoralSelf H h 1 0.3162 
02-May-2018_15:01:53 7302 22 female R 5 4 11 self moralOther J h 0 0.2842 
02-May-2018_15:01:55 7302 22 female R 5 4 12 self moralOther J j 1 0.3562 
02-May-2018_15:01:57 7302 22 female R 5 4 13 self immoralOther J j 1 0.4744 
02-May-2018_15:01:58 7302 22 female R 5 4 14 self immoralOther J j 1 0.3385 
02-May-2018_15:02:00 7302 22 female R 5 4 15 self immoralSelf H h 1 0.4005 
02-May-2018_15:02:01 7302 22 female R 5 4 16 self moralOther J j 1 0.4786 
02-May-2018_15:02:03 7302 22 female R 5 4 17 self moralOther J j 1 0.3467 
02-May-2018_15:02:04 7302 22 female R 5 4 18 self moralOther J j 1 0.3487 
02-May-2018_15:02:06 7302 22 female R 5 4 19 self moralSelf H h 1 0.4748 
02-May-2018_15:02:08 7302 22 female R 5 4 20 self immoralOther J j 1 0.4850 
02-May-2018_15:02:09 7302 22 female R 5 4 21 self immoralOther J j 1 0.4291 
02-May-2018_15:02:11 7302 22 female R 5 4 22 self moralSelf H j 0 0.3532 
02-May-2018_15:02:12 7302 22 female R 5 4 23 self immoralOther J j 1 0.4496 
02-May-2018_15:02:14 7302 22 female R 5 4 24 self immoralOther J j 1 0.4254 
02-May-2018_15:02:19 7302 22 female R 5 5 1 self immoralSelf H h 1 0.4375 
02-May-2018_15:02:20 7302 22 female R 5 5 2 self moralSelf H h 1 0.4057 
02-May-2018_15:02:22 7302 22 female R 5 5 3 self immoralOther J j 1 0.4618 
02-May-2018_15:02:24 7302 22 female R 5 5 4 self moralSelf H h 1 0.4219 
02-May-2018_15:02:25 7302 22 female R 5 5 5 self immoralOther J j 1 0.4521 
02-May-2018_15:02:27 7302 22 female R 5 5 6 self immoralSelf H h 1 0.3920 
02-May-2018_15:02:29 7302 22 female R 5 5 7 self moralSelf H h 1 0.5642 
02-May-2018_15:02:30 7302 22 female R 5 5 8 self immoralSelf H h 1 0.3201 
02-May-2018_15:02:31 7302 22 female R 5 5 9 self moralOther J j 1 0.3184 
02-May-2018_15:02:33 7302 22 female R 5 5 10 self immoralSelf H h 1 0.5724 
02-May-2018_15:02:35 7302 22 female R 5 5 11 self immoralSelf H h 1 0.3545 
02-May-2018_15:02:36 7302 22 female R 5 5 12 self immoralSelf H h 1 0.3026 
02-May-2018_15:02:38 7302 22 female R 5 5 13 self moralOther J j 1 0.4827 
02-May-2018_15:02:40 7302 22 female R 5 5 14 self moralSelf H h 1 0.5288 
02-May-2018_15:02:41 7302 22 female R 5 5 15 self immoralOther J j 1 0.4508 
02-May-2018_15:02:43 7302 22 female R 5 5 16 self moralOther J h 0 0.3930 
02-May-2018_15:02:45 7302 22 female R 5 5 17 self moralSelf H h 1 0.4511 
02-May-2018_15:02:47 7302 22 female R 5 5 18 self immoralOther J j 1 0.4212 
02-May-2018_15:02:48 7302 22 female R 5 5 19 self immoralOther J j 1 0.5333 
02-May-2018_15:02:50 7302 22 female R 5 5 20 self moralOther J j 1 0.6395 
02-May-2018_15:02:52 7302 22 female R 5 5 21 self moralSelf H h 1 0.5275 
02-May-2018_15:02:54 7302 22 female R 5 5 22 self immoralOther J j 1 0.5776 
02-May-2018_15:02:55 7302 22 female R 5 5 23 self moralOther J j 1 0.6796 
02-May-2018_15:02:57 7302 22 female R 5 5 24 self moralOther J j 1 0.4117 
Date Sub Age Sex Hand Block Bin Trial Task Shape corrResp Resp ACC RT
02-May-2018_15:05:04 7302 22 female R 6 1 1 self moralSelf H h 1 0.5370 
02-May-2018_15:05:06 7302 22 female R 6 1 2 self immoralSelf H h 1 0.5431 
02-May-2018_15:05:08 7302 22 female R 6 1 3 self moralOther J j 1 0.5932 
02-May-2018_15:05:10 7302 22 female R 6 1 4 self immoralSelf H h 1 0.5433 
02-May-2018_15:05:11 7302 22 female R 6 1 5 self immoralOther J j 1 0.4414 
02-May-2018_15:05:13 7302 22 female R 6 1 6 self moralSelf H h 1 0.5355 
02-May-2018_15:05:15 7302 22 female R 6 1 7 self moralOther J j 1 0.7055 
02-May-2018_15:05:17 7302 22 female R 6 1 8 self moralSelf H h 1 0.7697 
02-May-2018_15:05:18 7302 22 female R 6 1 9 self moralOther J j 1 0.5338 
02-May-2018_15:05:20 7302 22 female R 6 1 10 self moralOther J j 1 0.3239 
02-May-2018_15:05:22 7302 22 female R 6 1 11 self immoralOther J j 1 0.5340 
02-May-2018_15:05:23 7302 22 female R 6 1 12 self moralSelf H h 1 0.5041 
02-May-2018_15:05:25 7302 22 female R 6 1 13 self immoralOther J j 1 0.4722 
02-May-2018_15:05:26 7302 22 female R 6 1 14 self immoralSelf H h 1 0.4542 
02-May-2018_15:05:27 7302 22 female R 6 1 15 self immoralOther J j 1 0.4223 
02-May-2018_15:05:29 7302 22 female R 6 1 16 self immoralOther J j 1 0.5224 
02-May-2018_15:05:31 7302 22 female R 6 1 17 self moralOther J j 1 0.6066 
02-May-2018_15:05:33 7302 22 female R 6 1 18 self immoralSelf H h 1 0.5906 
02-May-2018_15:05:34 7302 22 female R 6 1 19 self moralSelf H h 1 0.4387 
02-May-2018_15:05:36 7302 22 female R 6 1 20 self immoralOther J j 1 0.4428 
02-May-2018_15:05:38 7302 22 female R 6 1 21 self immoralSelf H j 0 0.3629 
02-May-2018_15:05:39 7302 22 female R 6 1 22 self moralSelf H h 1 0.5111 
02-May-2018_15:05:41 7302 22 female R 6 1 23 self immoralSelf H h 1 0.5151 
02-May-2018_15:05:42 7302 22 female R 6 1 24 self moralOther J j 1 0.4332 
02-May-2018_15:05:44 7302 22 female R 6 2 1 self moralSelf H h 1 0.5093 
02-May-2018_15:05:46 7302 22 female R 6 2 2 self immoralOther J j 1 0.4893 
02-May-2018_15:05:48 7302 22 female R 6 2 3 self moralOther J j 1 0.5494 
02-May-2018_15:05:49 7302 22 female R 6 2 4 self immoralOther J j 1 0.4516 
02-May-2018_15:05:51 7302 22 female R 6 2 5 self immoralSelf H h 1 0.4656 
02-May-2018_15:05:53 7302 22 female R 6 2 6 self moralOther J j 1 0.4579 
02-May-2018_15:05:54 7302 22 female R 6 2 7 self immoralSelf H h 1 0.5004 
02-May-2018_15:05:56 7302 22 female R 6 2 8 self immoralSelf H h 1 0.4599 
02-May-2018_15:05:58 7302 22 female R 6 2 9 self moralSelf H h 1 0.4581 
02-May-2018_15:05:59 7302 22 female R 6 2 10 self moralOther J j 1 0.4821 
02-May-2018_15:06:01 7302 22 female R 6 2 11 self moralSelf H h 1 0.4683 
02-May-2018_15:06:03 7302 22 female R 6 2 12 self moralSelf H h 1 0.4264 
02-May-2018_15:06:04 7302 22 female R 6 2 13 self immoralSelf H h 1 0.3864 
02-May-2018_15:06:06 7302 22 female R 6 2 14 self moralOther J j 1 0.4965 
02-May-2018_15:06:08 7302 22 female R 6 2 15 self immoralSelf H h 1 0.4906 
02-May-2018_15:06:09 7302 22 female R 6 2 16 self moralOther J j 1 0.5187 
02-May-2018_15:06:11 7302 22 female R 6 2 17 self moralOther J j 1 0.4670 
02-May-2018_15:06:12 7302 22 female R 6 2 18 self immoralOther J j 1 0.5129 
02-May-2018_15:06:14 7302 22 female R 6 2 19 self immoralOther J j 1 0.6929 
02-May-2018_15:06:16 7302 22 female R 6 2 20 self moralSelf H h 1 0.4490 
02-May-2018_15:06:17 7302 22 female R 6 2 21 self immoralOther J j 1 0.4652 
02-May-2018_15:06:19 7302 22 female R 6 2 22 self immoralOther J j 1 0.4233 
02-May-2018_15:06:21 7302 22 female R 6 2 23 self immoralSelf H h 1 0.4013 
02-May-2018_15:06:22 7302 22 female R 6 2 24 self moralSelf H h 1 0.3494 
02-May-2018_15:06:28 7302 22 female R 6 3 1 self moralSelf H h 1 0.4458 
02-May-2018_15:06:30 7302 22 female R 6 3 2 self immoralSelf H h 1 0.4118 
02-May-2018_15:06:32 7302 22 female R 6 3 3 self immoralSelf H h 1 0.3820 
02-May-2018_15:06:33 7302 22 female R 6 3 4 self immoralOther J j 1 0.4001 
02-May-2018_15:06:35 7302 22 female R 6 3 5 self moralOther J j 1 0.5661 
02-May-2018_15:06:37 7302 22 female R 6 3 6 self moralSelf H h 1 0.6542 
02-May-2018_15:06:38 7302 22 female R 6 3 7 self moralOther J j 1 0.4763 
02-May-2018_15:06:40 7302 22 female R 6 3 8 self moralSelf H h 1 0.5405 
02-May-2018_15:06:42 7302 22 female R 6 3 9 self moralOther J j 1 0.3326 
02-May-2018_15:06:44 7302 22 female R 6 3 10 self immoralSelf H h 1 0.5086 
02-May-2018_15:06:45 7302 22 female R 6 3 11 self immoralSelf H h 1 0.4108 
02-May-2018_15:06:47 7302 22 female R 6 3 12 self immoralOther J j 1 0.5189 
02-May-2018_15:06:49 7302 22 female R 6 3 13 self moralSelf H h 1 0.5129 
02-May-2018_15:06:50 7302 22 female R 6 3 14 self moralOther J j 1 0.4190 
02-May-2018_15:06:52 7302 22 female R 6 3 15 self immoralOther J j 1 0.5430 
02-May-2018_15:06:53 7302 22 female R 6 3 16 self immoralOther J j 1 0.4552 
02-May-2018_15:06:55 7302 22 female R 6 3 17 self moralOther J j 1 0.5759 
02-May-2018_15:06:56 7302 22 female R 6 3 18 self moralSelf H h 1 0.4473 
02-May-2018_15:06:58 7302 22 female R 6 3 19 self immoralOther J j 1 0.5075 
02-May-2018_15:07:00 7302 22 female R 6 3 20 self immoralSelf H h 1 0.4596 
02-May-2018_15:07:02 7302 22 female R 6 3 21 self immoralOther J j 1 0.5236 
02-May-2018_15:07:03 7302 22 female R 6 3 22 self moralOther J j 1 0.5817 
02-May-2018_15:07:05 7302 22 female R 6 3 23 self moralSelf H h 1 0.4919 
02-May-2018_15:07:06 7302 22 female R 6 3 24 self immoralSelf H h 1 0.4639 
02-May-2018_15:07:08 7302 22 female R 6 4 1 self immoralSelf H h 1 0.4180 
02-May-2018_15:07:10 7302 22 female R 6 4 2 self moralOther J j 1 0.5001 
02-May-2018_15:07:11 7302 22 female R 6 4 3 self immoralOther J j 1 0.5143 
02-May-2018_15:07:13 7302 22 female R 6 4 4 self immoralOther J j 1 0.5563 
02-May-2018_15:07:15 7302 22 female R 6 4 5 self moralSelf H h 1 0.5485 
02-May-2018_15:07:17 7302 22 female R 6 4 6 self immoralSelf H h 1 0.5085 
02-May-2018_15:07:19 7302 22 female R 6 4 7 self moralOther J j 1 0.4946 
02-May-2018_15:07:20 7302 22 female R 6 4 8 self moralSelf H h 1 0.4007 
02-May-2018_15:07:22 7302 22 female R 6 4 9 self immoralSelf H h 1 0.4808 
02-May-2018_15:07:24 7302 22 female R 6 4 10 self moralSelf H h 1 0.5129 
02-May-2018_15:07:25 7302 22 female R 6 4 11 self moralSelf H h 1 0.4790 
02-May-2018_15:07:27 7302 22 female R 6 4 12 self moralOther J j 1 0.5892 
02-May-2018_15:07:28 7302 22 female R 6 4 13 self moralSelf H h 1 0.4512 
02-May-2018_15:07:30 7302 22 female R 6 4 14 self moralOther J j 1 0.4373 
02-May-2018_15:07:32 7302 22 female R 6 4 15 self immoralSelf H h 1 0.4434 
02-May-2018_15:07:34 7302 22 female R 6 4 16 self moralOther J j 1 0.4855 
02-May-2018_15:07:35 7302 22 female R 6 4 17 self immoralOther J j 1 0.5395 
02-May-2018_15:07:37 7302 22 female R 6 4 18 self immoralSelf H h 1 0.4517 
02-May-2018_15:07:38 7302 22 female R 6 4 19 self immoralOther J j 1 0.4637 
02-May-2018_15:07:40 7302 22 female R 6 4 20 self immoralSelf H h 1 0.4941 
02-May-2018_15:07:42 7302 22 female R 6 4 21 self immoralOther J j 1 0.4699 
02-May-2018_15:07:43 7302 22 female R 6 4 22 self immoralOther J j 1 0.5120 
02-May-2018_15:07:45 7302 22 female R 6 4 23 self moralOther J j 1 0.6461 
02-May-2018_15:07:47 7302 22 female R 6 4 24 self moralSelf H h 1 0.4822 
02-May-2018_15:07:55 7302 22 female R 6 5 1 self moralOther J j 1 0.5127 
02-May-2018_15:07:56 7302 22 female R 6 5 2 self moralOther J j 1 0.4068 
02-May-2018_15:07:58 7302 22 female R 6 5 3 self immoralOther J j 1 0.4929 
02-May-2018_15:07:59 7302 22 female R 6 5 4 self immoralOther J j 1 0.4110 
02-May-2018_15:08:01 7302 22 female R 6 5 5 self immoralSelf H h 1 0.4430 
02-May-2018_15:08:02 7302 22 female R 6 5 6 self moralOther J j 1 0.5810 
02-May-2018_15:08:04 7302 22 female R 6 5 7 self moralOther J j 1 0.4953 
02-May-2018_15:08:06 7302 22 female R 6 5 8 self moralSelf H h 1 0.4512 
02-May-2018_15:08:07 7302 22 female R 6 5 9 self immoralSelf H h 1 0.4734 
02-May-2018_15:08:09 7302 22 female R 6 5 10 self immoralSelf H h 1 0.4255 
02-May-2018_15:08:10 7302 22 female R 6 5 11 self immoralOther J j 1 0.4456 
02-May-2018_15:08:12 7302 22 female R 6 5 12 self immoralSelf H j 0 0.3936 
02-May-2018_15:08:14 7302 22 female R 6 5 13 self moralSelf H h 1 0.5037 
02-May-2018_15:08:16 7302 22 female R 6 5 14 self immoralOther J j 1 0.4319 
02-May-2018_15:08:17 7302 22 female R 6 5 15 self immoralSelf H h 1 0.3960 
02-May-2018_15:08:19 7302 22 female R 6 5 16 self immoralOther J j 1 0.5260 
02-May-2018_15:08:21 7302 22 female R 6 5 17 self moralOther J j 1 0.5202 
02-May-2018_15:08:23 7302 22 female R 6 5 18 self immoralSelf H h 1 0.4442 
02-May-2018_15:08:24 7302 22 female R 6 5 19 self moralSelf H h 1 0.4963 
02-May-2018_15:08:26 7302 22 female R 6 5 20 self moralSelf H h 1 0.4705 
02-May-2018_15:08:28 7302 22 female R 6 5 21 self moralSelf H h 1 0.4286 
02-May-2018_15:08:30 7302 22 female R 6 5 22 self immoralOther J j 1 0.4787 
02-May-2018_15:08:31 7302 22 female R 6 5 23 self moralOther J j 1 0.5768 
02-May-2018_15:08:33 7302 22 female R 6 5 24 self moralSelf H h 1 0.5608 
