Date Prac Sub Age Sex Hand Block Bin Trial Shape Label Match CorrResp Resp ACC RT
09-May-2018_13:39:50 Exp 7306 21 male R 1 1 1 immoralSelf immoralSelf match n m 0 0.8691 
09-May-2018_13:39:53 Exp 7306 21 male R 1 1 2 immoralSelf moralOther mismatch m m 1 0.7853 
09-May-2018_13:39:55 Exp 7306 21 male R 1 1 3 moralOther moralOther match n n 1 0.5514 
09-May-2018_13:39:57 Exp 7306 21 male R 1 1 4 moralSelf immoralOther mismatch m m 1 0.8115 
09-May-2018_13:40:00 Exp 7306 21 male R 1 1 5 immoralOther moralSelf mismatch m m 1 0.8117 
09-May-2018_13:40:02 Exp 7306 21 male R 1 1 6 immoralOther moralSelf mismatch m m 1 0.7399 
09-May-2018_13:40:05 Exp 7306 21 male R 1 1 7 moralOther immoralOther mismatch m m 1 0.8179 
09-May-2018_13:40:07 Exp 7306 21 male R 1 1 8 immoralOther immoralOther match n n 1 0.9121 
09-May-2018_13:40:10 Exp 7306 21 male R 1 1 9 immoralSelf moralSelf mismatch m n 0 0.9803 
09-May-2018_13:40:12 Exp 7306 21 male R 1 1 10 immoralOther immoralOther match n n 1 0.8184 
09-May-2018_13:40:14 Exp 7306 21 male R 1 1 11 moralOther immoralSelf mismatch m m 1 0.6405 
09-May-2018_13:40:17 Exp 7306 21 male R 1 1 12 moralOther moralOther match n n 1 0.5306 
09-May-2018_13:40:19 Exp 7306 21 male R 1 1 13 immoralSelf immoralSelf match n n 1 0.8908 
09-May-2018_13:40:22 Exp 7306 21 male R 1 1 14 moralSelf immoralOther mismatch m m 1 0.8669 
09-May-2018_13:40:24 Exp 7306 21 male R 1 1 15 immoralSelf moralSelf mismatch m n 0 1.0251 
09-May-2018_13:40:27 Exp 7306 21 male R 1 1 16 immoralOther immoralOther match n n 1 0.8232 
09-May-2018_13:40:29 Exp 7306 21 male R 1 1 17 moralSelf immoralOther mismatch m n 0 0.9573 
09-May-2018_13:40:32 Exp 7306 21 male R 1 1 18 moralSelf moralSelf match n n 1 0.7675 
09-May-2018_13:40:34 Exp 7306 21 male R 1 1 19 moralOther immoralSelf mismatch m m 1 0.7276 
09-May-2018_13:40:37 Exp 7306 21 male R 1 1 20 moralSelf moralSelf match n m 0 1.0797 
09-May-2018_13:40:39 Exp 7306 21 male R 1 1 21 moralSelf moralSelf match n n 1 0.5219 
09-May-2018_13:40:41 Exp 7306 21 male R 1 1 22 moralOther moralOther match n n 1 0.5481 
09-May-2018_13:40:44 Exp 7306 21 male R 1 1 23 immoralOther moralOther mismatch m m 1 0.8242 
09-May-2018_13:40:46 Exp 7306 21 male R 1 1 24 immoralSelf immoralSelf match n n 1 0.8063 
09-May-2018_13:40:49 Exp 7306 21 male R 1 2 1 immoralOther immoralOther match n NA -1 1.0850 
09-May-2018_13:40:51 Exp 7306 21 male R 1 2 2 moralOther moralSelf mismatch m n 0 0.6505 
09-May-2018_13:40:54 Exp 7306 21 male R 1 2 3 immoralSelf immoralSelf match n NA -1 1.0850 
09-May-2018_13:40:56 Exp 7306 21 male R 1 2 4 moralSelf moralSelf match n m 0 0.7329 
09-May-2018_13:40:58 Exp 7306 21 male R 1 2 5 moralOther immoralOther mismatch m m 1 0.7970 
09-May-2018_13:41:01 Exp 7306 21 male R 1 2 6 moralSelf moralSelf match n n 1 1.0472 
09-May-2018_13:41:04 Exp 7306 21 male R 1 2 7 immoralOther immoralSelf mismatch m NA -1 1.0850 
09-May-2018_13:41:06 Exp 7306 21 male R 1 2 8 immoralSelf moralOther mismatch m m 1 1.0335 
09-May-2018_13:41:09 Exp 7306 21 male R 1 2 9 moralOther immoralSelf mismatch m m 1 0.7416 
09-May-2018_13:41:11 Exp 7306 21 male R 1 2 10 immoralSelf immoralSelf match n n 1 0.5958 
09-May-2018_13:41:13 Exp 7306 21 male R 1 2 11 moralSelf moralSelf match n n 1 0.6639 
09-May-2018_13:41:16 Exp 7306 21 male R 1 2 12 immoralSelf immoralSelf match n n 1 0.7580 
09-May-2018_13:41:18 Exp 7306 21 male R 1 2 13 moralSelf immoralOther mismatch m m 1 0.7282 
09-May-2018_13:41:20 Exp 7306 21 male R 1 2 14 moralOther moralOther match n n 1 0.4403 
09-May-2018_13:41:23 Exp 7306 21 male R 1 2 15 immoralOther moralSelf mismatch m m 1 0.9545 
09-May-2018_13:41:25 Exp 7306 21 male R 1 2 16 moralSelf immoralSelf mismatch m NA -1 1.0850 
09-May-2018_13:41:28 Exp 7306 21 male R 1 2 17 immoralOther immoralOther match n n 1 0.9927 
09-May-2018_13:41:30 Exp 7306 21 male R 1 2 18 moralOther moralOther match n n 1 0.4448 
09-May-2018_13:41:32 Exp 7306 21 male R 1 2 19 moralOther moralOther match n n 1 0.6389 
09-May-2018_13:41:35 Exp 7306 21 male R 1 2 20 immoralOther immoralSelf mismatch m n 0 0.6491 
09-May-2018_13:41:37 Exp 7306 21 male R 1 2 21 immoralSelf moralSelf mismatch m m 1 0.8492 
09-May-2018_13:41:40 Exp 7306 21 male R 1 2 22 immoralOther immoralOther match n n 1 0.7533 
09-May-2018_13:41:42 Exp 7306 21 male R 1 2 23 immoralSelf moralSelf mismatch m n 0 0.8774 
09-May-2018_13:41:44 Exp 7306 21 male R 1 2 24 moralSelf immoralSelf mismatch m n 0 0.5677 
09-May-2018_13:41:46 Exp 7306 21 male R 1 3 1 moralOther moralOther match n n 1 0.4897 
09-May-2018_13:41:49 Exp 7306 21 male R 1 3 2 moralOther moralSelf mismatch m n 0 0.4499 
09-May-2018_13:41:51 Exp 7306 21 male R 1 3 3 moralSelf moralOther mismatch m m 1 0.7062 
09-May-2018_13:41:53 Exp 7306 21 male R 1 3 4 immoralSelf immoralSelf match n n 1 0.8721 
09-May-2018_13:41:56 Exp 7306 21 male R 1 3 5 moralOther immoralSelf mismatch m m 1 0.7642 
09-May-2018_13:41:58 Exp 7306 21 male R 1 3 6 immoralSelf moralOther mismatch m m 1 0.7904 
09-May-2018_13:42:00 Exp 7306 21 male R 1 3 7 moralSelf moralOther mismatch m m 1 0.7065 
09-May-2018_13:42:03 Exp 7306 21 male R 1 3 8 immoralOther immoralOther match n n 1 0.7687 
09-May-2018_13:42:05 Exp 7306 21 male R 1 3 9 immoralOther immoralOther match n n 1 0.5849 
09-May-2018_13:42:07 Exp 7306 21 male R 1 3 10 immoralOther moralSelf mismatch m m 1 0.6950 
09-May-2018_13:42:10 Exp 7306 21 male R 1 3 11 moralSelf moralSelf match n n 1 0.6390 
09-May-2018_13:42:12 Exp 7306 21 male R 1 3 12 moralSelf moralSelf match n n 1 0.8812 
09-May-2018_13:42:14 Exp 7306 21 male R 1 3 13 immoralOther moralOther mismatch m m 1 0.6753 
09-May-2018_13:42:17 Exp 7306 21 male R 1 3 14 immoralOther moralOther mismatch m m 1 0.5515 
09-May-2018_13:42:19 Exp 7306 21 male R 1 3 15 moralSelf moralSelf match n m 0 0.6676 
09-May-2018_13:42:21 Exp 7306 21 male R 1 3 16 moralSelf moralOther mismatch m m 1 0.6398 
09-May-2018_13:42:24 Exp 7306 21 male R 1 3 17 immoralSelf immoralOther mismatch m n 0 0.7781 
09-May-2018_13:42:26 Exp 7306 21 male R 1 3 18 immoralOther immoralOther match n n 1 0.9120 
09-May-2018_13:42:29 Exp 7306 21 male R 1 3 19 immoralSelf immoralSelf match n n 1 0.7881 
09-May-2018_13:42:31 Exp 7306 21 male R 1 3 20 immoralSelf immoralOther mismatch m m 1 0.8163 
09-May-2018_13:42:33 Exp 7306 21 male R 1 3 21 moralOther moralSelf mismatch m n 0 0.5684 
09-May-2018_13:42:36 Exp 7306 21 male R 1 3 22 immoralSelf immoralSelf match n n 1 0.8405 
09-May-2018_13:42:38 Exp 7306 21 male R 1 3 23 moralOther moralOther match n n 1 0.4988 
09-May-2018_13:42:40 Exp 7306 21 male R 1 3 24 moralOther moralOther match n n 1 0.5448 
09-May-2018_13:42:58 Exp 7306 21 male R 1 4 1 moralSelf immoralOther mismatch m m 1 0.7978 
09-May-2018_13:43:01 Exp 7306 21 male R 1 4 2 immoralOther immoralOther match n n 1 0.9359 
09-May-2018_13:43:03 Exp 7306 21 male R 1 4 3 moralSelf moralSelf match n n 1 0.7922 
09-May-2018_13:43:05 Exp 7306 21 male R 1 4 4 immoralOther immoralOther match n n 1 0.6442 
09-May-2018_13:43:08 Exp 7306 21 male R 1 4 5 immoralOther moralOther mismatch m m 1 0.6623 
09-May-2018_13:43:10 Exp 7306 21 male R 1 4 6 moralOther moralOther match n n 1 0.4765 
09-May-2018_13:43:12 Exp 7306 21 male R 1 4 7 immoralOther immoralSelf mismatch m m 1 0.7206 
09-May-2018_13:43:15 Exp 7306 21 male R 1 4 8 immoralSelf moralSelf mismatch m m 1 0.8587 
09-May-2018_13:43:17 Exp 7306 21 male R 1 4 9 immoralSelf immoralSelf match n n 1 0.4329 
09-May-2018_13:43:19 Exp 7306 21 male R 1 4 10 immoralSelf immoralSelf match n n 1 0.4690 
09-May-2018_13:43:21 Exp 7306 21 male R 1 4 11 moralSelf moralSelf match n n 1 0.6651 
09-May-2018_13:43:23 Exp 7306 21 male R 1 4 12 immoralSelf moralSelf mismatch m m 1 0.8232 
09-May-2018_13:43:26 Exp 7306 21 male R 1 4 13 immoralSelf immoralSelf match n n 1 0.7654 
09-May-2018_13:43:28 Exp 7306 21 male R 1 4 14 moralOther moralOther match n n 1 0.4636 
09-May-2018_13:43:30 Exp 7306 21 male R 1 4 15 moralSelf immoralSelf mismatch m m 1 0.6456 
09-May-2018_13:43:33 Exp 7306 21 male R 1 4 16 immoralSelf immoralOther mismatch m n 0 0.7678 
09-May-2018_13:43:35 Exp 7306 21 male R 1 4 17 moralOther immoralOther mismatch m m 1 0.9600 
09-May-2018_13:43:37 Exp 7306 21 male R 1 4 18 moralOther moralOther match n n 1 0.5621 
09-May-2018_13:43:40 Exp 7306 21 male R 1 4 19 moralSelf moralSelf match n n 1 0.8204 
09-May-2018_13:43:42 Exp 7306 21 male R 1 4 20 moralOther immoralOther mismatch m m 1 0.5703 
09-May-2018_13:43:45 Exp 7306 21 male R 1 4 21 immoralOther immoralOther match n m 0 1.0505 
09-May-2018_13:43:47 Exp 7306 21 male R 1 4 22 immoralOther moralSelf mismatch m m 1 0.7946 
09-May-2018_13:43:50 Exp 7306 21 male R 1 4 23 moralOther moralSelf mismatch m m 1 0.9427 
09-May-2018_13:43:52 Exp 7306 21 male R 1 4 24 moralSelf moralOther mismatch m n 0 0.9009 
09-May-2018_13:43:55 Exp 7306 21 male R 1 5 1 moralSelf immoralOther mismatch m m 1 0.7630 
09-May-2018_13:43:57 Exp 7306 21 male R 1 5 2 moralOther immoralOther mismatch m NA -1 1.0850 
09-May-2018_13:44:00 Exp 7306 21 male R 1 5 3 moralOther moralOther match n n 1 0.6393 
09-May-2018_13:44:02 Exp 7306 21 male R 1 5 4 immoralSelf immoralOther mismatch m m 1 0.6893 
09-May-2018_13:44:04 Exp 7306 21 male R 1 5 5 moralOther moralOther match n n 1 0.5695 
09-May-2018_13:44:07 Exp 7306 21 male R 1 5 6 immoralSelf immoralSelf match n n 1 0.8977 
09-May-2018_13:44:09 Exp 7306 21 male R 1 5 7 immoralOther immoralOther match n n 1 0.8798 
09-May-2018_13:44:11 Exp 7306 21 male R 1 5 8 immoralOther immoralOther match n n 1 0.3940 
09-May-2018_13:44:13 Exp 7306 21 male R 1 5 9 immoralSelf immoralOther mismatch m m 1 0.5820 
09-May-2018_13:44:16 Exp 7306 21 male R 1 5 10 immoralSelf immoralSelf match n n 1 0.5962 
09-May-2018_13:44:18 Exp 7306 21 male R 1 5 11 moralSelf moralSelf match n n 1 0.8403 
09-May-2018_13:44:20 Exp 7306 21 male R 1 5 12 moralSelf moralOther mismatch m m 1 0.7865 
09-May-2018_13:44:23 Exp 7306 21 male R 1 5 13 moralOther moralOther match n n 1 0.4406 
09-May-2018_13:44:25 Exp 7306 21 male R 1 5 14 moralOther immoralOther mismatch m m 1 0.6027 
09-May-2018_13:44:27 Exp 7306 21 male R 1 5 15 immoralSelf moralSelf mismatch m n 0 0.6448 
09-May-2018_13:44:29 Exp 7306 21 male R 1 5 16 immoralOther immoralSelf mismatch m m 1 0.8229 
09-May-2018_13:44:32 Exp 7306 21 male R 1 5 17 immoralSelf immoralSelf match n n 1 1.0371 
09-May-2018_13:44:34 Exp 7306 21 male R 1 5 18 moralOther immoralOther mismatch m m 1 0.5993 
09-May-2018_13:44:37 Exp 7306 21 male R 1 5 19 moralSelf moralOther mismatch m m 1 0.7534 
09-May-2018_13:44:39 Exp 7306 21 male R 1 5 20 immoralOther moralOther mismatch m m 1 0.7815 
09-May-2018_13:44:41 Exp 7306 21 male R 1 5 21 immoralOther immoralOther match n m 0 0.5477 
09-May-2018_13:44:44 Exp 7306 21 male R 1 5 22 moralSelf moralSelf match n m 0 0.6798 
09-May-2018_13:44:46 Exp 7306 21 male R 1 5 23 immoralOther immoralSelf mismatch m m 1 0.9859 
09-May-2018_13:44:49 Exp 7306 21 male R 1 5 24 moralSelf moralSelf match n n 1 0.6721 
09-May-2018_13:44:54 Exp 7306 21 male R 2 1 1 moralSelf moralSelf match n NA -1 1.0850 
09-May-2018_13:44:57 Exp 7306 21 male R 2 1 2 immoralOther immoralOther match n NA -1 1.0850 
09-May-2018_13:45:00 Exp 7306 21 male R 2 1 3 immoralSelf immoralSelf match n n 1 0.9467 
09-May-2018_13:45:02 Exp 7306 21 male R 2 1 4 immoralSelf moralOther mismatch m m 1 0.7368 
09-May-2018_13:45:04 Exp 7306 21 male R 2 1 5 moralOther moralOther match n n 1 0.5290 
09-May-2018_13:45:07 Exp 7306 21 male R 2 1 6 moralOther moralSelf mismatch m m 1 0.8890 
09-May-2018_13:45:09 Exp 7306 21 male R 2 1 7 immoralSelf moralSelf mismatch m m 1 0.8252 
09-May-2018_13:45:12 Exp 7306 21 male R 2 1 8 immoralOther moralSelf mismatch m m 1 0.8634 
09-May-2018_13:45:14 Exp 7306 21 male R 2 1 9 immoralOther immoralOther match n n 1 0.6536 
09-May-2018_13:45:16 Exp 7306 21 male R 2 1 10 immoralSelf immoralSelf match n n 1 0.7577 
09-May-2018_13:45:19 Exp 7306 21 male R 2 1 11 immoralSelf moralOther mismatch m m 1 0.6798 
09-May-2018_13:45:21 Exp 7306 21 male R 2 1 12 immoralOther immoralSelf mismatch m n 0 0.8258 
09-May-2018_13:45:23 Exp 7306 21 male R 2 1 13 moralOther moralOther match n n 1 0.5041 
09-May-2018_13:45:25 Exp 7306 21 male R 2 1 14 immoralSelf immoralSelf match n n 1 0.5421 
09-May-2018_13:45:28 Exp 7306 21 male R 2 1 15 moralSelf immoralSelf mismatch m m 1 0.7003 
09-May-2018_13:45:30 Exp 7306 21 male R 2 1 16 moralOther moralOther match n n 1 0.4824 
09-May-2018_13:45:32 Exp 7306 21 male R 2 1 17 moralOther immoralSelf mismatch m m 1 0.5246 
09-May-2018_13:45:34 Exp 7306 21 male R 2 1 18 moralSelf immoralSelf mismatch m m 1 0.9427 
09-May-2018_13:45:37 Exp 7306 21 male R 2 1 19 moralOther immoralSelf mismatch m m 1 0.8208 
09-May-2018_13:45:39 Exp 7306 21 male R 2 1 20 immoralOther immoralOther match n n 1 0.6829 
09-May-2018_13:45:42 Exp 7306 21 male R 2 1 21 moralSelf moralSelf match n n 1 0.6931 
09-May-2018_13:45:44 Exp 7306 21 male R 2 1 22 moralSelf moralSelf match n m 0 0.9652 
09-May-2018_13:45:46 Exp 7306 21 male R 2 1 23 moralSelf immoralOther mismatch m m 1 0.7354 
09-May-2018_13:45:49 Exp 7306 21 male R 2 1 24 immoralOther immoralSelf mismatch m m 1 0.9675 
09-May-2018_13:45:51 Exp 7306 21 male R 2 2 1 moralOther moralOther match n n 1 0.5036 
09-May-2018_13:45:54 Exp 7306 21 male R 2 2 2 immoralSelf immoralSelf match n n 1 0.9817 
09-May-2018_13:45:56 Exp 7306 21 male R 2 2 3 immoralSelf immoralOther mismatch m m 1 0.8199 
09-May-2018_13:45:59 Exp 7306 21 male R 2 2 4 moralSelf moralSelf match n n 1 0.8500 
09-May-2018_13:46:01 Exp 7306 21 male R 2 2 5 immoralSelf immoralSelf match n n 1 0.7302 
09-May-2018_13:46:03 Exp 7306 21 male R 2 2 6 immoralSelf immoralSelf match n n 1 0.5863 
09-May-2018_13:46:06 Exp 7306 21 male R 2 2 7 immoralOther immoralOther match n n 1 0.8325 
09-May-2018_13:46:08 Exp 7306 21 male R 2 2 8 moralOther immoralSelf mismatch m m 1 0.6446 
09-May-2018_13:46:10 Exp 7306 21 male R 2 2 9 moralOther moralOther match n n 1 0.7507 
09-May-2018_13:46:13 Exp 7306 21 male R 2 2 10 immoralOther immoralSelf mismatch m n 0 1.0189 
09-May-2018_13:46:16 Exp 7306 21 male R 2 2 11 immoralSelf moralSelf mismatch m m 1 0.8810 
09-May-2018_13:46:18 Exp 7306 21 male R 2 2 12 moralSelf immoralSelf mismatch m m 1 0.9471 
09-May-2018_13:46:21 Exp 7306 21 male R 2 2 13 immoralOther immoralOther match n n 1 0.9032 
09-May-2018_13:46:23 Exp 7306 21 male R 2 2 14 moralOther moralSelf mismatch m n 0 0.5174 
09-May-2018_13:46:25 Exp 7306 21 male R 2 2 15 moralSelf moralOther mismatch m m 1 0.6795 
09-May-2018_13:46:28 Exp 7306 21 male R 2 2 16 immoralOther immoralOther match n n 1 0.7697 
09-May-2018_13:46:30 Exp 7306 21 male R 2 2 17 moralOther moralSelf mismatch m n 0 0.5618 
09-May-2018_13:46:32 Exp 7306 21 male R 2 2 18 moralSelf immoralOther mismatch m m 1 0.7880 
09-May-2018_13:46:35 Exp 7306 21 male R 2 2 19 immoralSelf immoralOther mismatch m m 1 0.9520 
09-May-2018_13:46:37 Exp 7306 21 male R 2 2 20 moralSelf moralSelf match n m 0 0.8042 
09-May-2018_13:46:40 Exp 7306 21 male R 2 2 21 immoralOther immoralSelf mismatch m NA -1 1.0850 
09-May-2018_13:46:42 Exp 7306 21 male R 2 2 22 moralSelf moralSelf match n n 1 0.8404 
09-May-2018_13:46:44 Exp 7306 21 male R 2 2 23 moralOther moralOther match n n 1 0.4826 
09-May-2018_13:46:47 Exp 7306 21 male R 2 2 24 immoralOther immoralSelf mismatch m m 1 0.8128 
09-May-2018_13:46:49 Exp 7306 21 male R 2 3 1 immoralOther immoralOther match n n 1 0.7250 
09-May-2018_13:46:52 Exp 7306 21 male R 2 3 2 moralOther immoralOther mismatch m m 1 0.7431 
09-May-2018_13:46:54 Exp 7306 21 male R 2 3 3 moralSelf moralSelf match n n 1 0.7252 
09-May-2018_13:46:56 Exp 7306 21 male R 2 3 4 moralOther immoralSelf mismatch m m 1 0.7193 
09-May-2018_13:46:59 Exp 7306 21 male R 2 3 5 moralOther moralOther match n n 1 0.6175 
09-May-2018_13:47:01 Exp 7306 21 male R 2 3 6 immoralSelf immoralSelf match n n 1 0.7276 
09-May-2018_13:47:04 Exp 7306 21 male R 2 3 7 immoralOther immoralSelf mismatch m m 1 1.0797 
09-May-2018_13:47:06 Exp 7306 21 male R 2 3 8 immoralSelf immoralSelf match n n 1 0.7459 
09-May-2018_13:47:08 Exp 7306 21 male R 2 3 9 immoralSelf moralOther mismatch m m 1 0.6800 
09-May-2018_13:47:11 Exp 7306 21 male R 2 3 10 moralSelf moralSelf match n n 1 0.6181 
09-May-2018_13:47:13 Exp 7306 21 male R 2 3 11 immoralSelf moralOther mismatch m m 1 0.8322 
09-May-2018_13:47:15 Exp 7306 21 male R 2 3 12 immoralOther immoralOther match n n 1 0.8124 
09-May-2018_13:47:18 Exp 7306 21 male R 2 3 13 moralSelf immoralSelf mismatch m m 1 0.9565 
09-May-2018_13:47:20 Exp 7306 21 male R 2 3 14 immoralSelf immoralSelf match n n 1 0.7767 
09-May-2018_13:47:23 Exp 7306 21 male R 2 3 15 moralOther immoralSelf mismatch m m 1 0.7528 
09-May-2018_13:47:25 Exp 7306 21 male R 2 3 16 moralSelf immoralSelf mismatch m m 1 0.8370 
09-May-2018_13:47:28 Exp 7306 21 male R 2 3 17 immoralOther moralOther mismatch m m 1 0.7371 
09-May-2018_13:47:30 Exp 7306 21 male R 2 3 18 moralSelf moralSelf match n m 0 0.7672 
09-May-2018_13:47:32 Exp 7306 21 male R 2 3 19 moralSelf immoralOther mismatch m m 1 0.7913 
09-May-2018_13:47:35 Exp 7306 21 male R 2 3 20 moralOther moralOther match n n 1 0.5795 
09-May-2018_13:47:37 Exp 7306 21 male R 2 3 21 immoralSelf moralOther mismatch m m 1 0.6096 
09-May-2018_13:47:39 Exp 7306 21 male R 2 3 22 immoralOther immoralOther match n n 1 0.7298 
09-May-2018_13:47:42 Exp 7306 21 male R 2 3 23 immoralOther immoralSelf mismatch m n 0 0.9058 
09-May-2018_13:47:44 Exp 7306 21 male R 2 3 24 moralOther moralOther match n n 1 0.5600 
09-May-2018_13:47:58 Exp 7306 21 male R 2 4 1 moralOther moralOther match n n 1 0.5629 
09-May-2018_13:48:00 Exp 7306 21 male R 2 4 2 moralOther immoralSelf mismatch m m 1 0.6290 
09-May-2018_13:48:03 Exp 7306 21 male R 2 4 3 moralSelf moralSelf match n m 0 0.6011 
09-May-2018_13:48:05 Exp 7306 21 male R 2 4 4 immoralSelf immoralSelf match n n 1 0.5792 
09-May-2018_13:48:07 Exp 7306 21 male R 2 4 5 immoralSelf immoralSelf match n n 1 0.7454 
09-May-2018_13:48:10 Exp 7306 21 male R 2 4 6 immoralOther immoralSelf mismatch m m 1 0.8394 
09-May-2018_13:48:12 Exp 7306 21 male R 2 4 7 moralOther immoralSelf mismatch m m 1 0.8016 
09-May-2018_13:48:15 Exp 7306 21 male R 2 4 8 moralSelf immoralSelf mismatch m n 0 1.0198 
09-May-2018_13:48:17 Exp 7306 21 male R 2 4 9 immoralOther moralSelf mismatch m m 1 0.8819 
09-May-2018_13:48:19 Exp 7306 21 male R 2 4 10 moralOther moralOther match n n 1 0.5320 
09-May-2018_13:48:22 Exp 7306 21 male R 2 4 11 immoralSelf moralSelf mismatch m n 0 0.7402 
09-May-2018_13:48:24 Exp 7306 21 male R 2 4 12 moralSelf immoralSelf mismatch m m 1 0.8502 
09-May-2018_13:48:27 Exp 7306 21 male R 2 4 13 immoralOther immoralSelf mismatch m m 1 0.8825 
09-May-2018_13:48:29 Exp 7306 21 male R 2 4 14 moralSelf moralSelf match n n 1 0.5966 
09-May-2018_13:48:31 Exp 7306 21 male R 2 4 15 moralOther moralSelf mismatch m n 0 0.5447 
09-May-2018_13:48:34 Exp 7306 21 male R 2 4 16 moralSelf moralSelf match n m 0 0.8468 
09-May-2018_13:48:36 Exp 7306 21 male R 2 4 17 immoralOther immoralOther match n n 1 0.7609 
09-May-2018_13:48:38 Exp 7306 21 male R 2 4 18 moralSelf immoralOther mismatch m m 1 0.6992 
09-May-2018_13:48:41 Exp 7306 21 male R 2 4 19 immoralSelf immoralSelf match n n 1 0.6733 
09-May-2018_13:48:43 Exp 7306 21 male R 2 4 20 moralOther moralOther match n n 1 0.4854 
09-May-2018_13:48:45 Exp 7306 21 male R 2 4 21 immoralOther immoralOther match n n 1 0.6795 
09-May-2018_13:48:48 Exp 7306 21 male R 2 4 22 immoralSelf moralSelf mismatch m n 0 0.9136 
09-May-2018_13:48:50 Exp 7306 21 male R 2 4 23 immoralOther immoralOther match n n 1 0.5978 
09-May-2018_13:48:52 Exp 7306 21 male R 2 4 24 immoralSelf immoralOther mismatch m n 0 0.7918 
09-May-2018_13:48:54 Exp 7306 21 male R 2 5 1 immoralOther immoralOther match n n 1 0.5640 
09-May-2018_13:48:57 Exp 7306 21 male R 2 5 2 moralOther immoralSelf mismatch m m 1 0.8141 
09-May-2018_13:48:59 Exp 7306 21 male R 2 5 3 immoralSelf immoralSelf match n n 1 0.7903 
09-May-2018_13:49:02 Exp 7306 21 male R 2 5 4 immoralOther immoralSelf mismatch m m 1 0.9144 
09-May-2018_13:49:04 Exp 7306 21 male R 2 5 5 moralOther immoralOther mismatch m m 1 0.6866 
09-May-2018_13:49:06 Exp 7306 21 male R 2 5 6 moralOther moralOther match n n 1 0.6166 
09-May-2018_13:49:09 Exp 7306 21 male R 2 5 7 immoralOther immoralOther match n n 1 0.6729 
09-May-2018_13:49:11 Exp 7306 21 male R 2 5 8 moralSelf moralOther mismatch m m 1 0.8449 
09-May-2018_13:49:14 Exp 7306 21 male R 2 5 9 immoralSelf immoralOther mismatch m m 1 0.8871 
09-May-2018_13:49:16 Exp 7306 21 male R 2 5 10 immoralSelf moralSelf mismatch m m 1 0.9033 
09-May-2018_13:49:19 Exp 7306 21 male R 2 5 11 moralSelf moralOther mismatch m m 1 0.6773 
09-May-2018_13:49:21 Exp 7306 21 male R 2 5 12 moralSelf moralSelf match n n 1 0.8475 
09-May-2018_13:49:23 Exp 7306 21 male R 2 5 13 moralSelf immoralSelf mismatch m m 1 0.7757 
09-May-2018_13:49:26 Exp 7306 21 male R 2 5 14 immoralOther moralSelf mismatch m m 1 0.9597 
09-May-2018_13:49:28 Exp 7306 21 male R 2 5 15 moralSelf moralSelf match n n 1 0.7779 
09-May-2018_13:49:31 Exp 7306 21 male R 2 5 16 immoralSelf immoralSelf match n n 1 0.7841 
09-May-2018_13:49:33 Exp 7306 21 male R 2 5 17 immoralOther immoralOther match n n 1 0.8142 
09-May-2018_13:49:36 Exp 7306 21 male R 2 5 18 immoralSelf immoralOther mismatch m m 1 0.8704 
09-May-2018_13:49:38 Exp 7306 21 male R 2 5 19 immoralOther moralOther mismatch m m 1 0.6185 
09-May-2018_13:49:40 Exp 7306 21 male R 2 5 20 moralOther moralOther match n n 1 0.6326 
09-May-2018_13:49:43 Exp 7306 21 male R 2 5 21 immoralSelf immoralSelf match n m 0 0.9086 
09-May-2018_13:49:45 Exp 7306 21 male R 2 5 22 moralOther moralOther match n n 1 0.5768 
09-May-2018_13:49:47 Exp 7306 21 male R 2 5 23 moralOther immoralOther mismatch m m 1 0.7530 
09-May-2018_13:49:50 Exp 7306 21 male R 2 5 24 moralSelf moralSelf match n n 1 0.7812 
09-May-2018_13:49:55 Exp 7306 21 male R 3 1 1 moralSelf moralSelf match n m 0 0.8835 
09-May-2018_13:49:58 Exp 7306 21 male R 3 1 2 moralOther immoralSelf mismatch m m 1 0.7896 
09-May-2018_13:50:00 Exp 7306 21 male R 3 1 3 immoralSelf immoralSelf match n n 1 0.6978 
09-May-2018_13:50:03 Exp 7306 21 male R 3 1 4 moralOther immoralOther mismatch m m 1 0.7918 
09-May-2018_13:50:05 Exp 7306 21 male R 3 1 5 immoralOther immoralSelf mismatch m m 1 1.0681 
09-May-2018_13:50:08 Exp 7306 21 male R 3 1 6 moralSelf immoralOther mismatch m m 1 0.6802 
09-May-2018_13:50:10 Exp 7306 21 male R 3 1 7 immoralOther immoralOther match n n 1 0.7703 
09-May-2018_13:50:12 Exp 7306 21 male R 3 1 8 moralOther moralOther match n n 1 0.6024 
09-May-2018_13:50:15 Exp 7306 21 male R 3 1 9 immoralOther moralSelf mismatch m m 1 0.8605 
09-May-2018_13:50:17 Exp 7306 21 male R 3 1 10 moralOther immoralSelf mismatch m m 1 0.7387 
09-May-2018_13:50:19 Exp 7306 21 male R 3 1 11 moralSelf moralSelf match n n 1 0.8249 
09-May-2018_13:50:22 Exp 7306 21 male R 3 1 12 immoralOther immoralOther match n n 1 0.7190 
09-May-2018_13:50:24 Exp 7306 21 male R 3 1 13 immoralSelf moralOther mismatch m m 1 0.6574 
09-May-2018_13:50:27 Exp 7306 21 male R 3 1 14 immoralSelf immoralSelf match n n 1 0.8793 
09-May-2018_13:50:29 Exp 7306 21 male R 3 1 15 moralSelf immoralSelf mismatch m m 1 0.8014 
09-May-2018_13:50:31 Exp 7306 21 male R 3 1 16 moralOther moralOther match n n 1 0.5555 
09-May-2018_13:50:33 Exp 7306 21 male R 3 1 17 moralOther moralOther match n n 1 0.6156 
09-May-2018_13:50:36 Exp 7306 21 male R 3 1 18 immoralSelf immoralSelf match n n 1 0.7518 
09-May-2018_13:50:38 Exp 7306 21 male R 3 1 19 immoralSelf moralOther mismatch m m 1 0.6599 
09-May-2018_13:50:41 Exp 7306 21 male R 3 1 20 moralSelf moralSelf match n n 1 0.9860 
09-May-2018_13:50:43 Exp 7306 21 male R 3 1 21 immoralSelf immoralOther mismatch m m 1 0.9122 
09-May-2018_13:50:46 Exp 7306 21 male R 3 1 22 immoralOther moralOther mismatch m m 1 0.7563 
09-May-2018_13:50:48 Exp 7306 21 male R 3 1 23 immoralOther immoralOther match n n 1 0.9044 
09-May-2018_13:50:51 Exp 7306 21 male R 3 1 24 moralSelf immoralSelf mismatch m m 1 0.8386 
09-May-2018_13:50:53 Exp 7306 21 male R 3 2 1 moralSelf moralOther mismatch m m 1 0.6967 
09-May-2018_13:50:55 Exp 7306 21 male R 3 2 2 moralOther moralOther match n n 1 0.5529 
09-May-2018_13:50:58 Exp 7306 21 male R 3 2 3 immoralOther immoralOther match n n 1 0.9010 
09-May-2018_13:51:00 Exp 7306 21 male R 3 2 4 moralOther immoralOther mismatch m m 1 1.0271 
09-May-2018_13:51:03 Exp 7306 21 male R 3 2 5 moralOther moralOther match n n 1 0.5753 
09-May-2018_13:51:05 Exp 7306 21 male R 3 2 6 immoralSelf immoralSelf match n n 1 0.7674 
09-May-2018_13:51:08 Exp 7306 21 male R 3 2 7 moralOther moralSelf mismatch m m 1 0.9115 
09-May-2018_13:51:10 Exp 7306 21 male R 3 2 8 immoralSelf immoralOther mismatch m m 1 0.7717 
09-May-2018_13:51:12 Exp 7306 21 male R 3 2 9 immoralSelf immoralSelf match n n 1 0.7558 
09-May-2018_13:51:15 Exp 7306 21 male R 3 2 10 moralSelf moralSelf match n n 1 0.8400 
09-May-2018_13:51:17 Exp 7306 21 male R 3 2 11 immoralSelf immoralSelf match n n 1 0.7221 
09-May-2018_13:51:19 Exp 7306 21 male R 3 2 12 moralOther moralOther match n n 1 0.5723 
09-May-2018_13:51:22 Exp 7306 21 male R 3 2 13 moralSelf moralOther mismatch m m 1 0.9245 
09-May-2018_13:51:24 Exp 7306 21 male R 3 2 14 immoralOther moralSelf mismatch m m 1 0.8945 
09-May-2018_13:51:27 Exp 7306 21 male R 3 2 15 immoralOther moralSelf mismatch m m 1 0.9026 
09-May-2018_13:51:29 Exp 7306 21 male R 3 2 16 immoralOther moralOther mismatch m m 1 0.6368 
09-May-2018_13:51:31 Exp 7306 21 male R 3 2 17 moralSelf moralSelf match n n 1 0.6889 
09-May-2018_13:51:34 Exp 7306 21 male R 3 2 18 moralSelf moralOther mismatch m m 1 0.6571 
09-May-2018_13:51:36 Exp 7306 21 male R 3 2 19 immoralSelf moralSelf mismatch m m 1 0.8872 
09-May-2018_13:51:39 Exp 7306 21 male R 3 2 20 immoralSelf moralSelf mismatch m m 1 0.9113 
09-May-2018_13:51:41 Exp 7306 21 male R 3 2 21 moralSelf moralSelf match n n 1 0.6674 
09-May-2018_13:51:43 Exp 7306 21 male R 3 2 22 moralOther immoralOther mismatch m m 1 0.7356 
09-May-2018_13:51:46 Exp 7306 21 male R 3 2 23 immoralOther immoralOther match n n 1 0.7678 
09-May-2018_13:51:48 Exp 7306 21 male R 3 2 24 immoralOther immoralOther match n n 1 0.6559 
09-May-2018_13:51:51 Exp 7306 21 male R 3 3 1 immoralSelf immoralSelf match n n 1 0.8241 
09-May-2018_13:51:53 Exp 7306 21 male R 3 3 2 immoralOther immoralOther match n n 1 0.7742 
09-May-2018_13:51:55 Exp 7306 21 male R 3 3 3 immoralOther immoralOther match n n 1 0.5902 
09-May-2018_13:51:58 Exp 7306 21 male R 3 3 4 immoralOther immoralSelf mismatch m m 1 0.8904 
09-May-2018_13:52:00 Exp 7306 21 male R 3 3 5 moralOther moralOther match n n 1 0.6666 
09-May-2018_13:52:03 Exp 7306 21 male R 3 3 6 immoralOther moralOther mismatch m m 1 0.9687 
09-May-2018_13:52:05 Exp 7306 21 male R 3 3 7 immoralSelf moralSelf mismatch m m 1 0.7928 
09-May-2018_13:52:08 Exp 7306 21 male R 3 3 8 moralOther immoralSelf mismatch m m 1 0.8130 
09-May-2018_13:52:10 Exp 7306 21 male R 3 3 9 moralOther moralSelf mismatch m m 1 0.8371 
09-May-2018_13:52:12 Exp 7306 21 male R 3 3 10 immoralSelf moralOther mismatch m m 1 0.7673 
09-May-2018_13:52:15 Exp 7306 21 male R 3 3 11 moralSelf immoralOther mismatch m m 1 0.9034 
09-May-2018_13:52:17 Exp 7306 21 male R 3 3 12 immoralSelf immoralSelf match n n 1 0.7816 
09-May-2018_13:52:20 Exp 7306 21 male R 3 3 13 immoralOther moralOther mismatch m m 1 0.7557 
09-May-2018_13:52:22 Exp 7306 21 male R 3 3 14 moralSelf moralSelf match n n 1 0.8717 
09-May-2018_13:52:24 Exp 7306 21 male R 3 3 15 moralSelf moralSelf match n n 1 0.5880 
09-May-2018_13:52:27 Exp 7306 21 male R 3 3 16 moralOther moralOther match n n 1 0.6641 
09-May-2018_13:52:29 Exp 7306 21 male R 3 3 17 moralSelf immoralOther mismatch m m 1 0.7102 
09-May-2018_13:52:31 Exp 7306 21 male R 3 3 18 moralOther immoralSelf mismatch m m 1 0.7943 
09-May-2018_13:52:34 Exp 7306 21 male R 3 3 19 immoralSelf immoralSelf match n n 1 0.7425 
09-May-2018_13:52:36 Exp 7306 21 male R 3 3 20 moralSelf moralSelf match n n 1 0.8846 
09-May-2018_13:52:39 Exp 7306 21 male R 3 3 21 immoralSelf moralOther mismatch m m 1 0.7347 
09-May-2018_13:52:41 Exp 7306 21 male R 3 3 22 moralOther moralOther match n n 1 0.6550 
09-May-2018_13:52:43 Exp 7306 21 male R 3 3 23 immoralOther immoralOther match n n 1 0.8470 
09-May-2018_13:52:46 Exp 7306 21 male R 3 3 24 moralSelf moralOther mismatch m m 1 0.7292 
09-May-2018_13:53:02 Exp 7306 21 male R 3 4 1 immoralSelf immoralSelf match n n 1 0.8080 
09-May-2018_13:53:05 Exp 7306 21 male R 3 4 2 immoralOther immoralSelf mismatch m m 1 1.0561 
09-May-2018_13:53:07 Exp 7306 21 male R 3 4 3 moralSelf moralSelf match n n 1 0.7843 
09-May-2018_13:53:10 Exp 7306 21 male R 3 4 4 immoralSelf immoralSelf match n n 1 0.7345 
09-May-2018_13:53:12 Exp 7306 21 male R 3 4 5 moralSelf moralSelf match n n 1 0.7985 
09-May-2018_13:53:14 Exp 7306 21 male R 3 4 6 immoralOther moralSelf mismatch m m 1 0.7927 
09-May-2018_13:53:17 Exp 7306 21 male R 3 4 7 immoralSelf immoralSelf match n n 1 0.6689 
09-May-2018_13:53:19 Exp 7306 21 male R 3 4 8 moralSelf immoralOther mismatch m m 1 0.7290 
09-May-2018_13:53:21 Exp 7306 21 male R 3 4 9 moralOther immoralOther mismatch m m 1 0.7292 
09-May-2018_13:53:24 Exp 7306 21 male R 3 4 10 immoralSelf moralOther mismatch m m 1 0.6413 
09-May-2018_13:53:26 Exp 7306 21 male R 3 4 11 moralOther moralOther match n n 1 0.6274 
09-May-2018_13:53:28 Exp 7306 21 male R 3 4 12 moralOther moralOther match n n 1 0.6155 
09-May-2018_13:53:31 Exp 7306 21 male R 3 4 13 moralOther immoralOther mismatch m m 1 0.6956 
09-May-2018_13:53:33 Exp 7306 21 male R 3 4 14 immoralSelf immoralOther mismatch m m 1 0.7759 
09-May-2018_13:53:35 Exp 7306 21 male R 3 4 15 moralSelf moralSelf match n n 1 0.8719 
09-May-2018_13:53:38 Exp 7306 21 male R 3 4 16 moralSelf immoralOther mismatch m m 1 0.7641 
09-May-2018_13:53:40 Exp 7306 21 male R 3 4 17 immoralOther immoralOther match n n 1 0.7742 
09-May-2018_13:53:43 Exp 7306 21 male R 3 4 18 immoralSelf moralOther mismatch m m 1 0.7424 
09-May-2018_13:53:45 Exp 7306 21 male R 3 4 19 moralOther moralOther match n n 1 0.5566 
09-May-2018_13:53:47 Exp 7306 21 male R 3 4 20 moralOther immoralOther mismatch m m 1 0.6487 
09-May-2018_13:53:49 Exp 7306 21 male R 3 4 21 immoralOther moralOther mismatch m m 1 0.6248 
09-May-2018_13:53:52 Exp 7306 21 male R 3 4 22 immoralOther immoralOther match n n 1 0.7508 
09-May-2018_13:53:54 Exp 7306 21 male R 3 4 23 immoralOther immoralOther match n n 1 0.7071 
09-May-2018_13:53:56 Exp 7306 21 male R 3 4 24 moralSelf moralOther mismatch m m 1 0.6791 
09-May-2018_13:53:59 Exp 7306 21 male R 3 5 1 moralSelf moralSelf match n n 1 0.6653 
09-May-2018_13:54:01 Exp 7306 21 male R 3 5 2 immoralSelf immoralSelf match n n 1 0.7514 
09-May-2018_13:54:03 Exp 7306 21 male R 3 5 3 immoralOther immoralOther match n m 0 0.7875 
09-May-2018_13:54:06 Exp 7306 21 male R 3 5 4 immoralSelf moralSelf mismatch m n 0 0.9837 
09-May-2018_13:54:08 Exp 7306 21 male R 3 5 5 moralSelf moralSelf match n n 1 0.7258 
09-May-2018_13:54:11 Exp 7306 21 male R 3 5 6 moralOther immoralSelf mismatch m m 1 0.7199 
09-May-2018_13:54:13 Exp 7306 21 male R 3 5 7 moralOther immoralOther mismatch m m 1 0.7781 
09-May-2018_13:54:16 Exp 7306 21 male R 3 5 8 immoralOther moralOther mismatch m m 1 0.8082 
09-May-2018_13:54:18 Exp 7306 21 male R 3 5 9 moralOther moralOther match n n 1 0.6484 
09-May-2018_13:54:20 Exp 7306 21 male R 3 5 10 immoralSelf moralOther mismatch m m 1 0.7765 
09-May-2018_13:54:23 Exp 7306 21 male R 3 5 11 immoralOther immoralOther match n n 1 0.7207 
09-May-2018_13:54:25 Exp 7306 21 male R 3 5 12 moralSelf immoralOther mismatch m m 1 0.7547 
09-May-2018_13:54:27 Exp 7306 21 male R 3 5 13 immoralOther immoralOther match n n 1 0.7910 
09-May-2018_13:54:30 Exp 7306 21 male R 3 5 14 moralOther moralSelf mismatch m n 0 0.5630 
09-May-2018_13:54:32 Exp 7306 21 male R 3 5 15 immoralSelf immoralSelf match n n 1 0.8051 
09-May-2018_13:54:34 Exp 7306 21 male R 3 5 16 moralSelf moralOther mismatch m m 1 0.6953 
09-May-2018_13:54:37 Exp 7306 21 male R 3 5 17 immoralSelf immoralSelf match n n 1 0.7833 
09-May-2018_13:54:39 Exp 7306 21 male R 3 5 18 moralOther moralOther match n n 1 0.5897 
09-May-2018_13:54:41 Exp 7306 21 male R 3 5 19 immoralOther moralOther mismatch m m 1 0.6497 
09-May-2018_13:54:44 Exp 7306 21 male R 3 5 20 moralSelf moralSelf match n n 1 0.9058 
09-May-2018_13:54:46 Exp 7306 21 male R 3 5 21 immoralSelf moralOther mismatch m m 1 0.7599 
09-May-2018_13:54:48 Exp 7306 21 male R 3 5 22 moralOther moralOther match n n 1 0.5861 
09-May-2018_13:54:51 Exp 7306 21 male R 3 5 23 immoralOther moralOther mismatch m m 1 0.8562 
09-May-2018_13:54:53 Exp 7306 21 male R 3 5 24 moralSelf immoralOther mismatch m m 1 0.8163 
Date Prac Sub Age Sex Hand Block Bin Trial Shape Label Match CorrResp Resp ACC RT
09-May-2018_14:00:28 Exp 7306 21 male R 1 1 1 moralSelf moralSelf match n m 0 0.9933 
09-May-2018_14:00:30 Exp 7306 21 male R 1 1 2 immoralOther moralOther mismatch m m 1 0.8856 
09-May-2018_14:00:33 Exp 7306 21 male R 1 1 3 immoralSelf moralSelf mismatch m m 1 0.9116 
09-May-2018_14:00:36 Exp 7306 21 male R 1 1 4 moralOther moralOther match n n 1 0.9158 
09-May-2018_14:00:38 Exp 7306 21 male R 1 1 5 moralSelf moralSelf match n n 1 0.8079 
09-May-2018_14:00:40 Exp 7306 21 male R 1 1 6 immoralSelf immoralSelf match n n 1 0.6881 
09-May-2018_14:00:43 Exp 7306 21 male R 1 1 7 moralSelf moralOther mismatch m m 1 0.6962 
09-May-2018_14:00:45 Exp 7306 21 male R 1 1 8 immoralSelf moralSelf mismatch m m 1 0.7363 
09-May-2018_14:00:47 Exp 7306 21 male R 1 1 9 immoralOther moralOther mismatch m m 1 0.6484 
09-May-2018_14:00:50 Exp 7306 21 male R 1 1 10 immoralOther immoralOther match n n 1 0.7366 
09-May-2018_14:00:52 Exp 7306 21 male R 1 1 11 immoralSelf immoralSelf match n n 1 0.7288 
09-May-2018_14:00:55 Exp 7306 21 male R 1 1 12 immoralOther immoralOther match n n 1 1.0329 
09-May-2018_14:00:57 Exp 7306 21 male R 1 1 13 immoralOther immoralOther match n n 1 0.5650 
09-May-2018_14:00:59 Exp 7306 21 male R 1 1 14 moralOther moralOther match n n 1 0.7111 
09-May-2018_14:01:02 Exp 7306 21 male R 1 1 15 moralOther immoralSelf mismatch m NA -1 1.0850 
09-May-2018_14:01:04 Exp 7306 21 male R 1 1 16 moralSelf moralSelf match n n 1 0.8374 
09-May-2018_14:01:07 Exp 7306 21 male R 1 1 17 moralOther immoralOther mismatch m m 1 0.9276 
09-May-2018_14:01:09 Exp 7306 21 male R 1 1 18 moralOther moralOther match n n 1 0.4637 
09-May-2018_14:01:11 Exp 7306 21 male R 1 1 19 immoralSelf immoralSelf match n n 1 0.7818 
09-May-2018_14:01:14 Exp 7306 21 male R 1 1 20 moralOther immoralSelf mismatch m m 1 0.6359 
09-May-2018_14:01:16 Exp 7306 21 male R 1 1 21 moralSelf immoralOther mismatch m m 1 0.6962 
09-May-2018_14:01:18 Exp 7306 21 male R 1 1 22 immoralOther immoralSelf mismatch m m 1 0.8402 
09-May-2018_14:01:21 Exp 7306 21 male R 1 1 23 immoralSelf moralOther mismatch m m 1 0.5945 
09-May-2018_14:01:23 Exp 7306 21 male R 1 1 24 moralSelf immoralOther mismatch m m 1 0.7346 
09-May-2018_14:01:26 Exp 7306 21 male R 1 2 1 moralOther moralSelf mismatch m m 1 0.8546 
09-May-2018_14:01:28 Exp 7306 21 male R 1 2 2 immoralSelf moralSelf mismatch m m 1 0.8388 
09-May-2018_14:01:30 Exp 7306 21 male R 1 2 3 immoralSelf immoralSelf match n n 1 0.7129 
09-May-2018_14:01:33 Exp 7306 21 male R 1 2 4 moralOther immoralOther mismatch m m 1 0.9171 
09-May-2018_14:01:35 Exp 7306 21 male R 1 2 5 moralOther moralOther match n n 1 0.6012 
09-May-2018_14:01:37 Exp 7306 21 male R 1 2 6 moralOther moralOther match n n 1 0.5314 
09-May-2018_14:01:40 Exp 7306 21 male R 1 2 7 immoralOther immoralOther match n m 0 1.0115 
09-May-2018_14:01:42 Exp 7306 21 male R 1 2 8 immoralOther moralSelf mismatch m m 1 0.8516 
09-May-2018_14:01:45 Exp 7306 21 male R 1 2 9 moralSelf immoralOther mismatch m m 1 0.7638 
09-May-2018_14:01:47 Exp 7306 21 male R 1 2 10 immoralSelf immoralOther mismatch m m 1 0.7099 
09-May-2018_14:01:49 Exp 7306 21 male R 1 2 11 moralOther moralOther match n n 1 0.6980 
09-May-2018_14:01:52 Exp 7306 21 male R 1 2 12 moralSelf moralSelf match n m 0 0.8322 
09-May-2018_14:01:54 Exp 7306 21 male R 1 2 13 immoralSelf moralSelf mismatch m n 0 0.5322 
09-May-2018_14:01:56 Exp 7306 21 male R 1 2 14 moralSelf moralOther mismatch m m 1 0.6844 
09-May-2018_14:01:59 Exp 7306 21 male R 1 2 15 immoralOther immoralOther match n n 1 0.7106 
09-May-2018_14:02:01 Exp 7306 21 male R 1 2 16 moralSelf immoralSelf mismatch m m 1 0.6906 
09-May-2018_14:02:03 Exp 7306 21 male R 1 2 17 immoralSelf immoralSelf match n n 1 0.6905 
09-May-2018_14:02:06 Exp 7306 21 male R 1 2 18 immoralSelf immoralSelf match n n 1 0.6189 
09-May-2018_14:02:08 Exp 7306 21 male R 1 2 19 moralOther immoralOther mismatch m m 1 0.7450 
09-May-2018_14:02:10 Exp 7306 21 male R 1 2 20 immoralOther immoralOther match n n 1 0.7912 
09-May-2018_14:02:13 Exp 7306 21 male R 1 2 21 moralSelf moralSelf match n n 1 0.7473 
09-May-2018_14:02:15 Exp 7306 21 male R 1 2 22 immoralOther moralOther mismatch m m 1 0.9355 
09-May-2018_14:02:18 Exp 7306 21 male R 1 2 23 moralSelf moralSelf match n n 1 0.6877 
09-May-2018_14:02:20 Exp 7306 21 male R 1 2 24 immoralOther moralSelf mismatch m m 1 0.6480 
Date Prac Sub Age Sex Hand Block Bin Trial Shape Label Match CorrResp Resp ACC RT
09-May-2018_14:07:01 Exp 7306 21 male R 1 1 1 immoralSelf immoralSelf match n u 2 0.8238 
09-May-2018_14:07:04 Exp 7306 21 male R 1 1 2 immoralOther immoralOther match n NA -1 1.0850 
09-May-2018_14:07:06 Exp 7306 21 male R 1 1 3 immoralOther immoralSelf mismatch m m 1 0.9360 
09-May-2018_14:07:09 Exp 7306 21 male R 1 1 4 immoralSelf immoralOther mismatch m n 0 0.8561 
09-May-2018_14:07:11 Exp 7306 21 male R 1 1 5 moralOther immoralOther mismatch m m 1 0.7843 
09-May-2018_14:07:14 Exp 7306 21 male R 1 1 6 moralOther moralOther match n n 1 0.8624 
09-May-2018_14:07:16 Exp 7306 21 male R 1 1 7 moralOther immoralOther mismatch m m 1 0.5487 
09-May-2018_14:07:18 Exp 7306 21 male R 1 1 8 moralSelf moralOther mismatch m m 1 0.9287 
09-May-2018_14:07:21 Exp 7306 21 male R 1 1 9 moralSelf moralSelf match n n 1 0.9128 
09-May-2018_14:07:23 Exp 7306 21 male R 1 1 10 moralSelf immoralOther mismatch m m 1 0.7169 
09-May-2018_14:07:26 Exp 7306 21 male R 1 1 11 immoralSelf moralOther mismatch m m 1 0.7371 
09-May-2018_14:07:28 Exp 7306 21 male R 1 1 12 immoralOther immoralOther match n n 1 0.6733 
09-May-2018_14:07:30 Exp 7306 21 male R 1 1 13 immoralOther immoralOther match n n 1 0.7174 
09-May-2018_14:07:33 Exp 7306 21 male R 1 1 14 moralOther immoralSelf mismatch m m 1 0.8075 
09-May-2018_14:07:35 Exp 7306 21 male R 1 1 15 moralOther moralOther match n n 1 0.6316 
09-May-2018_14:07:37 Exp 7306 21 male R 1 1 16 moralSelf immoralSelf mismatch m m 1 0.6918 
09-May-2018_14:07:40 Exp 7306 21 male R 1 1 17 moralSelf moralSelf match n n 1 0.9319 
09-May-2018_14:07:42 Exp 7306 21 male R 1 1 18 moralOther moralOther match n n 1 0.6920 
09-May-2018_14:07:45 Exp 7306 21 male R 1 1 19 immoralSelf moralSelf mismatch m m 1 0.7722 
09-May-2018_14:07:47 Exp 7306 21 male R 1 1 20 immoralOther moralSelf mismatch m m 1 0.8923 
09-May-2018_14:07:49 Exp 7306 21 male R 1 1 21 immoralOther immoralSelf mismatch m m 1 0.6765 
09-May-2018_14:07:52 Exp 7306 21 male R 1 1 22 immoralSelf immoralSelf match n n 1 1.0325 
09-May-2018_14:07:54 Exp 7306 21 male R 1 1 23 immoralSelf immoralSelf match n n 1 0.5647 
09-May-2018_14:07:57 Exp 7306 21 male R 1 1 24 moralSelf moralSelf match n m 0 0.7348 
09-May-2018_14:07:59 Exp 7306 21 male R 1 2 1 immoralSelf immoralSelf match n n 1 0.6790 
09-May-2018_14:08:01 Exp 7306 21 male R 1 2 2 immoralOther immoralOther match n n 1 0.7851 
09-May-2018_14:08:04 Exp 7306 21 male R 1 2 3 moralOther moralOther match n n 1 0.4873 
09-May-2018_14:08:06 Exp 7306 21 male R 1 2 4 moralOther immoralOther mismatch m m 1 0.7194 
09-May-2018_14:08:08 Exp 7306 21 male R 1 2 5 moralSelf moralOther mismatch m n 0 0.5855 
09-May-2018_14:08:10 Exp 7306 21 male R 1 2 6 immoralOther moralOther mismatch m m 1 0.6316 
09-May-2018_14:08:13 Exp 7306 21 male R 1 2 7 moralSelf moralSelf match n n 1 0.7318 
09-May-2018_14:08:15 Exp 7306 21 male R 1 2 8 immoralSelf immoralSelf match n n 1 0.7079 
09-May-2018_14:08:18 Exp 7306 21 male R 1 2 9 moralSelf moralSelf match n n 1 0.9841 
09-May-2018_14:08:20 Exp 7306 21 male R 1 2 10 moralSelf immoralSelf mismatch m m 1 0.7342 
09-May-2018_14:08:22 Exp 7306 21 male R 1 2 11 immoralSelf moralSelf mismatch m m 1 0.7103 
09-May-2018_14:08:25 Exp 7306 21 male R 1 2 12 immoralOther immoralSelf mismatch m m 1 0.7225 
09-May-2018_14:08:27 Exp 7306 21 male R 1 2 13 immoralSelf moralSelf mismatch m m 1 0.7326 
09-May-2018_14:08:29 Exp 7306 21 male R 1 2 14 immoralSelf immoralSelf match n n 1 0.6368 
09-May-2018_14:08:32 Exp 7306 21 male R 1 2 15 immoralOther immoralOther match n n 1 0.8888 
09-May-2018_14:08:34 Exp 7306 21 male R 1 2 16 moralOther immoralSelf mismatch m m 1 0.8410 
09-May-2018_14:08:37 Exp 7306 21 male R 1 2 17 moralOther immoralSelf mismatch m m 1 0.7791 
09-May-2018_14:08:39 Exp 7306 21 male R 1 2 18 moralSelf moralSelf match n m 0 0.7372 
09-May-2018_14:08:42 Exp 7306 21 male R 1 2 19 immoralSelf immoralOther mismatch m m 1 0.9674 
09-May-2018_14:08:44 Exp 7306 21 male R 1 2 20 immoralOther moralOther mismatch m m 1 1.0716 
09-May-2018_14:08:47 Exp 7306 21 male R 1 2 21 moralOther moralOther match n n 1 0.6278 
09-May-2018_14:08:49 Exp 7306 21 male R 1 2 22 moralSelf moralOther mismatch m m 1 0.7358 
09-May-2018_14:08:51 Exp 7306 21 male R 1 2 23 immoralOther immoralOther match n n 1 0.7520 
09-May-2018_14:08:54 Exp 7306 21 male R 1 2 24 moralOther moralOther match n n 1 0.5481 
Date Prac Sub Age Sex Hand Block Bin Trial Shape Label Match CorrResp Resp ACC RT
09-May-2018_14:13:54 Exp 7306 21 male R 1 1 1 moralOther moralSelf mismatch m m 1 0.8752 
09-May-2018_14:13:57 Exp 7306 21 male R 1 1 2 immoralSelf immoralSelf match n n 1 0.8073 
09-May-2018_14:13:59 Exp 7306 21 male R 1 1 3 moralSelf immoralOther mismatch m m 1 0.7275 
09-May-2018_14:14:01 Exp 7306 21 male R 1 1 4 immoralOther moralSelf mismatch m m 1 0.7436 
09-May-2018_14:14:04 Exp 7306 21 male R 1 1 5 moralOther immoralSelf mismatch m m 1 0.6937 
09-May-2018_14:14:06 Exp 7306 21 male R 1 1 6 immoralOther immoralOther match n n 1 0.7099 
09-May-2018_14:14:09 Exp 7306 21 male R 1 1 7 immoralSelf immoralSelf match n n 1 0.8181 
09-May-2018_14:14:11 Exp 7306 21 male R 1 1 8 moralOther moralOther match n n 1 0.5601 
09-May-2018_14:14:13 Exp 7306 21 male R 1 1 9 moralSelf immoralOther mismatch m m 1 0.7703 
09-May-2018_14:14:16 Exp 7306 21 male R 1 1 10 moralSelf moralSelf match n n 1 0.7864 
09-May-2018_14:14:18 Exp 7306 21 male R 1 1 11 immoralOther immoralOther match n n 1 0.9446 
09-May-2018_14:14:21 Exp 7306 21 male R 1 1 12 immoralOther immoralSelf mismatch m NA -1 1.0850 
09-May-2018_14:14:23 Exp 7306 21 male R 1 1 13 moralOther moralOther match n n 1 0.4969 
09-May-2018_14:14:25 Exp 7306 21 male R 1 1 14 moralOther moralOther match n n 1 0.5929 
09-May-2018_14:14:28 Exp 7306 21 male R 1 1 15 moralSelf moralSelf match n n 1 0.7651 
09-May-2018_14:14:30 Exp 7306 21 male R 1 1 16 immoralSelf moralOther mismatch m m 1 0.6392 
09-May-2018_14:14:32 Exp 7306 21 male R 1 1 17 immoralSelf immoralOther mismatch m n 0 0.9694 
09-May-2018_14:14:35 Exp 7306 21 male R 1 1 18 immoralOther immoralOther match n n 1 0.6895 
09-May-2018_14:14:37 Exp 7306 21 male R 1 1 19 moralSelf immoralOther mismatch m m 1 0.9056 
09-May-2018_14:14:40 Exp 7306 21 male R 1 1 20 moralSelf moralSelf match n n 1 0.9357 
09-May-2018_14:14:42 Exp 7306 21 male R 1 1 21 moralOther moralSelf mismatch m m 1 0.8159 
09-May-2018_14:14:45 Exp 7306 21 male R 1 1 22 immoralOther moralSelf mismatch m m 1 0.8640 
09-May-2018_14:14:47 Exp 7306 21 male R 1 1 23 immoralSelf immoralSelf match n n 1 0.9021 
09-May-2018_14:14:50 Exp 7306 21 male R 1 1 24 immoralSelf immoralOther mismatch m n 0 0.8283 
09-May-2018_14:14:52 Exp 7306 21 male R 1 2 1 moralSelf moralOther mismatch m n 0 1.0244 
09-May-2018_14:14:55 Exp 7306 21 male R 1 2 2 moralOther immoralSelf mismatch m m 1 0.7587 
09-May-2018_14:14:57 Exp 7306 21 male R 1 2 3 immoralSelf immoralSelf match n n 1 0.7767 
09-May-2018_14:15:00 Exp 7306 21 male R 1 2 4 moralSelf moralSelf match n n 1 1.0489 
09-May-2018_14:15:02 Exp 7306 21 male R 1 2 5 immoralSelf moralOther mismatch m m 1 0.9530 
09-May-2018_14:15:05 Exp 7306 21 male R 1 2 6 moralSelf immoralSelf mismatch m m 1 0.8293 
09-May-2018_14:15:07 Exp 7306 21 male R 1 2 7 moralOther moralOther match n n 1 0.5854 
09-May-2018_14:15:10 Exp 7306 21 male R 1 2 8 moralSelf moralSelf match n n 1 0.8395 
09-May-2018_14:15:12 Exp 7306 21 male R 1 2 9 immoralOther immoralOther match n n 1 0.7216 
09-May-2018_14:15:14 Exp 7306 21 male R 1 2 10 immoralSelf immoralOther mismatch m n 0 0.7557 
09-May-2018_14:15:17 Exp 7306 21 male R 1 2 11 immoralOther immoralOther match n n 1 0.6480 
09-May-2018_14:15:19 Exp 7306 21 male R 1 2 12 immoralOther moralSelf mismatch m m 1 0.7121 
09-May-2018_14:15:21 Exp 7306 21 male R 1 2 13 immoralSelf immoralSelf match n n 1 0.8761 
09-May-2018_14:15:24 Exp 7306 21 male R 1 2 14 immoralOther moralOther mismatch m m 1 0.6083 
09-May-2018_14:15:26 Exp 7306 21 male R 1 2 15 moralSelf moralSelf match n n 1 0.6964 
09-May-2018_14:15:28 Exp 7306 21 male R 1 2 16 immoralSelf immoralSelf match n n 1 0.7445 
09-May-2018_14:15:31 Exp 7306 21 male R 1 2 17 moralSelf immoralSelf mismatch m m 1 0.8787 
09-May-2018_14:15:33 Exp 7306 21 male R 1 2 18 moralOther immoralOther mismatch m m 1 0.7608 
09-May-2018_14:15:36 Exp 7306 21 male R 1 2 19 immoralOther immoralSelf mismatch m m 1 0.7069 
09-May-2018_14:15:38 Exp 7306 21 male R 1 2 20 moralOther moralOther match n n 1 0.5851 
09-May-2018_14:15:40 Exp 7306 21 male R 1 2 21 moralOther immoralSelf mismatch m m 1 0.6312 
09-May-2018_14:15:42 Exp 7306 21 male R 1 2 22 moralOther moralOther match n n 1 0.6514 
09-May-2018_14:15:45 Exp 7306 21 male R 1 2 23 immoralSelf moralOther mismatch m m 1 0.7314 
09-May-2018_14:15:47 Exp 7306 21 male R 1 2 24 immoralOther immoralOther match n n 1 0.6276 
Date Prac Sub Age Sex Hand Block Bin Trial Shape Label Match CorrResp Resp ACC RT
09-May-2018_14:20:21 Exp 7306 21 male R 1 1 1 moralOther immoralOther mismatch m m 1 0.7912 
09-May-2018_14:20:24 Exp 7306 21 male R 1 1 2 moralSelf moralSelf match n n 1 0.7313 
09-May-2018_14:20:26 Exp 7306 21 male R 1 1 3 moralOther immoralSelf mismatch m m 1 0.6514 
09-May-2018_14:20:29 Exp 7306 21 male R 1 1 4 immoralOther immoralOther match n n 1 0.8196 
09-May-2018_14:20:31 Exp 7306 21 male R 1 1 5 immoralSelf immoralOther mismatch m m 1 0.5860 
09-May-2018_14:20:33 Exp 7306 21 male R 1 1 6 immoralSelf immoralSelf match n n 1 0.4880 
09-May-2018_14:20:35 Exp 7306 21 male R 1 1 7 immoralOther moralOther mismatch m m 1 0.6879 
09-May-2018_14:20:38 Exp 7306 21 male R 1 1 8 immoralSelf immoralOther mismatch m m 1 0.8321 
09-May-2018_14:20:40 Exp 7306 21 male R 1 1 9 immoralOther immoralOther match n n 1 0.6763 
09-May-2018_14:20:42 Exp 7306 21 male R 1 1 10 moralOther moralOther match n n 1 0.5925 
09-May-2018_14:20:45 Exp 7306 21 male R 1 1 11 immoralSelf immoralOther mismatch m NA -1 1.0850 
09-May-2018_14:20:47 Exp 7306 21 male R 1 1 12 immoralOther moralOther mismatch m m 1 0.6308 
09-May-2018_14:20:50 Exp 7306 21 male R 1 1 13 moralSelf immoralSelf mismatch m m 1 0.9228 
09-May-2018_14:20:52 Exp 7306 21 male R 1 1 14 moralSelf immoralSelf mismatch m n 0 0.8048 
09-May-2018_14:20:55 Exp 7306 21 male R 1 1 15 immoralSelf immoralSelf match n n 1 0.7991 
09-May-2018_14:20:57 Exp 7306 21 male R 1 1 16 moralOther immoralSelf mismatch m m 1 0.6892 
09-May-2018_14:20:59 Exp 7306 21 male R 1 1 17 immoralSelf immoralSelf match n n 1 0.7934 
09-May-2018_14:21:02 Exp 7306 21 male R 1 1 18 immoralOther immoralOther match n m 0 0.8215 
09-May-2018_14:21:04 Exp 7306 21 male R 1 1 19 moralOther moralOther match n n 1 0.5955 
09-May-2018_14:21:06 Exp 7306 21 male R 1 1 20 moralOther moralOther match n n 1 0.6558 
09-May-2018_14:21:09 Exp 7306 21 male R 1 1 21 immoralOther moralOther mismatch m m 1 0.8559 
09-May-2018_14:21:11 Exp 7306 21 male R 1 1 22 moralSelf immoralOther mismatch m m 1 0.8000 
09-May-2018_14:21:14 Exp 7306 21 male R 1 1 23 moralSelf moralSelf match n n 1 0.8503 
09-May-2018_14:21:16 Exp 7306 21 male R 1 1 24 moralSelf moralSelf match n n 1 0.5223 
09-May-2018_14:21:18 Exp 7306 21 male R 1 2 1 moralOther moralSelf mismatch m n 0 0.4684 
09-May-2018_14:21:20 Exp 7306 21 male R 1 2 2 immoralOther immoralOther match n n 1 0.7765 
09-May-2018_14:21:23 Exp 7306 21 male R 1 2 3 moralSelf moralOther mismatch m m 1 0.8487 
09-May-2018_14:21:25 Exp 7306 21 male R 1 2 4 immoralSelf immoralOther mismatch m n 0 0.8808 
09-May-2018_14:21:28 Exp 7306 21 male R 1 2 5 immoralSelf immoralSelf match n n 1 0.6910 
09-May-2018_14:21:30 Exp 7306 21 male R 1 2 6 moralSelf moralOther mismatch m m 1 0.6431 
09-May-2018_14:21:32 Exp 7306 21 male R 1 2 7 immoralOther moralSelf mismatch m m 1 0.8373 
09-May-2018_14:21:35 Exp 7306 21 male R 1 2 8 immoralSelf immoralSelf match n n 1 0.6954 
09-May-2018_14:21:37 Exp 7306 21 male R 1 2 9 moralSelf moralSelf match n n 1 0.7755 
09-May-2018_14:21:40 Exp 7306 21 male R 1 2 10 moralSelf immoralSelf mismatch m m 1 0.9036 
09-May-2018_14:21:42 Exp 7306 21 male R 1 2 11 immoralOther immoralOther match n n 1 0.9018 
09-May-2018_14:21:44 Exp 7306 21 male R 1 2 12 immoralSelf moralOther mismatch m m 1 0.7000 
09-May-2018_14:21:47 Exp 7306 21 male R 1 2 13 moralOther moralOther match n n 1 0.5702 
09-May-2018_14:21:49 Exp 7306 21 male R 1 2 14 immoralOther immoralOther match n n 1 0.7302 
09-May-2018_14:21:51 Exp 7306 21 male R 1 2 15 moralOther moralOther match n n 1 0.5383 
09-May-2018_14:21:54 Exp 7306 21 male R 1 2 16 immoralSelf moralOther mismatch m m 1 0.8084 
09-May-2018_14:21:56 Exp 7306 21 male R 1 2 17 moralSelf moralSelf match n n 1 0.6726 
09-May-2018_14:21:58 Exp 7306 21 male R 1 2 18 moralOther moralSelf mismatch m n 0 0.7967 
09-May-2018_14:22:01 Exp 7306 21 male R 1 2 19 immoralOther moralSelf mismatch m m 1 0.7209 
09-May-2018_14:22:03 Exp 7306 21 male R 1 2 20 immoralSelf immoralSelf match n n 1 0.7470 
09-May-2018_14:22:05 Exp 7306 21 male R 1 2 21 moralOther immoralSelf mismatch m m 1 0.6571 
09-May-2018_14:22:08 Exp 7306 21 male R 1 2 22 immoralOther moralOther mismatch m m 1 0.6172 
09-May-2018_14:22:10 Exp 7306 21 male R 1 2 23 moralSelf moralSelf match n n 1 0.7514 
09-May-2018_14:22:12 Exp 7306 21 male R 1 2 24 moralOther moralOther match n n 1 0.6915 
Date Prac Sub Age Sex Hand Block Bin Trial Shape Label Match CorrResp Resp ACC RT
09-May-2018_14:27:01 Exp 7306 21 male R 1 1 1 immoralSelf immoralSelf match n m 0 0.7499 
09-May-2018_14:27:03 Exp 7306 21 male R 1 1 2 immoralOther moralSelf mismatch m m 1 0.6501 
09-May-2018_14:27:06 Exp 7306 21 male R 1 1 3 immoralOther moralOther mismatch m m 1 0.6182 
09-May-2018_14:27:08 Exp 7306 21 male R 1 1 4 immoralOther moralOther mismatch m m 1 0.6484 
09-May-2018_14:27:10 Exp 7306 21 male R 1 1 5 moralOther moralSelf mismatch m n 0 0.4805 
09-May-2018_14:27:12 Exp 7306 21 male R 1 1 6 immoralOther immoralOther match n n 1 0.7865 
09-May-2018_14:27:15 Exp 7306 21 male R 1 1 7 moralOther immoralSelf mismatch m m 1 0.7609 
09-May-2018_14:27:17 Exp 7306 21 male R 1 1 8 moralSelf moralSelf match n n 1 0.7869 
09-May-2018_14:27:20 Exp 7306 21 male R 1 1 9 immoralOther immoralOther match n n 1 0.6330 
09-May-2018_14:27:22 Exp 7306 21 male R 1 1 10 immoralSelf immoralSelf match n n 1 0.6851 
09-May-2018_14:27:24 Exp 7306 21 male R 1 1 11 moralSelf immoralSelf mismatch m m 1 0.8392 
09-May-2018_14:27:27 Exp 7306 21 male R 1 1 12 immoralSelf moralSelf mismatch m m 1 1.0174 
09-May-2018_14:27:29 Exp 7306 21 male R 1 1 13 immoralSelf immoralOther mismatch m n 0 0.8555 
09-May-2018_14:27:32 Exp 7306 21 male R 1 1 14 immoralSelf immoralSelf match n n 1 0.8637 
09-May-2018_14:27:34 Exp 7306 21 male R 1 1 15 moralSelf immoralSelf mismatch m m 1 0.6538 
09-May-2018_14:27:36 Exp 7306 21 male R 1 1 16 moralOther immoralOther mismatch m m 1 0.6140 
09-May-2018_14:27:39 Exp 7306 21 male R 1 1 17 immoralSelf immoralOther mismatch m m 1 0.9021 
09-May-2018_14:27:41 Exp 7306 21 male R 1 1 18 moralSelf moralSelf match n n 1 0.7003 
09-May-2018_14:27:44 Exp 7306 21 male R 1 1 19 immoralOther immoralOther match n n 1 0.6824 
09-May-2018_14:27:46 Exp 7306 21 male R 1 1 20 moralOther moralOther match n n 1 0.5965 
09-May-2018_14:27:48 Exp 7306 21 male R 1 1 21 moralOther moralOther match n m 0 0.6326 
09-May-2018_14:27:50 Exp 7306 21 male R 1 1 22 moralSelf moralSelf match n n 1 0.7007 
09-May-2018_14:27:53 Exp 7306 21 male R 1 1 23 moralSelf immoralSelf mismatch m m 1 0.7308 
09-May-2018_14:27:55 Exp 7306 21 male R 1 1 24 moralOther moralOther match n n 1 0.5310 
09-May-2018_14:27:57 Exp 7306 21 male R 1 2 1 moralOther moralOther match n n 1 0.5231 
09-May-2018_14:27:59 Exp 7306 21 male R 1 2 2 moralSelf immoralOther mismatch m m 1 0.7173 
09-May-2018_14:28:02 Exp 7306 21 male R 1 2 3 immoralSelf immoralSelf match n n 1 0.7113 
09-May-2018_14:28:04 Exp 7306 21 male R 1 2 4 moralOther moralOther match n n 1 0.4915 
09-May-2018_14:28:06 Exp 7306 21 male R 1 2 5 moralOther immoralSelf mismatch m m 1 0.7076 
09-May-2018_14:28:09 Exp 7306 21 male R 1 2 6 immoralOther immoralOther match n n 1 0.7918 
09-May-2018_14:28:11 Exp 7306 21 male R 1 2 7 immoralOther immoralSelf mismatch m NA -1 1.0850 
09-May-2018_14:28:14 Exp 7306 21 male R 1 2 8 immoralSelf immoralSelf match n n 1 0.5980 
09-May-2018_14:28:16 Exp 7306 21 male R 1 2 9 immoralSelf moralOther mismatch m m 1 0.6242 
09-May-2018_14:28:19 Exp 7306 21 male R 1 2 10 immoralSelf immoralOther mismatch m n 0 1.0304 
09-May-2018_14:28:21 Exp 7306 21 male R 1 2 11 moralSelf immoralSelf mismatch m m 1 0.8745 
09-May-2018_14:28:23 Exp 7306 21 male R 1 2 12 moralSelf moralSelf match n m 0 0.6946 
09-May-2018_14:28:25 Exp 7306 21 male R 1 2 13 moralSelf moralSelf match n n 1 0.5187 
09-May-2018_14:28:28 Exp 7306 21 male R 1 2 14 immoralOther immoralSelf mismatch m m 1 0.8009 
09-May-2018_14:28:30 Exp 7306 21 male R 1 2 15 immoralOther immoralOther match n n 1 0.8191 
09-May-2018_14:28:33 Exp 7306 21 male R 1 2 16 immoralOther immoralOther match n n 1 0.8172 
09-May-2018_14:28:35 Exp 7306 21 male R 1 2 17 moralSelf moralOther mismatch m n 0 0.6313 
09-May-2018_14:28:38 Exp 7306 21 male R 1 2 18 immoralSelf immoralSelf match n n 1 0.8514 
09-May-2018_14:28:40 Exp 7306 21 male R 1 2 19 moralOther moralOther match n n 1 0.5397 
09-May-2018_14:28:42 Exp 7306 21 male R 1 2 20 moralOther moralSelf mismatch m m 1 0.8257 
09-May-2018_14:28:45 Exp 7306 21 male R 1 2 21 immoralOther immoralSelf mismatch m m 1 0.9278 
09-May-2018_14:28:47 Exp 7306 21 male R 1 2 22 moralOther immoralOther mismatch m m 1 0.7840 
09-May-2018_14:28:49 Exp 7306 21 male R 1 2 23 moralSelf moralSelf match n n 1 0.6302 
09-May-2018_14:28:52 Exp 7306 21 male R 1 2 24 immoralSelf moralSelf mismatch m m 1 0.6902 
