Date Prac Sub Age Sex Hand Block Bin Trial Shape Label Match CorrResp Resp ACC RT
06-May-2018_14:45:38 Exp 7304 25 female R 1 1 1 immoralOther immoralSelf mismatch m n 0 0.7247 
06-May-2018_14:45:40 Exp 7304 25 female R 1 1 2 immoralSelf moralSelf mismatch m m 1 0.8786 
06-May-2018_14:45:42 Exp 7304 25 female R 1 1 3 moralOther moralOther match n n 1 0.8167 
06-May-2018_14:45:44 Exp 7304 25 female R 1 1 4 immoralOther immoralOther match n m 0 0.8728 
06-May-2018_14:45:46 Exp 7304 25 female R 1 1 5 moralOther moralSelf mismatch m n 0 0.6849 
06-May-2018_14:45:49 Exp 7304 25 female R 1 1 6 immoralSelf moralSelf mismatch m n 0 0.6951 
06-May-2018_14:45:50 Exp 7304 25 female R 1 1 7 moralSelf moralSelf match n n 1 0.4951 
06-May-2018_14:45:53 Exp 7304 25 female R 1 1 8 immoralOther immoralOther match n m 0 0.8713 
06-May-2018_14:45:55 Exp 7304 25 female R 1 1 9 moralSelf moralSelf match n n 1 0.5954 
06-May-2018_14:45:57 Exp 7304 25 female R 1 1 10 immoralOther immoralOther match n n 1 0.6875 
06-May-2018_14:45:59 Exp 7304 25 female R 1 1 11 moralSelf immoralSelf mismatch m m 1 0.6796 
06-May-2018_14:46:01 Exp 7304 25 female R 1 1 12 moralOther immoralSelf mismatch m n 0 0.8177 
06-May-2018_14:46:03 Exp 7304 25 female R 1 1 13 immoralSelf immoralSelf match n m 0 0.7439 
06-May-2018_14:46:05 Exp 7304 25 female R 1 1 14 moralSelf immoralSelf mismatch m n 0 0.3500 
06-May-2018_14:46:07 Exp 7304 25 female R 1 1 15 immoralSelf immoralOther mismatch m NA -1 1.0330 
06-May-2018_14:46:09 Exp 7304 25 female R 1 1 16 immoralOther moralSelf mismatch m n 0 0.7582 
06-May-2018_14:46:11 Exp 7304 25 female R 1 1 17 moralSelf immoralOther mismatch m m 1 0.7363 
06-May-2018_14:46:14 Exp 7304 25 female R 1 1 18 immoralOther moralOther mismatch m NA -1 1.0330 
06-May-2018_14:46:16 Exp 7304 25 female R 1 1 19 immoralSelf immoralSelf match n m 0 0.8926 
06-May-2018_14:46:18 Exp 7304 25 female R 1 1 20 moralOther moralOther match n m 0 0.8527 
06-May-2018_14:46:20 Exp 7304 25 female R 1 1 21 moralOther immoralOther mismatch m n 0 0.6848 
06-May-2018_14:46:22 Exp 7304 25 female R 1 1 22 immoralSelf immoralSelf match n m 0 0.4070 
06-May-2018_14:46:23 Exp 7304 25 female R 1 1 23 moralSelf moralSelf match n n 1 0.3611 
06-May-2018_14:46:26 Exp 7304 25 female R 1 1 24 moralOther moralOther match n n 1 0.9631 
06-May-2018_14:46:28 Exp 7304 25 female R 1 2 1 immoralOther immoralOther match n m 0 0.7173 
06-May-2018_14:46:30 Exp 7304 25 female R 1 2 2 immoralSelf immoralOther mismatch m m 1 0.7514 
06-May-2018_14:46:32 Exp 7304 25 female R 1 2 3 moralOther immoralSelf mismatch m m 1 0.9234 
06-May-2018_14:46:34 Exp 7304 25 female R 1 2 4 moralOther immoralOther mismatch m m 1 0.5976 
06-May-2018_14:46:36 Exp 7304 25 female R 1 2 5 immoralSelf moralSelf mismatch m m 1 0.7138 
06-May-2018_14:46:38 Exp 7304 25 female R 1 2 6 immoralSelf immoralSelf match n n 1 0.7979 
06-May-2018_14:46:40 Exp 7304 25 female R 1 2 7 moralSelf moralOther mismatch m n 0 0.4800 
06-May-2018_14:46:42 Exp 7304 25 female R 1 2 8 immoralOther moralSelf mismatch m m 1 0.6661 
06-May-2018_14:46:44 Exp 7304 25 female R 1 2 9 moralSelf moralSelf match n n 1 0.6882 
06-May-2018_14:46:46 Exp 7304 25 female R 1 2 10 moralOther moralOther match n m 0 0.6884 
06-May-2018_14:46:48 Exp 7304 25 female R 1 2 11 immoralOther immoralOther match n n 1 0.8164 
06-May-2018_14:46:50 Exp 7304 25 female R 1 2 12 immoralSelf moralSelf mismatch m m 1 0.6246 
06-May-2018_14:46:53 Exp 7304 25 female R 1 2 13 immoralOther moralOther mismatch m m 1 0.8146 
06-May-2018_14:46:55 Exp 7304 25 female R 1 2 14 moralOther moralOther match n n 1 0.6148 
06-May-2018_14:46:56 Exp 7304 25 female R 1 2 15 immoralSelf immoralSelf match n n 1 0.6229 
06-May-2018_14:46:58 Exp 7304 25 female R 1 2 16 moralSelf immoralOther mismatch m m 1 0.5970 
06-May-2018_14:47:01 Exp 7304 25 female R 1 2 17 immoralOther moralOther mismatch m n 0 0.7612 
06-May-2018_14:47:02 Exp 7304 25 female R 1 2 18 immoralOther immoralOther match n m 0 0.6112 
06-May-2018_14:47:05 Exp 7304 25 female R 1 2 19 moralSelf immoralSelf mismatch m m 1 0.7074 
06-May-2018_14:47:06 Exp 7304 25 female R 1 2 20 moralSelf moralSelf match n n 1 0.5754 
06-May-2018_14:47:09 Exp 7304 25 female R 1 2 21 moralOther immoralOther mismatch m m 1 0.9195 
06-May-2018_14:47:11 Exp 7304 25 female R 1 2 22 immoralSelf immoralSelf match n n 1 0.6337 
06-May-2018_14:47:13 Exp 7304 25 female R 1 2 23 moralSelf moralSelf match n n 1 0.7498 
06-May-2018_14:47:15 Exp 7304 25 female R 1 2 24 moralOther moralOther match n n 1 0.6819 
06-May-2018_14:47:17 Exp 7304 25 female R 1 3 1 moralSelf moralOther mismatch m n 0 0.4120 
06-May-2018_14:47:19 Exp 7304 25 female R 1 3 2 immoralOther immoralOther match n m 0 0.6201 
06-May-2018_14:47:21 Exp 7304 25 female R 1 3 3 immoralSelf immoralSelf match n n 1 0.7542 
06-May-2018_14:47:23 Exp 7304 25 female R 1 3 4 immoralOther moralOther mismatch m n 0 0.7904 
06-May-2018_14:47:25 Exp 7304 25 female R 1 3 5 moralOther moralOther match n n 1 0.6825 
06-May-2018_14:47:27 Exp 7304 25 female R 1 3 6 moralSelf immoralSelf mismatch m m 1 0.5885 
06-May-2018_14:47:29 Exp 7304 25 female R 1 3 7 moralOther immoralSelf mismatch m n 0 0.7607 
06-May-2018_14:47:31 Exp 7304 25 female R 1 3 8 immoralSelf immoralSelf match n n 1 0.6188 
06-May-2018_14:47:33 Exp 7304 25 female R 1 3 9 immoralSelf moralOther mismatch m n 0 0.9849 
06-May-2018_14:47:36 Exp 7304 25 female R 1 3 10 immoralOther immoralOther match n n 1 0.9591 
06-May-2018_14:47:38 Exp 7304 25 female R 1 3 11 moralOther moralOther match n m 0 0.8971 
06-May-2018_14:47:40 Exp 7304 25 female R 1 3 12 immoralSelf immoralSelf match n n 1 0.7594 
06-May-2018_14:47:42 Exp 7304 25 female R 1 3 13 immoralOther moralSelf mismatch m m 1 0.7855 
06-May-2018_14:47:44 Exp 7304 25 female R 1 3 14 moralSelf moralSelf match n n 1 0.5276 
06-May-2018_14:47:46 Exp 7304 25 female R 1 3 15 moralOther immoralSelf mismatch m n 0 0.8717 
06-May-2018_14:47:48 Exp 7304 25 female R 1 3 16 moralSelf moralSelf match n n 1 0.4998 
06-May-2018_14:47:50 Exp 7304 25 female R 1 3 17 moralSelf immoralOther mismatch m m 1 0.8979 
06-May-2018_14:47:52 Exp 7304 25 female R 1 3 18 immoralSelf immoralOther mismatch m n 0 0.8000 
06-May-2018_14:47:54 Exp 7304 25 female R 1 3 19 moralSelf moralSelf match n n 1 0.5782 
06-May-2018_14:47:56 Exp 7304 25 female R 1 3 20 immoralSelf moralSelf mismatch m m 1 0.7762 
06-May-2018_14:47:59 Exp 7304 25 female R 1 3 21 immoralOther moralOther mismatch m n 0 0.7924 
06-May-2018_14:48:00 Exp 7304 25 female R 1 3 22 moralOther moralSelf mismatch m n 0 0.5726 
06-May-2018_14:48:03 Exp 7304 25 female R 1 3 23 immoralOther immoralOther match n n 1 0.8526 
06-May-2018_14:48:05 Exp 7304 25 female R 1 3 24 moralOther moralOther match n m 0 0.6608 
06-May-2018_14:48:22 Exp 7304 25 female R 1 4 1 immoralSelf moralSelf mismatch m m 1 0.8517 
06-May-2018_14:48:24 Exp 7304 25 female R 1 4 2 immoralOther immoralOther match n n 1 0.7318 
06-May-2018_14:48:26 Exp 7304 25 female R 1 4 3 moralOther immoralOther mismatch m m 1 0.7239 
06-May-2018_14:48:28 Exp 7304 25 female R 1 4 4 moralSelf moralSelf match n n 1 0.5501 
06-May-2018_14:48:31 Exp 7304 25 female R 1 4 5 immoralSelf immoralSelf match n n 1 0.9543 
06-May-2018_14:48:33 Exp 7304 25 female R 1 4 6 immoralOther immoralOther match n n 1 0.9184 
06-May-2018_14:48:35 Exp 7304 25 female R 1 4 7 moralOther moralOther match n n 1 0.7604 
06-May-2018_14:48:37 Exp 7304 25 female R 1 4 8 moralOther immoralSelf mismatch m m 1 0.6986 
06-May-2018_14:48:39 Exp 7304 25 female R 1 4 9 moralSelf immoralSelf mismatch m m 1 0.7847 
06-May-2018_14:48:41 Exp 7304 25 female R 1 4 10 moralOther moralSelf mismatch m n 0 0.5588 
06-May-2018_14:48:43 Exp 7304 25 female R 1 4 11 immoralSelf immoralOther mismatch m m 1 0.7849 
06-May-2018_14:48:45 Exp 7304 25 female R 1 4 12 moralSelf moralOther mismatch m n 0 0.6310 
06-May-2018_14:48:47 Exp 7304 25 female R 1 4 13 immoralSelf moralSelf mismatch m m 1 0.8032 
06-May-2018_14:48:50 Exp 7304 25 female R 1 4 14 moralOther moralOther match n n 1 0.8693 
06-May-2018_14:48:52 Exp 7304 25 female R 1 4 15 moralSelf moralSelf match n n 1 0.6174 
06-May-2018_14:48:54 Exp 7304 25 female R 1 4 16 immoralOther immoralOther match n n 1 0.8956 
06-May-2018_14:48:56 Exp 7304 25 female R 1 4 17 immoralSelf immoralSelf match n n 1 0.6877 
06-May-2018_14:48:58 Exp 7304 25 female R 1 4 18 immoralSelf immoralSelf match n m 0 0.5997 
06-May-2018_14:49:00 Exp 7304 25 female R 1 4 19 moralSelf moralSelf match n n 1 0.5780 
06-May-2018_14:49:02 Exp 7304 25 female R 1 4 20 immoralOther moralSelf mismatch m m 1 0.8400 
06-May-2018_14:49:04 Exp 7304 25 female R 1 4 21 immoralOther moralOther mismatch m n 0 0.6981 
06-May-2018_14:49:06 Exp 7304 25 female R 1 4 22 immoralOther moralOther mismatch m m 1 0.7442 
06-May-2018_14:49:08 Exp 7304 25 female R 1 4 23 moralSelf moralOther mismatch m m 1 0.8383 
06-May-2018_14:49:11 Exp 7304 25 female R 1 4 24 moralOther moralOther match n n 1 0.8884 
06-May-2018_14:49:13 Exp 7304 25 female R 1 5 1 moralOther moralSelf mismatch m m 1 0.7686 
06-May-2018_14:49:15 Exp 7304 25 female R 1 5 2 immoralOther immoralSelf mismatch m NA -1 1.0330 
06-May-2018_14:49:17 Exp 7304 25 female R 1 5 3 immoralOther moralSelf mismatch m n 0 0.6928 
06-May-2018_14:49:19 Exp 7304 25 female R 1 5 4 moralOther immoralSelf mismatch m n 0 0.8450 
06-May-2018_14:49:22 Exp 7304 25 female R 1 5 5 immoralSelf immoralOther mismatch m m 1 0.9511 
06-May-2018_14:49:24 Exp 7304 25 female R 1 5 6 moralOther moralOther match n m 0 0.7312 
06-May-2018_14:49:26 Exp 7304 25 female R 1 5 7 moralSelf moralSelf match n n 1 0.5393 
06-May-2018_14:49:28 Exp 7304 25 female R 1 5 8 immoralSelf immoralSelf match n m 0 0.7455 
06-May-2018_14:49:30 Exp 7304 25 female R 1 5 9 moralOther moralOther match n n 1 0.7196 
06-May-2018_14:49:32 Exp 7304 25 female R 1 5 10 moralSelf immoralOther mismatch m m 1 0.7936 
06-May-2018_14:49:34 Exp 7304 25 female R 1 5 11 immoralSelf immoralOther mismatch m n 0 0.9178 
06-May-2018_14:49:36 Exp 7304 25 female R 1 5 12 moralSelf moralSelf match n n 1 0.5279 
06-May-2018_14:49:38 Exp 7304 25 female R 1 5 13 moralOther moralOther match n n 1 0.9600 
06-May-2018_14:49:40 Exp 7304 25 female R 1 5 14 immoralSelf immoralSelf match n n 1 0.6501 
06-May-2018_14:49:42 Exp 7304 25 female R 1 5 15 moralOther immoralSelf mismatch m m 1 0.6902 
06-May-2018_14:49:44 Exp 7304 25 female R 1 5 16 immoralOther immoralOther match n n 1 0.6664 
06-May-2018_14:49:47 Exp 7304 25 female R 1 5 17 moralSelf moralOther mismatch m m 1 0.9445 
06-May-2018_14:49:49 Exp 7304 25 female R 1 5 18 immoralSelf moralOther mismatch m m 1 0.7826 
06-May-2018_14:49:51 Exp 7304 25 female R 1 5 19 immoralOther immoralOther match n n 1 0.8048 
06-May-2018_14:49:53 Exp 7304 25 female R 1 5 20 moralSelf moralSelf match n n 1 0.6228 
06-May-2018_14:49:55 Exp 7304 25 female R 1 5 21 immoralOther immoralOther match n m 0 0.5650 
06-May-2018_14:49:57 Exp 7304 25 female R 1 5 22 immoralSelf immoralSelf match n m 0 0.6791 
06-May-2018_14:49:59 Exp 7304 25 female R 1 5 23 moralSelf immoralOther mismatch m m 1 0.8492 
06-May-2018_14:50:01 Exp 7304 25 female R 1 5 24 immoralOther immoralSelf mismatch m n 0 0.9694 
06-May-2018_14:50:07 Exp 7304 25 female R 2 1 1 moralOther moralOther match n n 1 0.8856 
06-May-2018_14:50:09 Exp 7304 25 female R 2 1 2 moralSelf immoralOther mismatch m m 1 0.6958 
06-May-2018_14:50:11 Exp 7304 25 female R 2 1 3 moralOther immoralOther mismatch m n 0 0.5759 
06-May-2018_14:50:12 Exp 7304 25 female R 2 1 4 moralSelf moralSelf match n n 1 0.4960 
06-May-2018_14:50:15 Exp 7304 25 female R 2 1 5 moralOther moralOther match n n 1 0.8721 
06-May-2018_14:50:17 Exp 7304 25 female R 2 1 6 moralSelf moralOther mismatch m m 1 0.6682 
06-May-2018_14:50:19 Exp 7304 25 female R 2 1 7 moralOther immoralOther mismatch m n 0 0.6563 
06-May-2018_14:50:21 Exp 7304 25 female R 2 1 8 immoralSelf immoralOther mismatch m n 0 0.6884 
06-May-2018_14:50:23 Exp 7304 25 female R 2 1 9 moralSelf moralSelf match n n 1 0.5605 
06-May-2018_14:50:25 Exp 7304 25 female R 2 1 10 immoralOther moralOther mismatch m n 0 0.7867 
06-May-2018_14:50:27 Exp 7304 25 female R 2 1 11 immoralSelf moralOther mismatch m m 1 0.7768 
06-May-2018_14:50:29 Exp 7304 25 female R 2 1 12 immoralSelf immoralOther mismatch m m 1 0.7689 
06-May-2018_14:50:31 Exp 7304 25 female R 2 1 13 moralOther moralOther match n n 1 0.7211 
06-May-2018_14:50:33 Exp 7304 25 female R 2 1 14 immoralSelf immoralSelf match n n 1 0.7231 
06-May-2018_14:50:35 Exp 7304 25 female R 2 1 15 immoralOther moralOther mismatch m NA -1 1.0330 
06-May-2018_14:50:38 Exp 7304 25 female R 2 1 16 immoralOther immoralOther match n n 1 0.7774 
06-May-2018_14:50:40 Exp 7304 25 female R 2 1 17 immoralOther immoralOther match n n 1 0.7995 
06-May-2018_14:50:42 Exp 7304 25 female R 2 1 18 moralSelf moralOther mismatch m m 1 0.6896 
06-May-2018_14:50:44 Exp 7304 25 female R 2 1 19 immoralSelf immoralSelf match n n 1 0.6257 
06-May-2018_14:50:46 Exp 7304 25 female R 2 1 20 moralSelf moralSelf match n n 1 0.6799 
06-May-2018_14:50:48 Exp 7304 25 female R 2 1 21 immoralOther immoralOther match n n 1 0.8740 
06-May-2018_14:50:50 Exp 7304 25 female R 2 1 22 moralOther immoralOther mismatch m m 1 0.7181 
06-May-2018_14:50:52 Exp 7304 25 female R 2 1 23 immoralSelf immoralSelf match n n 1 0.7442 
06-May-2018_14:50:54 Exp 7304 25 female R 2 1 24 immoralOther immoralSelf mismatch m m 1 0.8463 
06-May-2018_14:50:57 Exp 7304 25 female R 2 2 1 moralSelf immoralOther mismatch m m 1 0.8724 
06-May-2018_14:50:59 Exp 7304 25 female R 2 2 2 immoralOther moralOther mismatch m m 1 0.8446 
06-May-2018_14:51:01 Exp 7304 25 female R 2 2 3 immoralSelf immoralSelf match n n 1 0.7347 
06-May-2018_14:51:03 Exp 7304 25 female R 2 2 4 moralOther immoralSelf mismatch m m 1 0.7668 
06-May-2018_14:51:05 Exp 7304 25 female R 2 2 5 moralOther moralOther match n m 0 0.8809 
06-May-2018_14:51:07 Exp 7304 25 female R 2 2 6 immoralSelf immoralSelf match n n 1 0.8110 
06-May-2018_14:51:09 Exp 7304 25 female R 2 2 7 immoralOther moralOther mismatch m m 1 0.7392 
06-May-2018_14:51:12 Exp 7304 25 female R 2 2 8 immoralOther immoralOther match n n 1 0.8333 
06-May-2018_14:51:14 Exp 7304 25 female R 2 2 9 immoralOther moralSelf mismatch m m 1 0.8374 
06-May-2018_14:51:16 Exp 7304 25 female R 2 2 10 moralOther moralOther match n n 1 0.8155 
06-May-2018_14:51:18 Exp 7304 25 female R 2 2 11 moralSelf moralSelf match n n 1 0.6557 
06-May-2018_14:51:20 Exp 7304 25 female R 2 2 12 moralSelf moralSelf match n n 1 0.6158 
06-May-2018_14:51:22 Exp 7304 25 female R 2 2 13 immoralSelf moralOther mismatch m m 1 0.7119 
06-May-2018_14:51:24 Exp 7304 25 female R 2 2 14 moralOther immoralOther mismatch m m 1 0.7561 
06-May-2018_14:51:26 Exp 7304 25 female R 2 2 15 immoralOther immoralOther match n n 1 0.8241 
06-May-2018_14:51:28 Exp 7304 25 female R 2 2 16 moralOther immoralSelf mismatch m m 1 0.7103 
06-May-2018_14:51:30 Exp 7304 25 female R 2 2 17 immoralSelf immoralOther mismatch m n 0 0.7544 
06-May-2018_14:51:32 Exp 7304 25 female R 2 2 18 moralSelf immoralOther mismatch m m 1 0.7186 
06-May-2018_14:51:35 Exp 7304 25 female R 2 2 19 moralSelf moralOther mismatch m m 1 0.8006 
06-May-2018_14:51:37 Exp 7304 25 female R 2 2 20 immoralOther immoralOther match n m 0 0.8508 
06-May-2018_14:51:39 Exp 7304 25 female R 2 2 21 immoralSelf immoralSelf match n NA -1 1.0330 
06-May-2018_14:51:41 Exp 7304 25 female R 2 2 22 immoralSelf immoralOther mismatch m m 1 0.6311 
06-May-2018_14:51:43 Exp 7304 25 female R 2 2 23 moralSelf moralSelf match n n 1 0.6112 
06-May-2018_14:51:45 Exp 7304 25 female R 2 2 24 moralOther moralOther match n n 1 0.8992 
06-May-2018_14:51:47 Exp 7304 25 female R 2 3 1 moralSelf immoralSelf mismatch m n 0 0.5694 
06-May-2018_14:51:49 Exp 7304 25 female R 2 3 2 moralSelf moralSelf match n n 1 0.5295 
06-May-2018_14:51:51 Exp 7304 25 female R 2 3 3 moralOther immoralSelf mismatch m n 0 0.6576 
06-May-2018_14:51:53 Exp 7304 25 female R 2 3 4 immoralOther immoralOther match n n 1 0.7997 
06-May-2018_14:51:56 Exp 7304 25 female R 2 3 5 immoralOther immoralSelf mismatch m m 1 0.8738 
06-May-2018_14:51:58 Exp 7304 25 female R 2 3 6 moralSelf immoralOther mismatch m n 0 0.6219 
06-May-2018_14:52:00 Exp 7304 25 female R 2 3 7 immoralOther immoralOther match n NA -1 1.0330 
06-May-2018_14:52:02 Exp 7304 25 female R 2 3 8 immoralSelf immoralSelf match n n 1 0.6163 
06-May-2018_14:52:04 Exp 7304 25 female R 2 3 9 moralOther moralSelf mismatch m n 0 0.4003 
06-May-2018_14:52:06 Exp 7304 25 female R 2 3 10 immoralSelf moralSelf mismatch m n 0 0.5944 
06-May-2018_14:52:07 Exp 7304 25 female R 2 3 11 moralSelf moralSelf match n n 1 0.3586 
06-May-2018_14:52:09 Exp 7304 25 female R 2 3 12 moralSelf immoralOther mismatch m n 0 0.3286 
06-May-2018_14:52:11 Exp 7304 25 female R 2 3 13 moralOther moralOther match n NA -1 1.0329 
06-May-2018_14:52:13 Exp 7304 25 female R 2 3 14 moralOther moralSelf mismatch m n 0 0.5888 
06-May-2018_14:52:15 Exp 7304 25 female R 2 3 15 immoralSelf immoralSelf match n n 1 0.6489 
06-May-2018_14:52:17 Exp 7304 25 female R 2 3 16 moralOther moralOther match n n 1 0.6251 
06-May-2018_14:52:19 Exp 7304 25 female R 2 3 17 immoralOther immoralOther match n m 0 0.5591 
06-May-2018_14:52:21 Exp 7304 25 female R 2 3 18 immoralSelf immoralSelf match n n 1 0.5533 
06-May-2018_14:52:23 Exp 7304 25 female R 2 3 19 immoralOther moralSelf mismatch m m 1 0.5894 
06-May-2018_14:52:25 Exp 7304 25 female R 2 3 20 moralOther moralOther match n n 1 0.5535 
06-May-2018_14:52:27 Exp 7304 25 female R 2 3 21 immoralSelf moralOther mismatch m m 1 0.6856 
06-May-2018_14:52:29 Exp 7304 25 female R 2 3 22 moralSelf moralSelf match n n 1 0.3437 
06-May-2018_14:52:30 Exp 7304 25 female R 2 3 23 immoralSelf moralOther mismatch m n 0 0.3338 
06-May-2018_14:52:32 Exp 7304 25 female R 2 3 24 immoralOther immoralSelf mismatch m m 1 0.3979 
06-May-2018_14:52:41 Exp 7304 25 female R 2 4 1 moralSelf moralSelf match n n 1 0.6184 
06-May-2018_14:52:43 Exp 7304 25 female R 2 4 2 moralOther moralSelf mismatch m m 1 0.7045 
06-May-2018_14:52:45 Exp 7304 25 female R 2 4 3 immoralOther immoralOther match n n 1 0.8546 
06-May-2018_14:52:47 Exp 7304 25 female R 2 4 4 moralOther moralOther match n m 0 0.8307 
06-May-2018_14:52:49 Exp 7304 25 female R 2 4 5 immoralOther immoralOther match n n 1 0.8988 
06-May-2018_14:52:51 Exp 7304 25 female R 2 4 6 moralOther moralOther match n n 1 0.6729 
06-May-2018_14:52:54 Exp 7304 25 female R 2 4 7 immoralOther immoralSelf mismatch m NA -1 1.0330 
06-May-2018_14:52:55 Exp 7304 25 female R 2 4 8 immoralSelf immoralSelf match n n 1 0.3612 
06-May-2018_14:52:57 Exp 7304 25 female R 2 4 9 moralSelf immoralSelf mismatch m n 0 0.4673 
06-May-2018_14:53:00 Exp 7304 25 female R 2 4 10 immoralOther moralOther mismatch m NA -1 1.0330 
06-May-2018_14:53:01 Exp 7304 25 female R 2 4 11 moralSelf moralSelf match n n 1 0.3876 
06-May-2018_14:53:03 Exp 7304 25 female R 2 4 12 immoralSelf immoralOther mismatch m m 1 0.5037 
06-May-2018_14:53:05 Exp 7304 25 female R 2 4 13 immoralOther moralSelf mismatch m n 0 0.6138 
06-May-2018_14:53:07 Exp 7304 25 female R 2 4 14 immoralOther immoralOther match n m 0 0.3661 
06-May-2018_14:53:09 Exp 7304 25 female R 2 4 15 immoralSelf immoralSelf match n m 0 0.8239 
06-May-2018_14:53:11 Exp 7304 25 female R 2 4 16 immoralSelf immoralSelf match n n 1 0.6541 
06-May-2018_14:53:13 Exp 7304 25 female R 2 4 17 moralSelf moralSelf match n n 1 0.4462 
06-May-2018_14:53:15 Exp 7304 25 female R 2 4 18 moralOther moralOther match n n 1 0.8163 
06-May-2018_14:53:17 Exp 7304 25 female R 2 4 19 moralSelf immoralSelf mismatch m n 0 0.3604 
06-May-2018_14:53:18 Exp 7304 25 female R 2 4 20 moralOther immoralOther mismatch m n 0 0.2985 
06-May-2018_14:53:20 Exp 7304 25 female R 2 4 21 moralOther immoralSelf mismatch m n 0 0.5847 
06-May-2018_14:53:22 Exp 7304 25 female R 2 4 22 moralSelf moralOther mismatch m n 0 0.4547 
06-May-2018_14:53:24 Exp 7304 25 female R 2 4 23 immoralSelf moralSelf mismatch m n 0 0.6468 
06-May-2018_14:53:26 Exp 7304 25 female R 2 4 24 immoralSelf immoralOther mismatch m m 1 0.8569 
06-May-2018_14:53:28 Exp 7304 25 female R 2 5 1 moralSelf moralOther mismatch m n 0 0.5531 
06-May-2018_14:53:30 Exp 7304 25 female R 2 5 2 immoralSelf immoralOther mismatch m m 1 0.3892 
06-May-2018_14:53:32 Exp 7304 25 female R 2 5 3 moralSelf moralSelf match n m 0 0.7853 
06-May-2018_14:53:34 Exp 7304 25 female R 2 5 4 moralOther immoralOther mismatch m n 0 0.7354 
06-May-2018_14:53:36 Exp 7304 25 female R 2 5 5 moralSelf moralOther mismatch m n 0 0.2396 
06-May-2018_14:53:37 Exp 7304 25 female R 2 5 6 moralOther moralOther match n m 0 0.2336 
06-May-2018_14:53:39 Exp 7304 25 female R 2 5 7 moralOther immoralSelf mismatch m n 0 0.1657 
06-May-2018_14:53:40 Exp 7304 25 female R 2 5 8 moralSelf moralSelf match n n 1 0.3518 
06-May-2018_14:53:43 Exp 7304 25 female R 2 5 9 immoralOther immoralOther match n m 0 0.8359 
06-May-2018_14:53:45 Exp 7304 25 female R 2 5 10 immoralSelf immoralSelf match n n 1 0.5600 
06-May-2018_14:53:47 Exp 7304 25 female R 2 5 11 moralOther moralOther match n n 1 0.7961 
06-May-2018_14:53:49 Exp 7304 25 female R 2 5 12 immoralOther immoralSelf mismatch m n 0 0.7762 
06-May-2018_14:53:51 Exp 7304 25 female R 2 5 13 immoralSelf immoralSelf match n n 1 0.5844 
06-May-2018_14:53:53 Exp 7304 25 female R 2 5 14 immoralOther immoralOther match n n 1 0.6064 
06-May-2018_14:53:55 Exp 7304 25 female R 2 5 15 immoralOther immoralOther match n n 1 0.6166 
06-May-2018_14:53:57 Exp 7304 25 female R 2 5 16 immoralSelf moralSelf mismatch m n 0 0.8967 
06-May-2018_14:53:59 Exp 7304 25 female R 2 5 17 immoralSelf immoralSelf match n n 1 0.8248 
06-May-2018_14:54:01 Exp 7304 25 female R 2 5 18 immoralOther immoralSelf mismatch m m 1 0.3910 
06-May-2018_14:54:03 Exp 7304 25 female R 2 5 19 moralSelf moralSelf match n n 1 0.6590 
06-May-2018_14:54:05 Exp 7304 25 female R 2 5 20 immoralSelf moralOther mismatch m m 1 0.8172 
06-May-2018_14:54:07 Exp 7304 25 female R 2 5 21 moralOther moralSelf mismatch m n 0 0.8152 
06-May-2018_14:54:09 Exp 7304 25 female R 2 5 22 moralOther moralOther match n m 0 0.9114 
06-May-2018_14:54:11 Exp 7304 25 female R 2 5 23 moralSelf immoralSelf mismatch m m 1 0.7156 
06-May-2018_14:54:14 Exp 7304 25 female R 2 5 24 immoralOther immoralSelf mismatch m n 0 0.7996 
06-May-2018_14:54:19 Exp 7304 25 female R 3 1 1 immoralSelf moralSelf mismatch m n 0 0.7499 
06-May-2018_14:54:21 Exp 7304 25 female R 3 1 2 moralSelf moralSelf match n n 1 0.4900 
06-May-2018_14:54:22 Exp 7304 25 female R 3 1 3 moralSelf immoralOther mismatch m m 1 0.6101 
06-May-2018_14:54:24 Exp 7304 25 female R 3 1 4 moralSelf moralSelf match n n 1 0.5942 
06-May-2018_14:54:27 Exp 7304 25 female R 3 1 5 moralOther moralOther match n n 1 0.8384 
06-May-2018_14:54:29 Exp 7304 25 female R 3 1 6 immoralOther moralSelf mismatch m m 1 0.7285 
06-May-2018_14:54:31 Exp 7304 25 female R 3 1 7 immoralSelf immoralSelf match n n 1 0.7286 
06-May-2018_14:54:33 Exp 7304 25 female R 3 1 8 immoralOther moralOther mismatch m n 0 0.8167 
06-May-2018_14:54:35 Exp 7304 25 female R 3 1 9 immoralOther moralOther mismatch m m 1 0.6009 
06-May-2018_14:54:37 Exp 7304 25 female R 3 1 10 immoralSelf moralSelf mismatch m m 1 0.8590 
06-May-2018_14:54:39 Exp 7304 25 female R 3 1 11 immoralSelf immoralSelf match n n 1 0.6571 
06-May-2018_14:54:41 Exp 7304 25 female R 3 1 12 moralSelf moralSelf match n n 1 0.5913 
06-May-2018_14:54:43 Exp 7304 25 female R 3 1 13 moralOther moralOther match n n 1 0.8273 
06-May-2018_14:54:46 Exp 7304 25 female R 3 1 14 moralOther immoralSelf mismatch m NA -1 1.0330 
06-May-2018_14:54:48 Exp 7304 25 female R 3 1 15 moralSelf moralOther mismatch m m 1 0.6996 
06-May-2018_14:54:50 Exp 7304 25 female R 3 1 16 moralSelf immoralOther mismatch m m 1 0.8417 
06-May-2018_14:54:52 Exp 7304 25 female R 3 1 17 immoralSelf moralSelf mismatch m m 1 0.7479 
06-May-2018_14:54:54 Exp 7304 25 female R 3 1 18 immoralOther immoralOther match n n 1 0.8800 
06-May-2018_14:54:56 Exp 7304 25 female R 3 1 19 moralOther immoralOther mismatch m m 1 0.9300 
06-May-2018_14:54:59 Exp 7304 25 female R 3 1 20 moralOther immoralSelf mismatch m m 1 0.8503 
06-May-2018_14:55:01 Exp 7304 25 female R 3 1 21 immoralSelf immoralSelf match n n 1 0.8264 
06-May-2018_14:55:03 Exp 7304 25 female R 3 1 22 immoralOther immoralOther match n m 0 0.6724 
06-May-2018_14:55:05 Exp 7304 25 female R 3 1 23 moralOther moralOther match n m 0 0.8926 
06-May-2018_14:55:07 Exp 7304 25 female R 3 1 24 immoralOther immoralOther match n n 1 0.7406 
06-May-2018_14:55:09 Exp 7304 25 female R 3 2 1 moralOther moralOther match n n 1 0.7388 
06-May-2018_14:55:11 Exp 7304 25 female R 3 2 2 immoralSelf moralOther mismatch m m 1 0.7049 
06-May-2018_14:55:14 Exp 7304 25 female R 3 2 3 immoralOther moralSelf mismatch m m 1 0.8632 
06-May-2018_14:55:16 Exp 7304 25 female R 3 2 4 immoralSelf immoralSelf match n n 1 0.7332 
06-May-2018_14:55:18 Exp 7304 25 female R 3 2 5 immoralSelf immoralOther mismatch m m 1 0.6053 
06-May-2018_14:55:20 Exp 7304 25 female R 3 2 6 moralOther moralOther match n n 1 0.8073 
06-May-2018_14:55:22 Exp 7304 25 female R 3 2 7 moralOther moralOther match n n 1 0.8395 
06-May-2018_14:55:24 Exp 7304 25 female R 3 2 8 immoralSelf immoralSelf match n n 1 0.6816 
06-May-2018_14:55:26 Exp 7304 25 female R 3 2 9 moralOther immoralSelf mismatch m m 1 0.6438 
06-May-2018_14:55:28 Exp 7304 25 female R 3 2 10 immoralOther moralOther mismatch m n 0 0.7979 
06-May-2018_14:55:30 Exp 7304 25 female R 3 2 11 moralSelf moralOther mismatch m m 1 0.7040 
06-May-2018_14:55:32 Exp 7304 25 female R 3 2 12 moralSelf moralSelf match n n 1 0.6061 
06-May-2018_14:55:34 Exp 7304 25 female R 3 2 13 moralSelf moralSelf match n n 1 0.5042 
06-May-2018_14:55:36 Exp 7304 25 female R 3 2 14 immoralSelf immoralOther mismatch m m 1 0.8063 
06-May-2018_14:55:38 Exp 7304 25 female R 3 2 15 immoralOther immoralOther match n n 1 0.7605 
06-May-2018_14:55:40 Exp 7304 25 female R 3 2 16 moralOther immoralSelf mismatch m m 1 0.8105 
06-May-2018_14:55:42 Exp 7304 25 female R 3 2 17 immoralOther immoralOther match n m 0 0.8107 
06-May-2018_14:55:44 Exp 7304 25 female R 3 2 18 moralSelf moralOther mismatch m n 0 0.5948 
06-May-2018_14:55:47 Exp 7304 25 female R 3 2 19 moralOther immoralOther mismatch m NA -1 1.0330 
06-May-2018_14:55:49 Exp 7304 25 female R 3 2 20 immoralOther moralOther mismatch m m 1 0.9070 
06-May-2018_14:55:51 Exp 7304 25 female R 3 2 21 moralSelf moralOther mismatch m m 1 0.7371 
06-May-2018_14:55:53 Exp 7304 25 female R 3 2 22 immoralSelf immoralSelf match n n 1 0.6233 
06-May-2018_14:55:55 Exp 7304 25 female R 3 2 23 moralSelf moralSelf match n n 1 0.5575 
06-May-2018_14:55:57 Exp 7304 25 female R 3 2 24 immoralOther immoralOther match n m 0 0.6475 
06-May-2018_14:55:59 Exp 7304 25 female R 3 3 1 immoralOther immoralOther match n n 1 0.6637 
06-May-2018_14:56:01 Exp 7304 25 female R 3 3 2 immoralOther moralOther mismatch m m 1 0.6937 
06-May-2018_14:56:03 Exp 7304 25 female R 3 3 3 moralSelf immoralSelf mismatch m m 1 0.8138 
06-May-2018_14:56:05 Exp 7304 25 female R 3 3 4 moralSelf moralSelf match n n 1 0.6781 
06-May-2018_14:56:07 Exp 7304 25 female R 3 3 5 moralSelf immoralOther mismatch m m 1 0.6721 
06-May-2018_14:56:09 Exp 7304 25 female R 3 3 6 moralSelf moralSelf match n n 1 0.4602 
06-May-2018_14:56:11 Exp 7304 25 female R 3 3 7 immoralSelf immoralOther mismatch m m 1 0.8503 
06-May-2018_14:56:13 Exp 7304 25 female R 3 3 8 moralOther moralSelf mismatch m n 0 0.6745 
06-May-2018_14:56:15 Exp 7304 25 female R 3 3 9 immoralSelf moralOther mismatch m m 1 0.8146 
06-May-2018_14:56:18 Exp 7304 25 female R 3 3 10 immoralSelf moralSelf mismatch m m 1 0.8387 
06-May-2018_14:56:20 Exp 7304 25 female R 3 3 11 immoralOther immoralOther match n m 0 0.8648 
06-May-2018_14:56:22 Exp 7304 25 female R 3 3 12 immoralSelf immoralSelf match n m 0 0.8950 
06-May-2018_14:56:24 Exp 7304 25 female R 3 3 13 moralOther immoralOther mismatch m n 0 0.7910 
06-May-2018_14:56:26 Exp 7304 25 female R 3 3 14 moralOther moralOther match n n 1 0.6832 
06-May-2018_14:56:28 Exp 7304 25 female R 3 3 15 moralSelf moralSelf match n n 1 0.5973 
06-May-2018_14:56:30 Exp 7304 25 female R 3 3 16 immoralOther moralOther mismatch m m 1 0.6154 
06-May-2018_14:56:33 Exp 7304 25 female R 3 3 17 moralOther moralOther match n NA -1 1.0330 
06-May-2018_14:56:35 Exp 7304 25 female R 3 3 18 immoralSelf immoralSelf match n n 1 0.7797 
06-May-2018_14:56:37 Exp 7304 25 female R 3 3 19 immoralSelf immoralSelf match n m 0 0.5458 
06-May-2018_14:56:39 Exp 7304 25 female R 3 3 20 immoralOther immoralOther match n n 1 0.6719 
06-May-2018_14:56:41 Exp 7304 25 female R 3 3 21 moralSelf immoralSelf mismatch m m 1 0.7640 
06-May-2018_14:56:43 Exp 7304 25 female R 3 3 22 moralOther moralOther match n NA -1 1.0330 
06-May-2018_14:56:45 Exp 7304 25 female R 3 3 23 moralOther immoralOther mismatch m m 1 0.8582 
06-May-2018_14:56:48 Exp 7304 25 female R 3 3 24 immoralOther moralOther mismatch m n 0 0.9364 
06-May-2018_14:57:04 Exp 7304 25 female R 3 4 1 moralOther immoralSelf mismatch m m 1 0.7833 
06-May-2018_14:57:06 Exp 7304 25 female R 3 4 2 moralOther moralOther match n n 1 0.8454 
06-May-2018_14:57:08 Exp 7304 25 female R 3 4 3 moralSelf moralOther mismatch m m 1 0.8475 
06-May-2018_14:57:10 Exp 7304 25 female R 3 4 4 moralOther moralSelf mismatch m m 1 0.8077 
06-May-2018_14:57:13 Exp 7304 25 female R 3 4 5 immoralSelf immoralSelf match n n 1 0.7918 
06-May-2018_14:57:15 Exp 7304 25 female R 3 4 6 immoralOther immoralOther match n NA -1 1.0330 
06-May-2018_14:57:17 Exp 7304 25 female R 3 4 7 immoralSelf moralSelf mismatch m m 1 0.7921 
06-May-2018_14:57:19 Exp 7304 25 female R 3 4 8 moralSelf immoralOther mismatch m m 1 0.8442 
06-May-2018_14:57:21 Exp 7304 25 female R 3 4 9 immoralOther moralSelf mismatch m m 1 0.7824 
06-May-2018_14:57:24 Exp 7304 25 female R 3 4 10 immoralSelf moralSelf mismatch m m 1 0.7885 
06-May-2018_14:57:26 Exp 7304 25 female R 3 4 11 immoralOther immoralOther match n n 1 0.7366 
06-May-2018_14:57:28 Exp 7304 25 female R 3 4 12 immoralSelf immoralSelf match n m 0 0.8567 
06-May-2018_14:57:30 Exp 7304 25 female R 3 4 13 moralOther moralOther match n n 1 0.7207 
06-May-2018_14:57:32 Exp 7304 25 female R 3 4 14 moralOther moralSelf mismatch m m 1 0.7069 
06-May-2018_14:57:34 Exp 7304 25 female R 3 4 15 immoralSelf immoralOther mismatch m n 0 1.0090 
06-May-2018_14:57:36 Exp 7304 25 female R 3 4 16 immoralOther immoralSelf mismatch m m 1 0.7611 
06-May-2018_14:57:39 Exp 7304 25 female R 3 4 17 immoralOther immoralSelf mismatch m m 1 0.7712 
06-May-2018_14:57:40 Exp 7304 25 female R 3 4 18 moralSelf moralSelf match n n 1 0.5634 
06-May-2018_14:57:43 Exp 7304 25 female R 3 4 19 immoralSelf immoralSelf match n n 1 0.7095 
06-May-2018_14:57:45 Exp 7304 25 female R 3 4 20 moralSelf moralOther mismatch m m 1 0.8656 
06-May-2018_14:57:47 Exp 7304 25 female R 3 4 21 moralSelf moralSelf match n n 1 0.6557 
06-May-2018_14:57:49 Exp 7304 25 female R 3 4 22 moralOther moralOther match n n 1 0.8078 
06-May-2018_14:57:51 Exp 7304 25 female R 3 4 23 moralSelf moralSelf match n n 1 0.5520 
06-May-2018_14:57:53 Exp 7304 25 female R 3 4 24 immoralOther immoralOther match n n 1 0.9321 
06-May-2018_14:57:55 Exp 7304 25 female R 3 5 1 moralOther moralOther match n n 1 0.8122 
06-May-2018_14:57:57 Exp 7304 25 female R 3 5 2 moralOther moralSelf mismatch m m 1 0.6444 
06-May-2018_14:57:59 Exp 7304 25 female R 3 5 3 immoralOther immoralOther match n n 1 0.6304 
06-May-2018_14:58:01 Exp 7304 25 female R 3 5 4 moralSelf immoralSelf mismatch m n 0 0.5706 
06-May-2018_14:58:03 Exp 7304 25 female R 3 5 5 moralOther moralOther match n n 1 0.7466 
06-May-2018_14:58:05 Exp 7304 25 female R 3 5 6 immoralSelf moralSelf mismatch m m 1 0.6729 
06-May-2018_14:58:07 Exp 7304 25 female R 3 5 7 moralSelf immoralOther mismatch m m 1 0.6929 
06-May-2018_14:58:09 Exp 7304 25 female R 3 5 8 moralOther moralOther match n n 1 0.5251 
06-May-2018_14:58:11 Exp 7304 25 female R 3 5 9 immoralSelf moralSelf mismatch m m 1 0.6391 
06-May-2018_14:58:13 Exp 7304 25 female R 3 5 10 moralSelf moralOther mismatch m n 0 0.5292 
06-May-2018_14:58:15 Exp 7304 25 female R 3 5 11 moralSelf moralSelf match n n 1 0.5294 
06-May-2018_14:58:17 Exp 7304 25 female R 3 5 12 immoralSelf immoralSelf match n m 0 0.8894 
06-May-2018_14:58:19 Exp 7304 25 female R 3 5 13 immoralOther immoralOther match n n 1 0.6815 
06-May-2018_14:58:21 Exp 7304 25 female R 3 5 14 moralOther moralSelf mismatch m m 1 0.8597 
06-May-2018_14:58:24 Exp 7304 25 female R 3 5 15 immoralOther moralOther mismatch m n 0 0.8818 
06-May-2018_14:58:26 Exp 7304 25 female R 3 5 16 immoralOther moralOther mismatch m m 1 0.9719 
06-May-2018_14:58:28 Exp 7304 25 female R 3 5 17 moralOther immoralSelf mismatch m m 1 0.9641 
06-May-2018_14:58:30 Exp 7304 25 female R 3 5 18 immoralOther immoralOther match n n 1 0.7822 
06-May-2018_14:58:32 Exp 7304 25 female R 3 5 19 moralSelf moralSelf match n n 1 0.5164 
06-May-2018_14:58:34 Exp 7304 25 female R 3 5 20 immoralSelf moralOther mismatch m m 1 0.5685 
06-May-2018_14:58:36 Exp 7304 25 female R 3 5 21 moralSelf moralSelf match n n 1 0.4886 
06-May-2018_14:58:38 Exp 7304 25 female R 3 5 22 immoralSelf immoralSelf match n n 1 0.6487 
06-May-2018_14:58:40 Exp 7304 25 female R 3 5 23 immoralOther immoralSelf mismatch m NA -1 1.0330 
06-May-2018_14:58:43 Exp 7304 25 female R 3 5 24 immoralSelf immoralSelf match n n 1 0.8849 
Date Prac Sub Age Sex Hand Block Bin Trial Shape Label Match CorrResp Resp ACC RT
06-May-2018_15:03:22 Exp 7304 25 female R 1 1 1 immoralSelf immoralSelf match n h 2 0.9487 
06-May-2018_15:03:23 Exp 7304 25 female R 1 1 2 immoralSelf moralSelf mismatch m h 2 0.3929 
06-May-2018_15:03:25 Exp 7304 25 female R 1 1 3 immoralOther immoralOther match n h 2 0.1331 
06-May-2018_15:03:27 Exp 7304 25 female R 1 1 4 immoralOther immoralOther match n m 0 0.5330 
06-May-2018_15:03:29 Exp 7304 25 female R 1 1 5 immoralOther moralOther mismatch m m 1 0.6612 
06-May-2018_15:03:30 Exp 7304 25 female R 1 1 6 moralSelf moralSelf match n n 1 0.4433 
06-May-2018_15:03:32 Exp 7304 25 female R 1 1 7 moralSelf moralSelf match n n 1 0.5493 
06-May-2018_15:03:34 Exp 7304 25 female R 1 1 8 immoralSelf moralSelf mismatch m m 1 0.7855 
06-May-2018_15:03:36 Exp 7304 25 female R 1 1 9 immoralSelf immoralSelf match n n 1 0.6556 
06-May-2018_15:03:38 Exp 7304 25 female R 1 1 10 moralSelf immoralSelf mismatch m n 0 0.6717 
06-May-2018_15:03:41 Exp 7304 25 female R 1 1 11 moralOther moralOther match n n 1 0.7638 
06-May-2018_15:03:43 Exp 7304 25 female R 1 1 12 immoralSelf immoralSelf match n n 1 0.6219 
06-May-2018_15:03:45 Exp 7304 25 female R 1 1 13 moralOther moralOther match n n 1 0.7561 
06-May-2018_15:03:47 Exp 7304 25 female R 1 1 14 immoralOther moralSelf mismatch m n 0 0.8002 
06-May-2018_15:03:49 Exp 7304 25 female R 1 1 15 moralOther moralOther match n n 1 0.6344 
06-May-2018_15:03:51 Exp 7304 25 female R 1 1 16 moralOther moralSelf mismatch m n 0 0.8464 
06-May-2018_15:03:53 Exp 7304 25 female R 1 1 17 moralOther immoralSelf mismatch m m 1 0.8325 
06-May-2018_15:03:55 Exp 7304 25 female R 1 1 18 moralOther immoralSelf mismatch m m 1 0.7486 
06-May-2018_15:03:57 Exp 7304 25 female R 1 1 19 moralSelf moralOther mismatch m m 1 0.7688 
06-May-2018_15:03:59 Exp 7304 25 female R 1 1 20 moralSelf moralSelf match n n 1 0.6010 
06-May-2018_15:04:01 Exp 7304 25 female R 1 1 21 moralSelf immoralOther mismatch m m 1 0.8271 
06-May-2018_15:04:03 Exp 7304 25 female R 1 1 22 immoralSelf moralSelf mismatch m n 0 0.6412 
06-May-2018_15:04:05 Exp 7304 25 female R 1 1 23 immoralOther moralOther mismatch m m 1 0.6592 
06-May-2018_15:04:08 Exp 7304 25 female R 1 1 24 immoralOther immoralOther match n n 1 0.7454 
06-May-2018_15:04:10 Exp 7304 25 female R 1 2 1 immoralOther immoralOther match n n 1 0.7755 
06-May-2018_15:04:12 Exp 7304 25 female R 1 2 2 immoralSelf immoralSelf match n n 1 0.6876 
06-May-2018_15:04:14 Exp 7304 25 female R 1 2 3 moralOther moralOther match n n 1 0.7597 
06-May-2018_15:04:16 Exp 7304 25 female R 1 2 4 moralOther moralOther match n n 1 0.5858 
06-May-2018_15:04:18 Exp 7304 25 female R 1 2 5 moralSelf immoralSelf mismatch m m 1 0.6479 
06-May-2018_15:04:20 Exp 7304 25 female R 1 2 6 moralSelf moralSelf match n n 1 0.5761 
06-May-2018_15:04:22 Exp 7304 25 female R 1 2 7 moralOther immoralSelf mismatch m m 1 0.7441 
06-May-2018_15:04:24 Exp 7304 25 female R 1 2 8 immoralSelf moralSelf mismatch m m 1 0.8063 
06-May-2018_15:04:26 Exp 7304 25 female R 1 2 9 immoralSelf moralOther mismatch m m 1 0.8085 
06-May-2018_15:04:28 Exp 7304 25 female R 1 2 10 immoralOther moralSelf mismatch m n 0 0.8165 
06-May-2018_15:04:30 Exp 7304 25 female R 1 2 11 immoralOther moralSelf mismatch m m 1 0.6247 
06-May-2018_15:04:32 Exp 7304 25 female R 1 2 12 moralSelf moralSelf match n n 1 0.5988 
06-May-2018_15:04:34 Exp 7304 25 female R 1 2 13 immoralOther immoralSelf mismatch m m 1 0.8249 
06-May-2018_15:04:36 Exp 7304 25 female R 1 2 14 moralSelf immoralOther mismatch m m 1 0.7590 
06-May-2018_15:04:39 Exp 7304 25 female R 1 2 15 immoralOther immoralOther match n m 0 0.8331 
06-May-2018_15:04:41 Exp 7304 25 female R 1 2 16 immoralSelf moralSelf mismatch m m 1 0.6213 
06-May-2018_15:04:43 Exp 7304 25 female R 1 2 17 moralOther moralOther match n m 0 0.7234 
06-May-2018_15:04:45 Exp 7304 25 female R 1 2 18 moralSelf immoralSelf mismatch m n 0 0.9575 
06-May-2018_15:04:47 Exp 7304 25 female R 1 2 19 immoralOther immoralOther match n n 1 0.9036 
06-May-2018_15:04:50 Exp 7304 25 female R 1 2 20 immoralSelf immoralSelf match n n 1 0.9577 
06-May-2018_15:04:52 Exp 7304 25 female R 1 2 21 immoralSelf immoralSelf match n n 1 0.6399 
06-May-2018_15:04:54 Exp 7304 25 female R 1 2 22 moralOther immoralOther mismatch m m 1 0.9140 
06-May-2018_15:04:56 Exp 7304 25 female R 1 2 23 moralOther moralSelf mismatch m m 1 0.8381 
06-May-2018_15:04:58 Exp 7304 25 female R 1 2 24 moralSelf moralSelf match n n 1 0.5202 
Date Prac Sub Age Sex Hand Block Bin Trial Shape Label Match CorrResp Resp ACC RT
06-May-2018_15:09:22 Exp 7304 25 female R 1 1 1 moralSelf moralOther mismatch m u 2 0.7173 
06-May-2018_15:09:25 Exp 7304 25 female R 1 1 2 immoralOther moralSelf mismatch m NA -1 1.0330 
06-May-2018_15:09:27 Exp 7304 25 female R 1 1 3 immoralOther immoralSelf mismatch m m 1 1.0034 
06-May-2018_15:09:29 Exp 7304 25 female R 1 1 4 immoralOther immoralOther match n n 1 0.9176 
06-May-2018_15:09:31 Exp 7304 25 female R 1 1 5 immoralSelf immoralSelf match n n 1 0.9117 
06-May-2018_15:09:33 Exp 7304 25 female R 1 1 6 moralOther moralSelf mismatch m m 1 0.6038 
06-May-2018_15:09:35 Exp 7304 25 female R 1 1 7 immoralSelf moralSelf mismatch m n 0 0.7980 
06-May-2018_15:09:38 Exp 7304 25 female R 1 1 8 immoralSelf moralOther mismatch m m 1 0.8881 
06-May-2018_15:09:40 Exp 7304 25 female R 1 1 9 moralOther moralOther match n n 1 0.7283 
06-May-2018_15:09:42 Exp 7304 25 female R 1 1 10 moralSelf moralSelf match n n 1 0.5284 
06-May-2018_15:09:44 Exp 7304 25 female R 1 1 11 immoralOther immoralOther match n n 1 0.8084 
06-May-2018_15:09:46 Exp 7304 25 female R 1 1 12 immoralOther moralOther mismatch m n 0 0.6966 
06-May-2018_15:09:48 Exp 7304 25 female R 1 1 13 moralOther moralSelf mismatch m m 1 0.7847 
06-May-2018_15:09:50 Exp 7304 25 female R 1 1 14 moralSelf immoralSelf mismatch m n 0 0.8228 
06-May-2018_15:09:52 Exp 7304 25 female R 1 1 15 moralSelf moralSelf match n n 1 0.5409 
06-May-2018_15:09:54 Exp 7304 25 female R 1 1 16 immoralSelf immoralSelf match n m 0 0.8110 
06-May-2018_15:09:56 Exp 7304 25 female R 1 1 17 moralOther moralOther match n n 1 0.8592 
06-May-2018_15:09:59 Exp 7304 25 female R 1 1 18 moralOther moralOther match n n 1 0.7693 
06-May-2018_15:10:01 Exp 7304 25 female R 1 1 19 immoralOther immoralOther match n n 1 0.9294 
06-May-2018_15:10:03 Exp 7304 25 female R 1 1 20 immoralSelf immoralSelf match n n 1 0.6736 
06-May-2018_15:10:05 Exp 7304 25 female R 1 1 21 moralOther moralSelf mismatch m m 1 0.8376 
06-May-2018_15:10:07 Exp 7304 25 female R 1 1 22 moralSelf moralOther mismatch m m 1 0.6238 
06-May-2018_15:10:09 Exp 7304 25 female R 1 1 23 moralSelf moralSelf match n n 1 0.5499 
06-May-2018_15:10:11 Exp 7304 25 female R 1 1 24 immoralSelf moralSelf mismatch m n 0 0.8100 
06-May-2018_15:10:13 Exp 7304 25 female R 1 2 1 moralSelf immoralSelf mismatch m n 0 0.6981 
06-May-2018_15:10:15 Exp 7304 25 female R 1 2 2 immoralSelf immoralSelf match n n 1 0.6402 
06-May-2018_15:10:17 Exp 7304 25 female R 1 2 3 moralOther moralOther match n n 1 0.6104 
06-May-2018_15:10:19 Exp 7304 25 female R 1 2 4 moralOther moralOther match n n 1 0.6904 
06-May-2018_15:10:21 Exp 7304 25 female R 1 2 5 immoralSelf moralOther mismatch m m 1 0.7706 
06-May-2018_15:10:23 Exp 7304 25 female R 1 2 6 immoralOther moralOther mismatch m m 1 0.8507 
06-May-2018_15:10:25 Exp 7304 25 female R 1 2 7 immoralOther immoralOther match n n 1 0.6588 
06-May-2018_15:10:28 Exp 7304 25 female R 1 2 8 immoralSelf moralSelf mismatch m m 1 0.8089 
06-May-2018_15:10:30 Exp 7304 25 female R 1 2 9 immoralOther immoralOther match n m 0 1.0090 
06-May-2018_15:10:32 Exp 7304 25 female R 1 2 10 moralOther moralOther match n n 1 0.6812 
06-May-2018_15:10:34 Exp 7304 25 female R 1 2 11 immoralOther moralOther mismatch m m 1 0.7313 
06-May-2018_15:10:36 Exp 7304 25 female R 1 2 12 immoralSelf immoralSelf match n n 1 0.6594 
06-May-2018_15:10:38 Exp 7304 25 female R 1 2 13 moralSelf immoralSelf mismatch m m 1 0.7935 
06-May-2018_15:10:41 Exp 7304 25 female R 1 2 14 immoralOther moralSelf mismatch m n 0 0.9416 
06-May-2018_15:10:43 Exp 7304 25 female R 1 2 15 moralOther immoralSelf mismatch m n 0 0.8118 
06-May-2018_15:10:45 Exp 7304 25 female R 1 2 16 moralSelf moralSelf match n n 1 0.6039 
06-May-2018_15:10:47 Exp 7304 25 female R 1 2 17 immoralSelf immoralSelf match n n 1 0.9900 
06-May-2018_15:10:49 Exp 7304 25 female R 1 2 18 moralSelf immoralSelf mismatch m m 1 0.7062 
06-May-2018_15:10:51 Exp 7304 25 female R 1 2 19 immoralSelf moralOther mismatch m m 1 0.8963 
06-May-2018_15:10:53 Exp 7304 25 female R 1 2 20 moralSelf moralSelf match n n 1 0.5044 
06-May-2018_15:10:55 Exp 7304 25 female R 1 2 21 moralSelf moralSelf match n n 1 0.4705 
06-May-2018_15:10:57 Exp 7304 25 female R 1 2 22 moralOther immoralOther mismatch m n 0 0.6266 
06-May-2018_15:10:59 Exp 7304 25 female R 1 2 23 moralOther moralSelf mismatch m m 1 0.6728 
06-May-2018_15:11:01 Exp 7304 25 female R 1 2 24 immoralOther immoralOther match n n 1 0.7168 
Date Prac Sub Age Sex Hand Block Bin Trial Shape Label Match CorrResp Resp ACC RT
06-May-2018_15:14:59 Exp 7304 25 female R 1 1 1 moralOther immoralOther mismatch m m 1 0.7423 
06-May-2018_15:15:01 Exp 7304 25 female R 1 1 2 immoralOther immoralOther match n n 1 0.7804 
06-May-2018_15:15:03 Exp 7304 25 female R 1 1 3 immoralSelf moralSelf mismatch m n 0 0.5226 
06-May-2018_15:15:06 Exp 7304 25 female R 1 1 4 immoralOther immoralSelf mismatch m NA -1 1.0330 
06-May-2018_15:15:08 Exp 7304 25 female R 1 1 5 immoralSelf moralSelf mismatch m m 1 0.6509 
06-May-2018_15:15:10 Exp 7304 25 female R 1 1 6 immoralOther immoralOther match n n 1 0.6990 
06-May-2018_15:15:12 Exp 7304 25 female R 1 1 7 moralSelf immoralSelf mismatch m n 0 0.8731 
06-May-2018_15:15:14 Exp 7304 25 female R 1 1 8 moralSelf moralSelf match n n 1 0.5812 
06-May-2018_15:15:16 Exp 7304 25 female R 1 1 9 moralSelf moralOther mismatch m m 1 0.7233 
06-May-2018_15:15:18 Exp 7304 25 female R 1 1 10 immoralOther immoralOther match n n 1 0.7334 
06-May-2018_15:15:20 Exp 7304 25 female R 1 1 11 immoralSelf immoralSelf match n n 1 0.6375 
06-May-2018_15:15:22 Exp 7304 25 female R 1 1 12 immoralSelf immoralSelf match n n 1 0.8076 
06-May-2018_15:15:24 Exp 7304 25 female R 1 1 13 moralSelf immoralOther mismatch m m 1 0.6638 
06-May-2018_15:15:26 Exp 7304 25 female R 1 1 14 immoralSelf moralOther mismatch m m 1 0.8779 
06-May-2018_15:15:28 Exp 7304 25 female R 1 1 15 moralSelf moralSelf match n n 1 0.5281 
06-May-2018_15:15:30 Exp 7304 25 female R 1 1 16 moralOther moralOther match n m 0 0.7281 
06-May-2018_15:15:32 Exp 7304 25 female R 1 1 17 moralSelf moralSelf match n n 1 0.7043 
06-May-2018_15:15:34 Exp 7304 25 female R 1 1 18 immoralOther immoralSelf mismatch m m 1 0.8544 
06-May-2018_15:15:37 Exp 7304 25 female R 1 1 19 moralOther moralOther match n n 1 0.7265 
06-May-2018_15:15:39 Exp 7304 25 female R 1 1 20 moralOther immoralOther mismatch m m 1 0.7286 
06-May-2018_15:15:41 Exp 7304 25 female R 1 1 21 moralOther moralOther match n n 1 0.6727 
06-May-2018_15:15:43 Exp 7304 25 female R 1 1 22 moralOther immoralOther mismatch m m 1 0.7329 
06-May-2018_15:15:45 Exp 7304 25 female R 1 1 23 immoralSelf immoralSelf match n n 1 0.6530 
06-May-2018_15:15:47 Exp 7304 25 female R 1 1 24 immoralOther moralOther mismatch m m 1 0.7650 
06-May-2018_15:15:49 Exp 7304 25 female R 1 2 1 immoralOther immoralOther match n n 1 0.8873 
06-May-2018_15:15:51 Exp 7304 25 female R 1 2 2 immoralOther moralSelf mismatch m m 1 0.6393 
06-May-2018_15:15:53 Exp 7304 25 female R 1 2 3 immoralSelf immoralSelf match n n 1 0.8495 
06-May-2018_15:15:55 Exp 7304 25 female R 1 2 4 immoralSelf immoralOther mismatch m m 1 0.7616 
06-May-2018_15:15:57 Exp 7304 25 female R 1 2 5 immoralOther moralSelf mismatch m m 1 0.7077 
06-May-2018_15:16:00 Exp 7304 25 female R 1 2 6 moralOther moralSelf mismatch m m 1 0.7118 
06-May-2018_15:16:02 Exp 7304 25 female R 1 2 7 moralSelf immoralOther mismatch m m 1 0.7240 
06-May-2018_15:16:04 Exp 7304 25 female R 1 2 8 moralOther moralOther match n n 1 0.6940 
06-May-2018_15:16:06 Exp 7304 25 female R 1 2 9 moralOther immoralSelf mismatch m m 1 0.6382 
06-May-2018_15:16:07 Exp 7304 25 female R 1 2 10 moralSelf moralSelf match n n 1 0.5462 
06-May-2018_15:16:10 Exp 7304 25 female R 1 2 11 immoralSelf immoralSelf match n n 1 0.9843 
06-May-2018_15:16:12 Exp 7304 25 female R 1 2 12 immoralSelf immoralSelf match n n 1 0.6945 
06-May-2018_15:16:14 Exp 7304 25 female R 1 2 13 moralSelf moralSelf match n n 1 0.7827 
06-May-2018_15:16:16 Exp 7304 25 female R 1 2 14 immoralSelf immoralOther mismatch m m 1 0.8287 
06-May-2018_15:16:19 Exp 7304 25 female R 1 2 15 moralSelf immoralOther mismatch m m 1 0.9928 
06-May-2018_15:16:21 Exp 7304 25 female R 1 2 16 immoralOther immoralOther match n n 1 0.7650 
06-May-2018_15:16:23 Exp 7304 25 female R 1 2 17 moralOther moralOther match n n 1 0.7751 
06-May-2018_15:16:25 Exp 7304 25 female R 1 2 18 moralSelf moralSelf match n n 1 0.6633 
06-May-2018_15:16:27 Exp 7304 25 female R 1 2 19 immoralSelf moralOther mismatch m m 1 0.8293 
06-May-2018_15:16:29 Exp 7304 25 female R 1 2 20 moralSelf immoralSelf mismatch m m 1 0.9134 
06-May-2018_15:16:31 Exp 7304 25 female R 1 2 21 moralOther moralOther match n n 1 0.7976 
06-May-2018_15:16:33 Exp 7304 25 female R 1 2 22 immoralOther moralSelf mismatch m m 1 0.7997 
06-May-2018_15:16:36 Exp 7304 25 female R 1 2 23 immoralOther immoralOther match n NA -1 1.0330 
06-May-2018_15:16:38 Exp 7304 25 female R 1 2 24 moralOther immoralSelf mismatch m m 1 0.8060 
Date Prac Sub Age Sex Hand Block Bin Trial Shape Label Match CorrResp Resp ACC RT
06-May-2018_15:20:37 Exp 7304 25 female R 1 1 1 immoralSelf immoralSelf match n n 1 0.7516 
06-May-2018_15:20:39 Exp 7304 25 female R 1 1 2 immoralSelf immoralSelf match n m 0 0.6277 
06-May-2018_15:20:41 Exp 7304 25 female R 1 1 3 moralOther immoralSelf mismatch m NA -1 1.0330 
06-May-2018_15:20:44 Exp 7304 25 female R 1 1 4 immoralOther immoralOther match n n 1 0.8119 
06-May-2018_15:20:46 Exp 7304 25 female R 1 1 5 moralOther immoralOther mismatch m n 0 0.6841 
06-May-2018_15:20:48 Exp 7304 25 female R 1 1 6 moralSelf moralSelf match n n 1 0.5422 
06-May-2018_15:20:50 Exp 7304 25 female R 1 1 7 immoralSelf immoralOther mismatch m m 1 0.6763 
06-May-2018_15:20:52 Exp 7304 25 female R 1 1 8 immoralOther moralOther mismatch m n 0 0.8004 
06-May-2018_15:20:54 Exp 7304 25 female R 1 1 9 moralSelf moralSelf match n n 1 0.5306 
06-May-2018_15:20:56 Exp 7304 25 female R 1 1 10 moralOther moralSelf mismatch m m 1 0.7787 
06-May-2018_15:20:58 Exp 7304 25 female R 1 1 11 moralOther moralOther match n n 1 0.6807 
06-May-2018_15:21:00 Exp 7304 25 female R 1 1 12 immoralSelf immoralOther mismatch m m 1 0.7149 
06-May-2018_15:21:02 Exp 7304 25 female R 1 1 13 moralOther moralOther match n n 1 0.8470 
06-May-2018_15:21:04 Exp 7304 25 female R 1 1 14 immoralOther immoralOther match n n 1 0.7051 
06-May-2018_15:21:06 Exp 7304 25 female R 1 1 15 moralSelf immoralOther mismatch m m 1 0.6473 
06-May-2018_15:21:08 Exp 7304 25 female R 1 1 16 moralSelf moralOther mismatch m m 1 0.6954 
06-May-2018_15:21:10 Exp 7304 25 female R 1 1 17 immoralSelf immoralOther mismatch m m 1 0.7035 
06-May-2018_15:21:12 Exp 7304 25 female R 1 1 18 moralSelf immoralOther mismatch m m 1 0.5655 
06-May-2018_15:21:14 Exp 7304 25 female R 1 1 19 immoralOther moralOther mismatch m m 1 0.7117 
06-May-2018_15:21:16 Exp 7304 25 female R 1 1 20 immoralSelf immoralSelf match n n 1 0.6438 
06-May-2018_15:21:18 Exp 7304 25 female R 1 1 21 immoralOther moralSelf mismatch m m 1 0.6539 
06-May-2018_15:21:20 Exp 7304 25 female R 1 1 22 immoralOther immoralOther match n n 1 0.6940 
06-May-2018_15:21:22 Exp 7304 25 female R 1 1 23 moralOther moralOther match n n 1 0.8941 
06-May-2018_15:21:24 Exp 7304 25 female R 1 1 24 moralSelf moralSelf match n n 1 0.5663 
06-May-2018_15:21:26 Exp 7304 25 female R 1 2 1 moralSelf moralSelf match n n 1 0.4564 
06-May-2018_15:21:28 Exp 7304 25 female R 1 2 2 immoralSelf immoralSelf match n n 1 0.6085 
06-May-2018_15:21:30 Exp 7304 25 female R 1 2 3 immoralOther moralOther mismatch m n 0 0.9846 
06-May-2018_15:21:32 Exp 7304 25 female R 1 2 4 moralSelf immoralSelf mismatch m n 0 0.4867 
06-May-2018_15:21:34 Exp 7304 25 female R 1 2 5 immoralSelf immoralOther mismatch m n 0 0.5529 
06-May-2018_15:21:36 Exp 7304 25 female R 1 2 6 moralOther immoralSelf mismatch m n 0 0.7010 
06-May-2018_15:21:38 Exp 7304 25 female R 1 2 7 immoralSelf immoralOther mismatch m n 0 0.7791 
06-May-2018_15:21:40 Exp 7304 25 female R 1 2 8 moralOther immoralSelf mismatch m m 1 0.7452 
06-May-2018_15:21:42 Exp 7304 25 female R 1 2 9 immoralSelf immoralSelf match n n 1 0.6233 
06-May-2018_15:21:44 Exp 7304 25 female R 1 2 10 moralSelf moralSelf match n n 1 0.4854 
06-May-2018_15:21:46 Exp 7304 25 female R 1 2 11 immoralOther moralSelf mismatch m m 1 0.7355 
06-May-2018_15:21:48 Exp 7304 25 female R 1 2 12 moralSelf moralSelf match n n 1 0.4076 
06-May-2018_15:21:50 Exp 7304 25 female R 1 2 13 immoralSelf moralSelf mismatch m m 1 0.6797 
06-May-2018_15:21:52 Exp 7304 25 female R 1 2 14 moralSelf moralOther mismatch m m 1 0.5698 
06-May-2018_15:21:54 Exp 7304 25 female R 1 2 15 immoralSelf immoralSelf match n n 1 0.5860 
06-May-2018_15:21:56 Exp 7304 25 female R 1 2 16 moralSelf immoralSelf mismatch m m 1 0.5840 
06-May-2018_15:21:58 Exp 7304 25 female R 1 2 17 immoralOther immoralOther match n n 1 0.7422 
06-May-2018_15:22:00 Exp 7304 25 female R 1 2 18 moralOther moralOther match n n 1 0.6203 
06-May-2018_15:22:02 Exp 7304 25 female R 1 2 19 moralOther moralOther match n n 1 0.5864 
06-May-2018_15:22:04 Exp 7304 25 female R 1 2 20 moralOther moralOther match n n 1 0.6965 
06-May-2018_15:22:06 Exp 7304 25 female R 1 2 21 immoralOther moralOther mismatch m m 1 0.6406 
06-May-2018_15:22:08 Exp 7304 25 female R 1 2 22 immoralOther immoralOther match n n 1 0.7787 
06-May-2018_15:22:10 Exp 7304 25 female R 1 2 23 moralOther immoralOther mismatch m n 0 0.6809 
06-May-2018_15:22:12 Exp 7304 25 female R 1 2 24 immoralOther immoralOther match n n 1 0.6028 
Date Prac Sub Age Sex Hand Block Bin Trial Shape Label Match CorrResp Resp ACC RT
06-May-2018_15:26:07 Exp 7304 25 female R 1 1 1 immoralOther moralOther mismatch m m 1 0.7243 
06-May-2018_15:26:09 Exp 7304 25 female R 1 1 2 immoralOther immoralOther match n n 1 0.7824 
06-May-2018_15:26:11 Exp 7304 25 female R 1 1 3 moralOther moralOther match n n 1 0.8925 
06-May-2018_15:26:13 Exp 7304 25 female R 1 1 4 immoralSelf immoralSelf match n n 1 0.6287 
06-May-2018_15:26:15 Exp 7304 25 female R 1 1 5 moralSelf moralSelf match n n 1 0.4248 
06-May-2018_15:26:17 Exp 7304 25 female R 1 1 6 moralSelf moralSelf match n n 1 0.5749 
06-May-2018_15:26:19 Exp 7304 25 female R 1 1 7 immoralOther immoralOther match n m 0 0.6550 
06-May-2018_15:26:21 Exp 7304 25 female R 1 1 8 moralOther immoralSelf mismatch m m 1 0.8331 
06-May-2018_15:26:23 Exp 7304 25 female R 1 1 9 immoralOther immoralOther match n n 1 0.6532 
06-May-2018_15:26:25 Exp 7304 25 female R 1 1 10 immoralSelf moralSelf mismatch m m 1 0.8213 
06-May-2018_15:26:27 Exp 7304 25 female R 1 1 11 immoralOther moralSelf mismatch m m 1 0.7394 
06-May-2018_15:26:29 Exp 7304 25 female R 1 1 12 immoralSelf immoralSelf match n n 1 0.5616 
06-May-2018_15:26:31 Exp 7304 25 female R 1 1 13 moralSelf moralSelf match n n 1 0.4758 
06-May-2018_15:26:33 Exp 7304 25 female R 1 1 14 moralOther moralOther match n n 1 0.7518 
06-May-2018_15:26:35 Exp 7304 25 female R 1 1 15 moralSelf immoralOther mismatch m m 1 0.7318 
06-May-2018_15:26:37 Exp 7304 25 female R 1 1 16 moralSelf immoralOther mismatch m m 1 0.8120 
06-May-2018_15:26:39 Exp 7304 25 female R 1 1 17 moralOther immoralOther mismatch m n 0 0.7881 
06-May-2018_15:26:42 Exp 7304 25 female R 1 1 18 immoralSelf immoralOther mismatch m m 1 0.9523 
06-May-2018_15:26:44 Exp 7304 25 female R 1 1 19 immoralSelf moralSelf mismatch m m 1 0.7165 
06-May-2018_15:26:46 Exp 7304 25 female R 1 1 20 moralSelf moralOther mismatch m m 1 0.6166 
06-May-2018_15:26:48 Exp 7304 25 female R 1 1 21 immoralOther moralOther mismatch m n 0 0.9446 
06-May-2018_15:26:50 Exp 7304 25 female R 1 1 22 immoralSelf immoralSelf match n n 1 0.8307 
06-May-2018_15:26:52 Exp 7304 25 female R 1 1 23 moralOther moralOther match n n 1 0.6188 
06-May-2018_15:26:54 Exp 7304 25 female R 1 1 24 moralOther immoralOther mismatch m m 1 0.6410 
06-May-2018_15:26:56 Exp 7304 25 female R 1 2 1 immoralSelf immoralSelf match n n 1 0.5392 
06-May-2018_15:26:58 Exp 7304 25 female R 1 2 2 moralSelf immoralOther mismatch m m 1 0.6732 
06-May-2018_15:27:00 Exp 7304 25 female R 1 2 3 moralSelf moralSelf match n n 1 0.6933 
06-May-2018_15:27:02 Exp 7304 25 female R 1 2 4 moralOther immoralOther mismatch m n 0 0.7495 
06-May-2018_15:27:04 Exp 7304 25 female R 1 2 5 moralSelf moralOther mismatch m m 1 0.7615 
06-May-2018_15:27:06 Exp 7304 25 female R 1 2 6 moralOther immoralOther mismatch m m 1 0.8597 
06-May-2018_15:27:08 Exp 7304 25 female R 1 2 7 moralSelf moralSelf match n n 1 0.5298 
06-May-2018_15:27:10 Exp 7304 25 female R 1 2 8 immoralSelf moralSelf mismatch m n 0 0.6180 
06-May-2018_15:27:12 Exp 7304 25 female R 1 2 9 immoralOther immoralOther match n m 0 0.7681 
06-May-2018_15:27:15 Exp 7304 25 female R 1 2 10 immoralSelf immoralOther mismatch m m 1 0.7762 
06-May-2018_15:27:17 Exp 7304 25 female R 1 2 11 immoralSelf moralOther mismatch m m 1 0.9843 
06-May-2018_15:27:19 Exp 7304 25 female R 1 2 12 moralOther moralOther match n n 1 0.8944 
06-May-2018_15:27:21 Exp 7304 25 female R 1 2 13 immoralOther immoralOther match n n 1 0.6225 
06-May-2018_15:27:23 Exp 7304 25 female R 1 2 14 immoralOther moralSelf mismatch m m 1 0.6607 
06-May-2018_15:27:25 Exp 7304 25 female R 1 2 15 moralOther moralOther match n n 1 0.5867 
06-May-2018_15:27:27 Exp 7304 25 female R 1 2 16 moralOther moralOther match n n 1 0.5449 
06-May-2018_15:27:29 Exp 7304 25 female R 1 2 17 immoralOther moralOther mismatch m m 1 0.7510 
06-May-2018_15:27:31 Exp 7304 25 female R 1 2 18 moralSelf moralOther mismatch m m 1 0.6511 
06-May-2018_15:27:33 Exp 7304 25 female R 1 2 19 immoralSelf immoralSelf match n n 1 0.6512 
06-May-2018_15:27:35 Exp 7304 25 female R 1 2 20 moralSelf moralSelf match n n 1 0.4514 
06-May-2018_15:27:37 Exp 7304 25 female R 1 2 21 immoralOther immoralOther match n m 0 0.7555 
06-May-2018_15:27:39 Exp 7304 25 female R 1 2 22 immoralOther moralSelf mismatch m m 1 0.6316 
06-May-2018_15:27:41 Exp 7304 25 female R 1 2 23 immoralSelf immoralSelf match n n 1 0.5957 
06-May-2018_15:27:43 Exp 7304 25 female R 1 2 24 moralOther immoralOther mismatch m n 0 0.7678 
