Date Prac Sub Age Sex Hand Block Bin Trial Shape Label Match CorrResp Resp ACC RT
16-May-2018_13:48:58 Exp 7314 19 female R 1 1 1 immoralSelf immoralSelf match n m 0 0.6362 
16-May-2018_13:49:01 Exp 7314 19 female R 1 1 2 immoralSelf moralOther mismatch m m 1 0.7763 
16-May-2018_13:49:03 Exp 7314 19 female R 1 1 3 moralOther moralOther match n n 1 0.5044 
16-May-2018_13:49:05 Exp 7314 19 female R 1 1 4 moralSelf immoralOther mismatch m m 1 0.6226 
16-May-2018_13:49:08 Exp 7314 19 female R 1 1 5 immoralOther moralSelf mismatch m m 1 0.7566 
16-May-2018_13:49:10 Exp 7314 19 female R 1 1 6 immoralOther moralSelf mismatch m m 1 0.6088 
16-May-2018_13:49:12 Exp 7314 19 female R 1 1 7 moralOther immoralOther mismatch m m 1 0.6650 
16-May-2018_13:49:14 Exp 7314 19 female R 1 1 8 immoralOther immoralOther match n n 1 0.7030 
16-May-2018_13:49:17 Exp 7314 19 female R 1 1 9 immoralSelf moralSelf mismatch m m 1 0.6852 
16-May-2018_13:49:19 Exp 7314 19 female R 1 1 10 immoralOther immoralOther match n m 0 0.7353 
16-May-2018_13:49:21 Exp 7314 19 female R 1 1 11 moralOther immoralSelf mismatch m m 1 0.6875 
16-May-2018_13:49:24 Exp 7314 19 female R 1 1 12 moralOther moralOther match n n 1 0.5435 
16-May-2018_13:49:26 Exp 7314 19 female R 1 1 13 immoralSelf immoralSelf match n m 0 0.7097 
16-May-2018_13:49:28 Exp 7314 19 female R 1 1 14 moralSelf immoralOther mismatch m m 1 0.8338 
16-May-2018_13:49:31 Exp 7314 19 female R 1 1 15 immoralSelf moralSelf mismatch m m 1 0.8620 
16-May-2018_13:49:33 Exp 7314 19 female R 1 1 16 immoralOther immoralOther match n m 0 0.7321 
16-May-2018_13:49:36 Exp 7314 19 female R 1 1 17 moralSelf immoralOther mismatch m m 1 0.7482 
16-May-2018_13:49:38 Exp 7314 19 female R 1 1 18 moralSelf moralSelf match n m 0 0.7684 
16-May-2018_13:49:40 Exp 7314 19 female R 1 1 19 moralOther immoralSelf mismatch m m 1 0.7525 
16-May-2018_13:49:43 Exp 7314 19 female R 1 1 20 moralSelf moralSelf match n n 1 0.8686 
16-May-2018_13:49:45 Exp 7314 19 female R 1 1 21 moralSelf moralSelf match n n 1 0.5928 
16-May-2018_13:49:47 Exp 7314 19 female R 1 1 22 moralOther moralOther match n n 1 0.5729 
16-May-2018_13:49:50 Exp 7314 19 female R 1 1 23 immoralOther moralOther mismatch m n 0 0.6531 
16-May-2018_13:49:52 Exp 7314 19 female R 1 1 24 immoralSelf immoralSelf match n m 0 0.5811 
16-May-2018_13:49:54 Exp 7314 19 female R 1 2 1 immoralOther immoralOther match n n 1 0.8353 
16-May-2018_13:49:56 Exp 7314 19 female R 1 2 2 moralOther moralSelf mismatch m n 0 0.5034 
16-May-2018_13:49:59 Exp 7314 19 female R 1 2 3 immoralSelf immoralSelf match n n 1 0.7816 
16-May-2018_13:50:01 Exp 7314 19 female R 1 2 4 moralSelf moralSelf match n n 1 0.7717 
16-May-2018_13:50:04 Exp 7314 19 female R 1 2 5 moralOther immoralOther mismatch m n 0 0.8278 
16-May-2018_13:50:06 Exp 7314 19 female R 1 2 6 moralSelf moralSelf match n n 1 0.6399 
16-May-2018_13:50:08 Exp 7314 19 female R 1 2 7 immoralOther immoralSelf mismatch m m 1 0.7380 
16-May-2018_13:50:11 Exp 7314 19 female R 1 2 8 immoralSelf moralOther mismatch m m 1 0.9042 
16-May-2018_13:50:13 Exp 7314 19 female R 1 2 9 moralOther immoralSelf mismatch m m 1 0.6944 
16-May-2018_13:50:16 Exp 7314 19 female R 1 2 10 immoralSelf immoralSelf match n n 1 0.7905 
16-May-2018_13:50:18 Exp 7314 19 female R 1 2 11 moralSelf moralSelf match n n 1 0.7226 
16-May-2018_13:50:20 Exp 7314 19 female R 1 2 12 immoralSelf immoralSelf match n m 0 0.5568 
16-May-2018_13:50:22 Exp 7314 19 female R 1 2 13 moralSelf immoralOther mismatch m n 0 0.6889 
16-May-2018_13:50:25 Exp 7314 19 female R 1 2 14 moralOther moralOther match n n 1 0.4970 
16-May-2018_13:50:27 Exp 7314 19 female R 1 2 15 immoralOther moralSelf mismatch m m 1 0.7291 
16-May-2018_13:50:29 Exp 7314 19 female R 1 2 16 moralSelf immoralSelf mismatch m m 1 0.7773 
16-May-2018_13:50:32 Exp 7314 19 female R 1 2 17 immoralOther immoralOther match n m 0 0.8234 
16-May-2018_13:50:34 Exp 7314 19 female R 1 2 18 moralOther moralOther match n n 1 0.6616 
16-May-2018_13:50:37 Exp 7314 19 female R 1 2 19 moralOther moralOther match n NA -1 1.0850 
16-May-2018_13:50:39 Exp 7314 19 female R 1 2 20 immoralOther immoralSelf mismatch m m 1 0.9578 
16-May-2018_13:50:42 Exp 7314 19 female R 1 2 21 immoralSelf moralSelf mismatch m m 1 0.8718 
16-May-2018_13:50:44 Exp 7314 19 female R 1 2 22 immoralOther immoralOther match n n 1 0.8281 
16-May-2018_13:50:47 Exp 7314 19 female R 1 2 23 immoralSelf moralSelf mismatch m n 0 0.7761 
16-May-2018_13:50:49 Exp 7314 19 female R 1 2 24 moralSelf immoralSelf mismatch m m 1 0.6244 
16-May-2018_13:50:51 Exp 7314 19 female R 1 3 1 moralOther moralOther match n n 1 0.5605 
16-May-2018_13:50:53 Exp 7314 19 female R 1 3 2 moralOther moralSelf mismatch m m 1 0.6907 
16-May-2018_13:50:56 Exp 7314 19 female R 1 3 3 moralSelf moralOther mismatch m n 0 0.7467 
16-May-2018_13:50:58 Exp 7314 19 female R 1 3 4 immoralSelf immoralSelf match n m 0 0.6008 
16-May-2018_13:51:00 Exp 7314 19 female R 1 3 5 moralOther immoralSelf mismatch m m 1 0.7870 
16-May-2018_13:51:03 Exp 7314 19 female R 1 3 6 immoralSelf moralOther mismatch m m 1 0.8172 
16-May-2018_13:51:05 Exp 7314 19 female R 1 3 7 moralSelf moralOther mismatch m m 1 0.6153 
16-May-2018_13:51:08 Exp 7314 19 female R 1 3 8 immoralOther immoralOther match n n 1 0.8074 
16-May-2018_13:51:10 Exp 7314 19 female R 1 3 9 immoralOther immoralOther match n n 1 0.7435 
16-May-2018_13:51:12 Exp 7314 19 female R 1 3 10 immoralOther moralSelf mismatch m m 1 0.6137 
16-May-2018_13:51:14 Exp 7314 19 female R 1 3 11 moralSelf moralSelf match n n 1 0.6138 
16-May-2018_13:51:17 Exp 7314 19 female R 1 3 12 moralSelf moralSelf match n n 1 0.5579 
16-May-2018_13:51:19 Exp 7314 19 female R 1 3 13 immoralOther moralOther mismatch m m 1 0.6081 
16-May-2018_13:51:21 Exp 7314 19 female R 1 3 14 immoralOther moralOther mismatch m m 1 0.8082 
16-May-2018_13:51:24 Exp 7314 19 female R 1 3 15 moralSelf moralSelf match n n 1 0.7763 
16-May-2018_13:51:26 Exp 7314 19 female R 1 3 16 moralSelf moralOther mismatch m m 1 0.7205 
16-May-2018_13:51:29 Exp 7314 19 female R 1 3 17 immoralSelf immoralOther mismatch m m 1 0.8186 
16-May-2018_13:51:31 Exp 7314 19 female R 1 3 18 immoralOther immoralOther match n m 0 0.6647 
16-May-2018_13:51:33 Exp 7314 19 female R 1 3 19 immoralSelf immoralSelf match n n 1 0.8708 
16-May-2018_13:51:36 Exp 7314 19 female R 1 3 20 immoralSelf immoralOther mismatch m m 1 0.7950 
16-May-2018_13:51:38 Exp 7314 19 female R 1 3 21 moralOther moralSelf mismatch m m 1 0.7672 
16-May-2018_13:51:41 Exp 7314 19 female R 1 3 22 immoralSelf immoralSelf match n n 1 0.8313 
16-May-2018_13:51:43 Exp 7314 19 female R 1 3 23 moralOther moralOther match n n 1 0.7714 
16-May-2018_13:51:45 Exp 7314 19 female R 1 3 24 moralOther moralOther match n n 1 0.7555 
16-May-2018_13:52:00 Exp 7314 19 female R 1 4 1 moralSelf immoralOther mismatch m m 1 0.6844 
16-May-2018_13:52:03 Exp 7314 19 female R 1 4 2 immoralOther immoralOther match n n 1 0.7825 
16-May-2018_13:52:05 Exp 7314 19 female R 1 4 3 moralSelf moralSelf match n n 1 0.5566 
16-May-2018_13:52:07 Exp 7314 19 female R 1 4 4 immoralOther immoralOther match n n 1 0.7849 
16-May-2018_13:52:10 Exp 7314 19 female R 1 4 5 immoralOther moralOther mismatch m m 1 0.7189 
16-May-2018_13:52:12 Exp 7314 19 female R 1 4 6 moralOther moralOther match n n 1 0.5371 
16-May-2018_13:52:14 Exp 7314 19 female R 1 4 7 immoralOther immoralSelf mismatch m m 1 0.6891 
16-May-2018_13:52:16 Exp 7314 19 female R 1 4 8 immoralSelf moralSelf mismatch m n 0 0.6813 
16-May-2018_13:52:19 Exp 7314 19 female R 1 4 9 immoralSelf immoralSelf match n n 1 0.8835 
16-May-2018_13:52:22 Exp 7314 19 female R 1 4 10 immoralSelf immoralSelf match n n 1 0.9576 
16-May-2018_13:52:24 Exp 7314 19 female R 1 4 11 moralSelf moralSelf match n m 0 0.7278 
16-May-2018_13:52:26 Exp 7314 19 female R 1 4 12 immoralSelf moralSelf mismatch m m 1 0.7999 
16-May-2018_13:52:29 Exp 7314 19 female R 1 4 13 immoralSelf immoralSelf match n n 1 0.7460 
16-May-2018_13:52:31 Exp 7314 19 female R 1 4 14 moralOther moralOther match n n 1 0.5441 
16-May-2018_13:52:33 Exp 7314 19 female R 1 4 15 moralSelf immoralSelf mismatch m m 1 0.7423 
16-May-2018_13:52:36 Exp 7314 19 female R 1 4 16 immoralSelf immoralOther mismatch m m 1 0.9404 
16-May-2018_13:52:38 Exp 7314 19 female R 1 4 17 moralOther immoralOther mismatch m m 1 0.6665 
16-May-2018_13:52:40 Exp 7314 19 female R 1 4 18 moralOther moralOther match n n 1 0.6247 
16-May-2018_13:52:43 Exp 7314 19 female R 1 4 19 moralSelf moralSelf match n n 1 0.7507 
16-May-2018_13:52:45 Exp 7314 19 female R 1 4 20 moralOther immoralOther mismatch m m 1 0.5789 
16-May-2018_13:52:47 Exp 7314 19 female R 1 4 21 immoralOther immoralOther match n m 0 0.6010 
16-May-2018_13:52:50 Exp 7314 19 female R 1 4 22 immoralOther moralSelf mismatch m m 1 0.7791 
16-May-2018_13:52:52 Exp 7314 19 female R 1 4 23 moralOther moralSelf mismatch m m 1 0.8014 
16-May-2018_13:52:54 Exp 7314 19 female R 1 4 24 moralSelf moralOther mismatch m n 0 0.7235 
16-May-2018_13:52:57 Exp 7314 19 female R 1 5 1 moralSelf immoralOther mismatch m m 1 0.7976 
16-May-2018_13:52:59 Exp 7314 19 female R 1 5 2 moralOther immoralOther mismatch m m 1 0.8317 
16-May-2018_13:53:01 Exp 7314 19 female R 1 5 3 moralOther moralOther match n n 1 0.6119 
16-May-2018_13:53:04 Exp 7314 19 female R 1 5 4 immoralSelf immoralOther mismatch m m 1 0.6440 
16-May-2018_13:53:06 Exp 7314 19 female R 1 5 5 moralOther moralOther match n n 1 0.5341 
16-May-2018_13:53:08 Exp 7314 19 female R 1 5 6 immoralSelf immoralSelf match n m 0 0.6703 
16-May-2018_13:53:11 Exp 7314 19 female R 1 5 7 immoralOther immoralOther match n m 0 0.8904 
16-May-2018_13:53:13 Exp 7314 19 female R 1 5 8 immoralOther immoralOther match n n 1 0.6826 
16-May-2018_13:53:16 Exp 7314 19 female R 1 5 9 immoralSelf immoralOther mismatch m n 0 0.9326 
16-May-2018_13:53:18 Exp 7314 19 female R 1 5 10 immoralSelf immoralSelf match n n 1 0.7328 
16-May-2018_13:53:20 Exp 7314 19 female R 1 5 11 moralSelf moralSelf match n n 1 0.7649 
16-May-2018_13:53:23 Exp 7314 19 female R 1 5 12 moralSelf moralOther mismatch m m 1 0.8391 
16-May-2018_13:53:25 Exp 7314 19 female R 1 5 13 moralOther moralOther match n n 1 0.7612 
16-May-2018_13:53:28 Exp 7314 19 female R 1 5 14 moralOther immoralOther mismatch m m 1 0.6993 
16-May-2018_13:53:30 Exp 7314 19 female R 1 5 15 immoralSelf moralSelf mismatch m m 1 0.9535 
16-May-2018_13:53:33 Exp 7314 19 female R 1 5 16 immoralOther immoralSelf mismatch m m 1 0.8376 
16-May-2018_13:53:35 Exp 7314 19 female R 1 5 17 immoralSelf immoralSelf match n n 1 0.7758 
16-May-2018_13:53:37 Exp 7314 19 female R 1 5 18 moralOther immoralOther mismatch m m 1 0.7519 
16-May-2018_13:53:40 Exp 7314 19 female R 1 5 19 moralSelf moralOther mismatch m n 0 0.7480 
16-May-2018_13:53:42 Exp 7314 19 female R 1 5 20 immoralOther moralOther mismatch m m 1 0.8480 
16-May-2018_13:53:45 Exp 7314 19 female R 1 5 21 immoralOther immoralOther match n n 1 0.9603 
16-May-2018_13:53:47 Exp 7314 19 female R 1 5 22 moralSelf moralSelf match n n 1 0.7784 
16-May-2018_13:53:50 Exp 7314 19 female R 1 5 23 immoralOther immoralSelf mismatch m m 1 0.6886 
16-May-2018_13:53:52 Exp 7314 19 female R 1 5 24 moralSelf moralSelf match n n 1 0.8007 
16-May-2018_13:53:58 Exp 7314 19 female R 2 1 1 moralSelf moralSelf match n NA -1 1.0850 
16-May-2018_13:54:00 Exp 7314 19 female R 2 1 2 immoralOther immoralOther match n NA -1 1.0850 
16-May-2018_13:54:03 Exp 7314 19 female R 2 1 3 immoralSelf immoralSelf match n NA -1 1.0850 
16-May-2018_13:54:05 Exp 7314 19 female R 2 1 4 immoralSelf moralOther mismatch m m 1 0.4915 
16-May-2018_13:54:07 Exp 7314 19 female R 2 1 5 moralOther moralOther match n n 1 0.6036 
16-May-2018_13:54:10 Exp 7314 19 female R 2 1 6 moralOther moralSelf mismatch m m 1 0.6937 
16-May-2018_13:54:12 Exp 7314 19 female R 2 1 7 immoralSelf moralSelf mismatch m n 0 0.6139 
16-May-2018_13:54:14 Exp 7314 19 female R 2 1 8 immoralOther moralSelf mismatch m m 1 0.8380 
16-May-2018_13:54:17 Exp 7314 19 female R 2 1 9 immoralOther immoralOther match n m 0 0.7041 
16-May-2018_13:54:19 Exp 7314 19 female R 2 1 10 immoralSelf immoralSelf match n n 1 0.7902 
16-May-2018_13:54:22 Exp 7314 19 female R 2 1 11 immoralSelf moralOther mismatch m m 1 0.6984 
16-May-2018_13:54:24 Exp 7314 19 female R 2 1 12 immoralOther immoralSelf mismatch m m 1 0.7445 
16-May-2018_13:54:26 Exp 7314 19 female R 2 1 13 moralOther moralOther match n n 1 0.6226 
16-May-2018_13:54:28 Exp 7314 19 female R 2 1 14 immoralSelf immoralSelf match n m 0 0.5966 
16-May-2018_13:54:31 Exp 7314 19 female R 2 1 15 moralSelf immoralSelf mismatch m m 1 0.7768 
16-May-2018_13:54:33 Exp 7314 19 female R 2 1 16 moralOther moralOther match n n 1 0.5930 
16-May-2018_13:54:35 Exp 7314 19 female R 2 1 17 moralOther immoralSelf mismatch m m 1 0.6452 
16-May-2018_13:54:38 Exp 7314 19 female R 2 1 18 moralSelf immoralSelf mismatch m m 1 0.7033 
16-May-2018_13:54:40 Exp 7314 19 female R 2 1 19 moralOther immoralSelf mismatch m m 1 0.7174 
16-May-2018_13:54:42 Exp 7314 19 female R 2 1 20 immoralOther immoralOther match n n 1 0.7595 
16-May-2018_13:54:45 Exp 7314 19 female R 2 1 21 moralSelf moralSelf match n n 1 0.9697 
16-May-2018_13:54:47 Exp 7314 19 female R 2 1 22 moralSelf moralSelf match n n 1 0.6339 
16-May-2018_13:54:50 Exp 7314 19 female R 2 1 23 moralSelf immoralOther mismatch m m 1 0.6939 
16-May-2018_13:54:52 Exp 7314 19 female R 2 1 24 immoralOther immoralSelf mismatch m m 1 0.7102 
16-May-2018_13:54:54 Exp 7314 19 female R 2 2 1 moralOther moralOther match n n 1 0.7381 
16-May-2018_13:54:57 Exp 7314 19 female R 2 2 2 immoralSelf immoralSelf match n n 1 0.8244 
16-May-2018_13:54:59 Exp 7314 19 female R 2 2 3 immoralSelf immoralOther mismatch m n 0 0.9826 
16-May-2018_13:55:02 Exp 7314 19 female R 2 2 4 moralSelf moralSelf match n n 1 0.6766 
16-May-2018_13:55:04 Exp 7314 19 female R 2 2 5 immoralSelf immoralSelf match n n 1 0.8328 
16-May-2018_13:55:06 Exp 7314 19 female R 2 2 6 immoralSelf immoralSelf match n n 1 0.6689 
16-May-2018_13:55:09 Exp 7314 19 female R 2 2 7 immoralOther immoralOther match n n 1 0.7290 
16-May-2018_13:55:11 Exp 7314 19 female R 2 2 8 moralOther immoralSelf mismatch m m 1 0.7452 
16-May-2018_13:55:13 Exp 7314 19 female R 2 2 9 moralOther moralOther match n n 1 0.6313 
16-May-2018_13:55:16 Exp 7314 19 female R 2 2 10 immoralOther immoralSelf mismatch m m 1 0.8115 
16-May-2018_13:55:18 Exp 7314 19 female R 2 2 11 immoralSelf moralSelf mismatch m n 0 0.7556 
16-May-2018_13:55:21 Exp 7314 19 female R 2 2 12 moralSelf immoralSelf mismatch m NA -1 1.0850 
16-May-2018_13:55:23 Exp 7314 19 female R 2 2 13 immoralOther immoralOther match n n 1 0.6019 
16-May-2018_13:55:25 Exp 7314 19 female R 2 2 14 moralOther moralSelf mismatch m m 1 0.7240 
16-May-2018_13:55:28 Exp 7314 19 female R 2 2 15 moralSelf moralOther mismatch m n 0 0.6382 
16-May-2018_13:55:30 Exp 7314 19 female R 2 2 16 immoralOther immoralOther match n m 0 0.9202 
16-May-2018_13:55:33 Exp 7314 19 female R 2 2 17 moralOther moralSelf mismatch m m 1 0.7624 
16-May-2018_13:55:35 Exp 7314 19 female R 2 2 18 moralSelf immoralOther mismatch m m 1 0.8206 
16-May-2018_13:55:38 Exp 7314 19 female R 2 2 19 immoralSelf immoralOther mismatch m m 1 0.9227 
16-May-2018_13:55:40 Exp 7314 19 female R 2 2 20 moralSelf moralSelf match n n 1 0.6688 
16-May-2018_13:55:42 Exp 7314 19 female R 2 2 21 immoralOther immoralSelf mismatch m m 1 0.7289 
16-May-2018_13:55:45 Exp 7314 19 female R 2 2 22 moralSelf moralSelf match n n 1 0.7370 
16-May-2018_13:55:47 Exp 7314 19 female R 2 2 23 moralOther moralOther match n n 1 0.6732 
16-May-2018_13:55:49 Exp 7314 19 female R 2 2 24 immoralOther immoralSelf mismatch m m 1 0.6534 
16-May-2018_13:55:52 Exp 7314 19 female R 2 3 1 immoralOther immoralOther match n m 0 0.6214 
16-May-2018_13:55:54 Exp 7314 19 female R 2 3 2 moralOther immoralOther mismatch m n 0 0.5556 
16-May-2018_13:55:56 Exp 7314 19 female R 2 3 3 moralSelf moralSelf match n n 1 0.6557 
16-May-2018_13:55:58 Exp 7314 19 female R 2 3 4 moralOther immoralSelf mismatch m m 1 0.5759 
16-May-2018_13:56:00 Exp 7314 19 female R 2 3 5 moralOther moralOther match n n 1 0.5840 
16-May-2018_13:56:03 Exp 7314 19 female R 2 3 6 immoralSelf immoralSelf match n n 1 0.7500 
16-May-2018_13:56:05 Exp 7314 19 female R 2 3 7 immoralOther immoralSelf mismatch m m 1 0.6102 
16-May-2018_13:56:07 Exp 7314 19 female R 2 3 8 immoralSelf immoralSelf match n m 0 0.7704 
16-May-2018_13:56:10 Exp 7314 19 female R 2 3 9 immoralSelf moralOther mismatch m m 1 0.7145 
16-May-2018_13:56:12 Exp 7314 19 female R 2 3 10 moralSelf moralSelf match n n 1 0.7586 
16-May-2018_13:56:14 Exp 7314 19 female R 2 3 11 immoralSelf moralOther mismatch m m 1 0.6248 
16-May-2018_13:56:17 Exp 7314 19 female R 2 3 12 immoralOther immoralOther match n n 1 0.7509 
16-May-2018_13:56:19 Exp 7314 19 female R 2 3 13 moralSelf immoralSelf mismatch m m 1 0.7631 
16-May-2018_13:56:22 Exp 7314 19 female R 2 3 14 immoralSelf immoralSelf match n n 1 0.7492 
16-May-2018_13:56:24 Exp 7314 19 female R 2 3 15 moralOther immoralSelf mismatch m m 1 0.6733 
16-May-2018_13:56:26 Exp 7314 19 female R 2 3 16 moralSelf immoralSelf mismatch m m 1 0.7894 
16-May-2018_13:56:29 Exp 7314 19 female R 2 3 17 immoralOther moralOther mismatch m m 1 0.8655 
16-May-2018_13:56:31 Exp 7314 19 female R 2 3 18 moralSelf moralSelf match n n 1 0.9837 
16-May-2018_13:56:34 Exp 7314 19 female R 2 3 19 moralSelf immoralOther mismatch m m 1 0.6538 
16-May-2018_13:56:36 Exp 7314 19 female R 2 3 20 moralOther moralOther match n n 1 0.8220 
16-May-2018_13:56:38 Exp 7314 19 female R 2 3 21 immoralSelf moralOther mismatch m m 1 0.7642 
16-May-2018_13:56:41 Exp 7314 19 female R 2 3 22 immoralOther immoralOther match n n 1 0.6302 
16-May-2018_13:56:43 Exp 7314 19 female R 2 3 23 immoralOther immoralSelf mismatch m m 1 0.6344 
16-May-2018_13:56:45 Exp 7314 19 female R 2 3 24 moralOther moralOther match n n 1 0.6465 
16-May-2018_13:56:55 Exp 7314 19 female R 2 4 1 moralOther moralOther match n n 1 0.8771 
16-May-2018_13:56:57 Exp 7314 19 female R 2 4 2 moralOther immoralSelf mismatch m m 1 0.5992 
16-May-2018_13:57:00 Exp 7314 19 female R 2 4 3 moralSelf moralSelf match n n 1 0.7053 
16-May-2018_13:57:02 Exp 7314 19 female R 2 4 4 immoralSelf immoralSelf match n n 1 0.7275 
16-May-2018_13:57:04 Exp 7314 19 female R 2 4 5 immoralSelf immoralSelf match n m 0 0.6317 
16-May-2018_13:57:07 Exp 7314 19 female R 2 4 6 immoralOther immoralSelf mismatch m n 0 0.7798 
16-May-2018_13:57:09 Exp 7314 19 female R 2 4 7 moralOther immoralSelf mismatch m m 1 0.7458 
16-May-2018_13:57:12 Exp 7314 19 female R 2 4 8 moralSelf immoralSelf mismatch m n 0 0.7760 
16-May-2018_13:57:14 Exp 7314 19 female R 2 4 9 immoralOther moralSelf mismatch m m 1 0.8562 
16-May-2018_13:57:16 Exp 7314 19 female R 2 4 10 moralOther moralOther match n n 1 0.6322 
16-May-2018_13:57:19 Exp 7314 19 female R 2 4 11 immoralSelf moralSelf mismatch m m 1 0.7484 
16-May-2018_13:57:21 Exp 7314 19 female R 2 4 12 moralSelf immoralSelf mismatch m m 1 0.7607 
16-May-2018_13:57:23 Exp 7314 19 female R 2 4 13 immoralOther immoralSelf mismatch m m 1 0.7147 
16-May-2018_13:57:26 Exp 7314 19 female R 2 4 14 moralSelf moralSelf match n n 1 0.6869 
16-May-2018_13:57:28 Exp 7314 19 female R 2 4 15 moralOther moralSelf mismatch m m 1 0.7129 
16-May-2018_13:57:31 Exp 7314 19 female R 2 4 16 moralSelf moralSelf match n n 1 0.8051 
16-May-2018_13:57:33 Exp 7314 19 female R 2 4 17 immoralOther immoralOther match n n 1 0.7352 
16-May-2018_13:57:35 Exp 7314 19 female R 2 4 18 moralSelf immoralOther mismatch m m 1 0.7274 
16-May-2018_13:57:38 Exp 7314 19 female R 2 4 19 immoralSelf immoralSelf match n n 1 0.7995 
16-May-2018_13:57:40 Exp 7314 19 female R 2 4 20 moralOther moralOther match n n 1 0.6256 
16-May-2018_13:57:42 Exp 7314 19 female R 2 4 21 immoralOther immoralOther match n m 0 0.7838 
16-May-2018_13:57:45 Exp 7314 19 female R 2 4 22 immoralSelf moralSelf mismatch m m 1 0.7339 
16-May-2018_13:57:47 Exp 7314 19 female R 2 4 23 immoralOther immoralOther match n n 1 0.9260 
16-May-2018_13:57:50 Exp 7314 19 female R 2 4 24 immoralSelf immoralOther mismatch m m 1 0.6402 
16-May-2018_13:57:52 Exp 7314 19 female R 2 5 1 immoralOther immoralOther match n n 1 0.6983 
16-May-2018_13:57:54 Exp 7314 19 female R 2 5 2 moralOther immoralSelf mismatch m m 1 0.6725 
16-May-2018_13:57:57 Exp 7314 19 female R 2 5 3 immoralSelf immoralSelf match n n 1 0.7726 
16-May-2018_13:57:59 Exp 7314 19 female R 2 5 4 immoralOther immoralSelf mismatch m m 1 0.7167 
16-May-2018_13:58:01 Exp 7314 19 female R 2 5 5 moralOther immoralOther mismatch m m 1 0.8888 
16-May-2018_13:58:04 Exp 7314 19 female R 2 5 6 moralOther moralOther match n n 1 0.7850 
16-May-2018_13:58:06 Exp 7314 19 female R 2 5 7 immoralOther immoralOther match n m 0 0.6551 
16-May-2018_13:58:09 Exp 7314 19 female R 2 5 8 moralSelf moralOther mismatch m n 0 0.7753 
16-May-2018_13:58:11 Exp 7314 19 female R 2 5 9 immoralSelf immoralOther mismatch m m 1 0.8234 
16-May-2018_13:58:13 Exp 7314 19 female R 2 5 10 immoralSelf moralSelf mismatch m m 1 0.7895 
16-May-2018_13:58:16 Exp 7314 19 female R 2 5 11 moralSelf moralOther mismatch m n 0 0.7535 
16-May-2018_13:58:18 Exp 7314 19 female R 2 5 12 moralSelf moralSelf match n n 1 0.5898 
16-May-2018_13:58:20 Exp 7314 19 female R 2 5 13 moralSelf immoralSelf mismatch m m 1 0.7699 
16-May-2018_13:58:23 Exp 7314 19 female R 2 5 14 immoralOther moralSelf mismatch m m 1 0.8181 
16-May-2018_13:58:25 Exp 7314 19 female R 2 5 15 moralSelf moralSelf match n n 1 0.7041 
16-May-2018_13:58:28 Exp 7314 19 female R 2 5 16 immoralSelf immoralSelf match n n 1 0.7903 
16-May-2018_13:58:30 Exp 7314 19 female R 2 5 17 immoralOther immoralOther match n n 1 0.7384 
16-May-2018_13:58:33 Exp 7314 19 female R 2 5 18 immoralSelf immoralOther mismatch m m 1 1.0326 
16-May-2018_13:58:35 Exp 7314 19 female R 2 5 19 immoralOther moralOther mismatch m m 1 0.8048 
16-May-2018_13:58:37 Exp 7314 19 female R 2 5 20 moralOther moralOther match n n 1 0.5988 
16-May-2018_13:58:40 Exp 7314 19 female R 2 5 21 immoralSelf immoralSelf match n m 0 0.8810 
16-May-2018_13:58:42 Exp 7314 19 female R 2 5 22 moralOther moralOther match n n 1 0.5711 
16-May-2018_13:58:44 Exp 7314 19 female R 2 5 23 moralOther immoralOther mismatch m m 1 0.5473 
16-May-2018_13:58:47 Exp 7314 19 female R 2 5 24 moralSelf moralSelf match n n 1 0.7755 
16-May-2018_13:58:52 Exp 7314 19 female R 3 1 1 moralSelf moralSelf match n m 0 0.7337 
16-May-2018_13:58:54 Exp 7314 19 female R 3 1 2 moralOther immoralSelf mismatch m m 1 0.6778 
16-May-2018_13:58:57 Exp 7314 19 female R 3 1 3 immoralSelf immoralSelf match n n 1 0.7680 
16-May-2018_13:58:59 Exp 7314 19 female R 3 1 4 moralOther immoralOther mismatch m m 1 0.7201 
16-May-2018_13:59:01 Exp 7314 19 female R 3 1 5 immoralOther immoralSelf mismatch m m 1 0.7702 
16-May-2018_13:59:04 Exp 7314 19 female R 3 1 6 moralSelf immoralOther mismatch m m 1 0.7064 
16-May-2018_13:59:06 Exp 7314 19 female R 3 1 7 immoralOther immoralOther match n m 0 0.8246 
16-May-2018_13:59:08 Exp 7314 19 female R 3 1 8 moralOther moralOther match n n 1 0.6626 
16-May-2018_13:59:11 Exp 7314 19 female R 3 1 9 immoralOther moralSelf mismatch m m 1 0.8207 
16-May-2018_13:59:13 Exp 7314 19 female R 3 1 10 moralOther immoralSelf mismatch m m 1 0.7228 
16-May-2018_13:59:16 Exp 7314 19 female R 3 1 11 moralSelf moralSelf match n n 1 0.6451 
16-May-2018_13:59:18 Exp 7314 19 female R 3 1 12 immoralOther immoralOther match n n 1 0.6632 
16-May-2018_13:59:20 Exp 7314 19 female R 3 1 13 immoralSelf moralOther mismatch m m 1 0.7093 
16-May-2018_13:59:23 Exp 7314 19 female R 3 1 14 immoralSelf immoralSelf match n n 1 0.9455 
16-May-2018_13:59:25 Exp 7314 19 female R 3 1 15 moralSelf immoralSelf mismatch m m 1 0.8156 
16-May-2018_13:59:27 Exp 7314 19 female R 3 1 16 moralOther moralOther match n n 1 0.6317 
16-May-2018_13:59:30 Exp 7314 19 female R 3 1 17 moralOther moralOther match n n 1 0.4998 
16-May-2018_13:59:32 Exp 7314 19 female R 3 1 18 immoralSelf immoralSelf match n m 0 0.5460 
16-May-2018_13:59:34 Exp 7314 19 female R 3 1 19 immoralSelf moralOther mismatch m m 1 0.6321 
16-May-2018_13:59:36 Exp 7314 19 female R 3 1 20 moralSelf moralSelf match n n 1 0.7482 
16-May-2018_13:59:39 Exp 7314 19 female R 3 1 21 immoralSelf immoralOther mismatch m m 1 0.8564 
16-May-2018_13:59:41 Exp 7314 19 female R 3 1 22 immoralOther moralOther mismatch m m 1 0.7924 
16-May-2018_13:59:44 Exp 7314 19 female R 3 1 23 immoralOther immoralOther match n n 1 0.7726 
16-May-2018_13:59:46 Exp 7314 19 female R 3 1 24 moralSelf immoralSelf mismatch m m 1 0.6847 
16-May-2018_13:59:48 Exp 7314 19 female R 3 2 1 moralSelf moralOther mismatch m n 0 0.7349 
16-May-2018_13:59:51 Exp 7314 19 female R 3 2 2 moralOther moralOther match n n 1 0.6790 
16-May-2018_13:59:53 Exp 7314 19 female R 3 2 3 immoralOther immoralOther match n n 1 0.6731 
16-May-2018_13:59:55 Exp 7314 19 female R 3 2 4 moralOther immoralOther mismatch m m 1 0.6773 
16-May-2018_13:59:57 Exp 7314 19 female R 3 2 5 moralOther moralOther match n n 1 0.5675 
16-May-2018_14:00:00 Exp 7314 19 female R 3 2 6 immoralSelf immoralSelf match n n 1 0.7835 
16-May-2018_14:00:02 Exp 7314 19 female R 3 2 7 moralOther moralSelf mismatch m m 1 0.7817 
16-May-2018_14:00:05 Exp 7314 19 female R 3 2 8 immoralSelf immoralOther mismatch m m 1 1.0278 
16-May-2018_14:00:07 Exp 7314 19 female R 3 2 9 immoralSelf immoralSelf match n n 1 0.7440 
16-May-2018_14:00:10 Exp 7314 19 female R 3 2 10 moralSelf moralSelf match n n 1 0.9024 
16-May-2018_14:00:12 Exp 7314 19 female R 3 2 11 immoralSelf immoralSelf match n n 1 0.7482 
16-May-2018_14:00:15 Exp 7314 19 female R 3 2 12 moralOther moralOther match n n 1 0.7604 
16-May-2018_14:00:17 Exp 7314 19 female R 3 2 13 moralSelf moralOther mismatch m n 0 0.7545 
16-May-2018_14:00:19 Exp 7314 19 female R 3 2 14 immoralOther moralSelf mismatch m m 1 0.8387 
16-May-2018_14:00:22 Exp 7314 19 female R 3 2 15 immoralOther moralSelf mismatch m m 1 0.8008 
16-May-2018_14:00:24 Exp 7314 19 female R 3 2 16 immoralOther moralOther mismatch m n 0 0.7310 
16-May-2018_14:00:27 Exp 7314 19 female R 3 2 17 moralSelf moralSelf match n n 1 0.7870 
16-May-2018_14:00:29 Exp 7314 19 female R 3 2 18 moralSelf moralOther mismatch m m 1 0.9612 
16-May-2018_14:00:32 Exp 7314 19 female R 3 2 19 immoralSelf moralSelf mismatch m m 1 0.9314 
16-May-2018_14:00:34 Exp 7314 19 female R 3 2 20 immoralSelf moralSelf mismatch m m 1 0.9556 
16-May-2018_14:00:37 Exp 7314 19 female R 3 2 21 moralSelf moralSelf match n n 1 0.7117 
16-May-2018_14:00:39 Exp 7314 19 female R 3 2 22 moralOther immoralOther mismatch m m 1 0.7478 
16-May-2018_14:00:42 Exp 7314 19 female R 3 2 23 immoralOther immoralOther match n n 1 0.7999 
16-May-2018_14:00:44 Exp 7314 19 female R 3 2 24 immoralOther immoralOther match n n 1 0.9700 
16-May-2018_14:00:47 Exp 7314 19 female R 3 3 1 immoralSelf immoralSelf match n n 1 0.9862 
16-May-2018_14:00:49 Exp 7314 19 female R 3 3 2 immoralOther immoralOther match n NA -1 1.0850 
16-May-2018_14:00:52 Exp 7314 19 female R 3 3 3 immoralOther immoralOther match n n 1 0.6185 
16-May-2018_14:00:54 Exp 7314 19 female R 3 3 4 immoralOther immoralSelf mismatch m m 1 0.8326 
16-May-2018_14:00:56 Exp 7314 19 female R 3 3 5 moralOther moralOther match n n 1 0.6207 
16-May-2018_14:00:59 Exp 7314 19 female R 3 3 6 immoralOther moralOther mismatch m m 1 0.7309 
16-May-2018_14:01:01 Exp 7314 19 female R 3 3 7 immoralSelf moralSelf mismatch m m 1 1.0110 
16-May-2018_14:01:04 Exp 7314 19 female R 3 3 8 moralOther immoralSelf mismatch m m 1 0.7391 
16-May-2018_14:01:06 Exp 7314 19 female R 3 3 9 moralOther moralSelf mismatch m m 1 0.7052 
16-May-2018_14:01:08 Exp 7314 19 female R 3 3 10 immoralSelf moralOther mismatch m m 1 0.7354 
16-May-2018_14:01:11 Exp 7314 19 female R 3 3 11 moralSelf immoralOther mismatch m m 1 0.8155 
16-May-2018_14:01:13 Exp 7314 19 female R 3 3 12 immoralSelf immoralSelf match n n 1 0.7517 
16-May-2018_14:01:16 Exp 7314 19 female R 3 3 13 immoralOther moralOther mismatch m m 1 0.7157 
16-May-2018_14:01:18 Exp 7314 19 female R 3 3 14 moralSelf moralSelf match n n 1 0.8799 
16-May-2018_14:01:21 Exp 7314 19 female R 3 3 15 moralSelf moralSelf match n n 1 0.8340 
16-May-2018_14:01:23 Exp 7314 19 female R 3 3 16 moralOther moralOther match n n 1 0.7263 
16-May-2018_14:01:25 Exp 7314 19 female R 3 3 17 moralSelf immoralOther mismatch m m 1 0.7604 
16-May-2018_14:01:28 Exp 7314 19 female R 3 3 18 moralOther immoralSelf mismatch m m 1 0.8105 
16-May-2018_14:01:30 Exp 7314 19 female R 3 3 19 immoralSelf immoralSelf match n n 1 0.6986 
16-May-2018_14:01:32 Exp 7314 19 female R 3 3 20 moralSelf moralSelf match n n 1 0.7128 
16-May-2018_14:01:35 Exp 7314 19 female R 3 3 21 immoralSelf moralOther mismatch m m 1 0.6849 
16-May-2018_14:01:37 Exp 7314 19 female R 3 3 22 moralOther moralOther match n n 1 0.8231 
16-May-2018_14:01:40 Exp 7314 19 female R 3 3 23 immoralOther immoralOther match n n 1 0.9251 
16-May-2018_14:01:42 Exp 7314 19 female R 3 3 24 moralSelf moralOther mismatch m n 0 0.8234 
16-May-2018_14:01:56 Exp 7314 19 female R 3 4 1 immoralSelf immoralSelf match n n 1 0.8121 
16-May-2018_14:01:58 Exp 7314 19 female R 3 4 2 immoralOther immoralSelf mismatch m m 1 0.7800 
16-May-2018_14:02:01 Exp 7314 19 female R 3 4 3 moralSelf moralSelf match n n 1 0.7303 
16-May-2018_14:02:03 Exp 7314 19 female R 3 4 4 immoralSelf immoralSelf match n m 0 0.6585 
16-May-2018_14:02:05 Exp 7314 19 female R 3 4 5 moralSelf moralSelf match n n 1 0.7846 
16-May-2018_14:02:08 Exp 7314 19 female R 3 4 6 immoralOther moralSelf mismatch m m 1 0.7267 
16-May-2018_14:02:10 Exp 7314 19 female R 3 4 7 immoralSelf immoralSelf match n n 1 0.7130 
16-May-2018_14:02:13 Exp 7314 19 female R 3 4 8 moralSelf immoralOther mismatch m m 1 0.8690 
16-May-2018_14:02:15 Exp 7314 19 female R 3 4 9 moralOther immoralOther mismatch m m 1 0.7612 
16-May-2018_14:02:17 Exp 7314 19 female R 3 4 10 immoralSelf moralOther mismatch m m 1 0.7074 
16-May-2018_14:02:20 Exp 7314 19 female R 3 4 11 moralOther moralOther match n n 1 0.7035 
16-May-2018_14:02:22 Exp 7314 19 female R 3 4 12 moralOther moralOther match n n 1 0.5656 
16-May-2018_14:02:24 Exp 7314 19 female R 3 4 13 moralOther immoralOther mismatch m m 1 0.5678 
16-May-2018_14:02:26 Exp 7314 19 female R 3 4 14 immoralSelf immoralOther mismatch m m 1 0.8478 
16-May-2018_14:02:29 Exp 7314 19 female R 3 4 15 moralSelf moralSelf match n n 1 0.7120 
16-May-2018_14:02:31 Exp 7314 19 female R 3 4 16 moralSelf immoralOther mismatch m m 1 0.7161 
16-May-2018_14:02:33 Exp 7314 19 female R 3 4 17 immoralOther immoralOther match n m 0 0.7042 
16-May-2018_14:02:36 Exp 7314 19 female R 3 4 18 immoralSelf moralOther mismatch m m 1 0.7344 
16-May-2018_14:02:38 Exp 7314 19 female R 3 4 19 moralOther moralOther match n n 1 0.6385 
16-May-2018_14:02:40 Exp 7314 19 female R 3 4 20 moralOther immoralOther mismatch m m 1 0.6726 
16-May-2018_14:02:43 Exp 7314 19 female R 3 4 21 immoralOther moralOther mismatch m m 1 0.7807 
16-May-2018_14:02:45 Exp 7314 19 female R 3 4 22 immoralOther immoralOther match n n 1 0.6029 
16-May-2018_14:02:47 Exp 7314 19 female R 3 4 23 immoralOther immoralOther match n n 1 0.7571 
16-May-2018_14:02:50 Exp 7314 19 female R 3 4 24 moralSelf moralOther mismatch m n 0 0.8492 
16-May-2018_14:02:52 Exp 7314 19 female R 3 5 1 moralSelf moralSelf match n n 1 0.8093 
16-May-2018_14:02:55 Exp 7314 19 female R 3 5 2 immoralSelf immoralSelf match n n 1 0.9455 
16-May-2018_14:02:57 Exp 7314 19 female R 3 5 3 immoralOther immoralOther match n n 1 0.8716 
16-May-2018_14:03:00 Exp 7314 19 female R 3 5 4 immoralSelf moralSelf mismatch m m 1 0.9957 
16-May-2018_14:03:02 Exp 7314 19 female R 3 5 5 moralSelf moralSelf match n n 1 0.7039 
16-May-2018_14:03:05 Exp 7314 19 female R 3 5 6 moralOther immoralSelf mismatch m m 1 0.6540 
16-May-2018_14:03:07 Exp 7314 19 female R 3 5 7 moralOther immoralOther mismatch m m 1 0.7101 
16-May-2018_14:03:09 Exp 7314 19 female R 3 5 8 immoralOther moralOther mismatch m m 1 0.9063 
16-May-2018_14:03:12 Exp 7314 19 female R 3 5 9 moralOther moralOther match n n 1 0.7124 
16-May-2018_14:03:14 Exp 7314 19 female R 3 5 10 immoralSelf moralOther mismatch m m 1 0.7165 
16-May-2018_14:03:17 Exp 7314 19 female R 3 5 11 immoralOther immoralOther match n m 0 0.7288 
16-May-2018_14:03:19 Exp 7314 19 female R 3 5 12 moralSelf immoralOther mismatch m m 1 0.8808 
16-May-2018_14:03:22 Exp 7314 19 female R 3 5 13 immoralOther immoralOther match n n 1 0.8750 
16-May-2018_14:03:24 Exp 7314 19 female R 3 5 14 moralOther moralSelf mismatch m m 1 0.9111 
16-May-2018_14:03:27 Exp 7314 19 female R 3 5 15 immoralSelf immoralSelf match n n 1 0.8112 
16-May-2018_14:03:29 Exp 7314 19 female R 3 5 16 moralSelf moralOther mismatch m m 1 0.8194 
16-May-2018_14:03:31 Exp 7314 19 female R 3 5 17 immoralSelf immoralSelf match n n 1 0.7935 
16-May-2018_14:03:34 Exp 7314 19 female R 3 5 18 moralOther moralOther match n m 0 0.9895 
16-May-2018_14:03:36 Exp 7314 19 female R 3 5 19 immoralOther moralOther mismatch m m 1 0.7698 
16-May-2018_14:03:39 Exp 7314 19 female R 3 5 20 moralSelf moralSelf match n n 1 0.8020 
16-May-2018_14:03:41 Exp 7314 19 female R 3 5 21 immoralSelf moralOther mismatch m m 1 0.6441 
16-May-2018_14:03:44 Exp 7314 19 female R 3 5 22 moralOther moralOther match n n 1 0.8783 
16-May-2018_14:03:46 Exp 7314 19 female R 3 5 23 immoralOther moralOther mismatch m m 1 0.7364 
16-May-2018_14:03:48 Exp 7314 19 female R 3 5 24 moralSelf immoralOther mismatch m m 1 0.8166 
Date Prac Sub Age Sex Hand Block Bin Trial Shape Label Match CorrResp Resp ACC RT
16-May-2018_14:09:19 Exp 7314 19 female R 1 1 1 moralSelf moralSelf match n n 1 0.8072 
16-May-2018_14:09:21 Exp 7314 19 female R 1 1 2 immoralOther moralOther mismatch m n 0 1.0073 
16-May-2018_14:09:24 Exp 7314 19 female R 1 1 3 immoralSelf moralSelf mismatch m m 1 0.9355 
16-May-2018_14:09:26 Exp 7314 19 female R 1 1 4 moralOther moralOther match n n 1 0.7036 
16-May-2018_14:09:29 Exp 7314 19 female R 1 1 5 moralSelf moralSelf match n n 1 0.6298 
16-May-2018_14:09:31 Exp 7314 19 female R 1 1 6 immoralSelf immoralSelf match n n 1 0.8739 
16-May-2018_14:09:34 Exp 7314 19 female R 1 1 7 moralSelf moralOther mismatch m m 1 0.8220 
16-May-2018_14:09:36 Exp 7314 19 female R 1 1 8 immoralSelf moralSelf mismatch m NA -1 1.0850 
16-May-2018_14:09:39 Exp 7314 19 female R 1 1 9 immoralOther moralOther mismatch m m 1 0.7983 
16-May-2018_14:09:41 Exp 7314 19 female R 1 1 10 immoralOther immoralOther match n n 1 0.8645 
16-May-2018_14:09:44 Exp 7314 19 female R 1 1 11 immoralSelf immoralSelf match n n 1 0.8546 
16-May-2018_14:09:46 Exp 7314 19 female R 1 1 12 immoralOther immoralOther match n n 1 0.7668 
16-May-2018_14:09:48 Exp 7314 19 female R 1 1 13 immoralOther immoralOther match n n 1 0.6730 
16-May-2018_14:09:51 Exp 7314 19 female R 1 1 14 moralOther moralOther match n m 0 0.9090 
16-May-2018_14:09:54 Exp 7314 19 female R 1 1 15 moralOther immoralSelf mismatch m m 1 1.0171 
16-May-2018_14:09:56 Exp 7314 19 female R 1 1 16 moralSelf moralSelf match n NA -1 1.0850 
16-May-2018_14:09:59 Exp 7314 19 female R 1 1 17 moralOther immoralOther mismatch m m 1 0.8655 
16-May-2018_14:10:01 Exp 7314 19 female R 1 1 18 moralOther moralOther match n n 1 0.9916 
16-May-2018_14:10:04 Exp 7314 19 female R 1 1 19 immoralSelf immoralSelf match n n 1 0.7477 
16-May-2018_14:10:06 Exp 7314 19 female R 1 1 20 moralOther immoralSelf mismatch m m 1 0.7279 
16-May-2018_14:10:09 Exp 7314 19 female R 1 1 21 moralSelf immoralOther mismatch m m 1 0.8080 
16-May-2018_14:10:11 Exp 7314 19 female R 1 1 22 immoralOther immoralSelf mismatch m m 1 0.7602 
16-May-2018_14:10:13 Exp 7314 19 female R 1 1 23 immoralSelf moralOther mismatch m m 1 0.7623 
16-May-2018_14:10:16 Exp 7314 19 female R 1 1 24 moralSelf immoralOther mismatch m m 1 0.9324 
16-May-2018_14:10:18 Exp 7314 19 female R 1 2 1 moralOther moralSelf mismatch m m 1 0.7486 
16-May-2018_14:10:21 Exp 7314 19 female R 1 2 2 immoralSelf moralSelf mismatch m m 1 0.8807 
16-May-2018_14:10:23 Exp 7314 19 female R 1 2 3 immoralSelf immoralSelf match n n 1 0.9789 
16-May-2018_14:10:26 Exp 7314 19 female R 1 2 4 moralOther immoralOther mismatch m m 1 0.9930 
16-May-2018_14:10:29 Exp 7314 19 female R 1 2 5 moralOther moralOther match n m 0 1.0532 
16-May-2018_14:10:31 Exp 7314 19 female R 1 2 6 moralOther moralOther match n n 1 0.5893 
16-May-2018_14:10:33 Exp 7314 19 female R 1 2 7 immoralOther immoralOther match n n 1 0.7693 
16-May-2018_14:10:36 Exp 7314 19 female R 1 2 8 immoralOther moralSelf mismatch m m 1 0.7696 
16-May-2018_14:10:38 Exp 7314 19 female R 1 2 9 moralSelf immoralOther mismatch m m 1 0.7697 
16-May-2018_14:10:40 Exp 7314 19 female R 1 2 10 immoralSelf immoralOther mismatch m m 1 0.7218 
16-May-2018_14:10:43 Exp 7314 19 female R 1 2 11 moralOther moralOther match n n 1 0.7240 
16-May-2018_14:10:45 Exp 7314 19 female R 1 2 12 moralSelf moralSelf match n n 1 0.8861 
16-May-2018_14:10:48 Exp 7314 19 female R 1 2 13 immoralSelf moralSelf mismatch m m 1 0.6962 
16-May-2018_14:10:50 Exp 7314 19 female R 1 2 14 moralSelf moralOther mismatch m m 1 1.0245 
16-May-2018_14:10:53 Exp 7314 19 female R 1 2 15 immoralOther immoralOther match n n 1 0.7185 
16-May-2018_14:10:55 Exp 7314 19 female R 1 2 16 moralSelf immoralSelf mismatch m m 1 0.8066 
16-May-2018_14:10:58 Exp 7314 19 female R 1 2 17 immoralSelf immoralSelf match n m 0 0.8168 
16-May-2018_14:11:00 Exp 7314 19 female R 1 2 18 immoralSelf immoralSelf match n n 1 0.8250 
16-May-2018_14:11:02 Exp 7314 19 female R 1 2 19 moralOther immoralOther mismatch m m 1 0.7751 
16-May-2018_14:11:05 Exp 7314 19 female R 1 2 20 immoralOther immoralOther match n n 1 0.6793 
16-May-2018_14:11:07 Exp 7314 19 female R 1 2 21 moralSelf moralSelf match n n 1 0.9213 
16-May-2018_14:11:10 Exp 7314 19 female R 1 2 22 immoralOther moralOther mismatch m m 1 0.6435 
16-May-2018_14:11:12 Exp 7314 19 female R 1 2 23 moralSelf moralSelf match n n 1 0.7896 
16-May-2018_14:11:14 Exp 7314 19 female R 1 2 24 immoralOther moralSelf mismatch m m 1 0.7698 
Date Prac Sub Age Sex Hand Block Bin Trial Shape Label Match CorrResp Resp ACC RT
16-May-2018_14:16:25 Exp 7314 19 female R 1 1 1 immoralSelf immoralSelf match n n 1 1.0653 
16-May-2018_14:16:28 Exp 7314 19 female R 1 1 2 immoralOther immoralOther match n n 1 0.7975 
16-May-2018_14:16:30 Exp 7314 19 female R 1 1 3 immoralOther immoralSelf mismatch m m 1 0.9596 
16-May-2018_14:16:33 Exp 7314 19 female R 1 1 4 immoralSelf immoralOther mismatch m m 1 0.8018 
16-May-2018_14:16:35 Exp 7314 19 female R 1 1 5 moralOther immoralOther mismatch m m 1 0.8359 
16-May-2018_14:16:37 Exp 7314 19 female R 1 1 6 moralOther moralOther match n n 1 0.7681 
16-May-2018_14:16:40 Exp 7314 19 female R 1 1 7 moralOther immoralOther mismatch m m 1 1.0162 
16-May-2018_14:16:43 Exp 7314 19 female R 1 1 8 moralSelf moralOther mismatch m NA -1 1.0850 
16-May-2018_14:16:45 Exp 7314 19 female R 1 1 9 moralSelf moralSelf match n n 1 0.8585 
16-May-2018_14:16:48 Exp 7314 19 female R 1 1 10 moralSelf immoralOther mismatch m m 1 0.7048 
16-May-2018_14:16:50 Exp 7314 19 female R 1 1 11 immoralSelf moralOther mismatch m m 1 0.7108 
16-May-2018_14:16:52 Exp 7314 19 female R 1 1 12 immoralOther immoralOther match n n 1 0.7469 
16-May-2018_14:16:55 Exp 7314 19 female R 1 1 13 immoralOther immoralOther match n m 0 0.7770 
16-May-2018_14:16:57 Exp 7314 19 female R 1 1 14 moralOther immoralSelf mismatch m m 1 0.7292 
16-May-2018_14:16:59 Exp 7314 19 female R 1 1 15 moralOther moralOther match n n 1 0.8413 
16-May-2018_14:17:02 Exp 7314 19 female R 1 1 16 moralSelf immoralSelf mismatch m m 1 0.8754 
16-May-2018_14:17:04 Exp 7314 19 female R 1 1 17 moralSelf moralSelf match n n 1 0.8316 
16-May-2018_14:17:07 Exp 7314 19 female R 1 1 18 moralOther moralOther match n n 1 0.7638 
16-May-2018_14:17:09 Exp 7314 19 female R 1 1 19 immoralSelf moralSelf mismatch m m 1 0.9499 
16-May-2018_14:17:12 Exp 7314 19 female R 1 1 20 immoralOther moralSelf mismatch m m 1 0.8421 
16-May-2018_14:17:15 Exp 7314 19 female R 1 1 21 immoralOther immoralSelf mismatch m m 1 1.0601 
16-May-2018_14:17:17 Exp 7314 19 female R 1 1 22 immoralSelf immoralSelf match n n 1 0.7863 
16-May-2018_14:17:19 Exp 7314 19 female R 1 1 23 immoralSelf immoralSelf match n n 1 0.8484 
16-May-2018_14:17:22 Exp 7314 19 female R 1 1 24 moralSelf moralSelf match n m 0 0.6966 
16-May-2018_14:17:24 Exp 7314 19 female R 1 2 1 immoralSelf immoralSelf match n n 1 0.7768 
16-May-2018_14:17:27 Exp 7314 19 female R 1 2 2 immoralOther immoralOther match n n 1 0.8328 
16-May-2018_14:17:29 Exp 7314 19 female R 1 2 3 moralOther moralOther match n n 1 0.6290 
16-May-2018_14:17:31 Exp 7314 19 female R 1 2 4 moralOther immoralOther mismatch m m 1 0.6172 
16-May-2018_14:17:34 Exp 7314 19 female R 1 2 5 moralSelf moralOther mismatch m m 1 0.7433 
16-May-2018_14:17:36 Exp 7314 19 female R 1 2 6 immoralOther moralOther mismatch m n 0 0.8135 
16-May-2018_14:17:38 Exp 7314 19 female R 1 2 7 moralSelf moralSelf match n n 1 0.6855 
16-May-2018_14:17:41 Exp 7314 19 female R 1 2 8 immoralSelf immoralSelf match n n 1 0.7917 
16-May-2018_14:17:43 Exp 7314 19 female R 1 2 9 moralSelf moralSelf match n n 1 0.7478 
16-May-2018_14:17:46 Exp 7314 19 female R 1 2 10 moralSelf immoralSelf mismatch m m 1 0.8479 
16-May-2018_14:17:48 Exp 7314 19 female R 1 2 11 immoralSelf moralSelf mismatch m m 1 0.8880 
16-May-2018_14:17:51 Exp 7314 19 female R 1 2 12 immoralOther immoralSelf mismatch m NA -1 1.0850 
16-May-2018_14:17:53 Exp 7314 19 female R 1 2 13 immoralSelf moralSelf mismatch m m 1 0.8183 
16-May-2018_14:17:56 Exp 7314 19 female R 1 2 14 immoralSelf immoralSelf match n n 1 1.0725 
16-May-2018_14:17:58 Exp 7314 19 female R 1 2 15 immoralOther immoralOther match n n 1 0.8606 
16-May-2018_14:18:01 Exp 7314 19 female R 1 2 16 moralOther immoralSelf mismatch m m 1 0.6428 
16-May-2018_14:18:03 Exp 7314 19 female R 1 2 17 moralOther immoralSelf mismatch m m 1 0.7889 
16-May-2018_14:18:06 Exp 7314 19 female R 1 2 18 moralSelf moralSelf match n n 1 0.7691 
16-May-2018_14:18:08 Exp 7314 19 female R 1 2 19 immoralSelf immoralOther mismatch m m 1 0.6892 
16-May-2018_14:18:10 Exp 7314 19 female R 1 2 20 immoralOther moralOther mismatch m m 1 0.7053 
16-May-2018_14:18:13 Exp 7314 19 female R 1 2 21 moralOther moralOther match n n 1 0.9834 
16-May-2018_14:18:15 Exp 7314 19 female R 1 2 22 moralSelf moralOther mismatch m n 0 0.5896 
16-May-2018_14:18:18 Exp 7314 19 female R 1 2 23 immoralOther immoralOther match n n 1 0.8898 
16-May-2018_14:18:20 Exp 7314 19 female R 1 2 24 moralOther moralOther match n n 1 0.7218 
Date Prac Sub Age Sex Hand Block Bin Trial Shape Label Match CorrResp Resp ACC RT
16-May-2018_14:23:09 Exp 7314 19 female R 1 1 1 moralOther moralSelf mismatch m NA -1 1.0850 
16-May-2018_14:23:12 Exp 7314 19 female R 1 1 2 immoralSelf immoralSelf match n n 1 0.8024 
16-May-2018_14:23:14 Exp 7314 19 female R 1 1 3 moralSelf immoralOther mismatch m m 1 0.8366 
16-May-2018_14:23:16 Exp 7314 19 female R 1 1 4 immoralOther moralSelf mismatch m m 1 0.6727 
16-May-2018_14:23:19 Exp 7314 19 female R 1 1 5 moralOther immoralSelf mismatch m m 1 0.7569 
16-May-2018_14:23:21 Exp 7314 19 female R 1 1 6 immoralOther immoralOther match n n 1 0.7770 
16-May-2018_14:23:24 Exp 7314 19 female R 1 1 7 immoralSelf immoralSelf match n m 0 0.8171 
16-May-2018_14:23:26 Exp 7314 19 female R 1 1 8 moralOther moralOther match n n 1 0.7932 
16-May-2018_14:23:29 Exp 7314 19 female R 1 1 9 moralSelf immoralOther mismatch m m 1 0.7814 
16-May-2018_14:23:31 Exp 7314 19 female R 1 1 10 moralSelf moralSelf match n n 1 0.8356 
16-May-2018_14:23:33 Exp 7314 19 female R 1 1 11 immoralOther immoralOther match n n 1 0.6636 
16-May-2018_14:23:36 Exp 7314 19 female R 1 1 12 immoralOther immoralSelf mismatch m m 1 0.8858 
16-May-2018_14:23:38 Exp 7314 19 female R 1 1 13 moralOther moralOther match n n 1 0.6079 
16-May-2018_14:23:41 Exp 7314 19 female R 1 1 14 moralOther moralOther match n n 1 0.8401 
16-May-2018_14:23:43 Exp 7314 19 female R 1 1 15 moralSelf moralSelf match n n 1 0.7222 
16-May-2018_14:23:45 Exp 7314 19 female R 1 1 16 immoralSelf moralOther mismatch m m 1 0.7723 
16-May-2018_14:23:48 Exp 7314 19 female R 1 1 17 immoralSelf immoralOther mismatch m m 1 0.9164 
16-May-2018_14:23:50 Exp 7314 19 female R 1 1 18 immoralOther immoralOther match n n 1 0.8966 
16-May-2018_14:23:53 Exp 7314 19 female R 1 1 19 moralSelf immoralOther mismatch m m 1 0.9688 
16-May-2018_14:23:55 Exp 7314 19 female R 1 1 20 moralSelf moralSelf match n n 1 0.7049 
16-May-2018_14:23:58 Exp 7314 19 female R 1 1 21 moralOther moralSelf mismatch m NA -1 1.0850 
16-May-2018_14:24:00 Exp 7314 19 female R 1 1 22 immoralOther moralSelf mismatch m m 1 0.8252 
16-May-2018_14:24:03 Exp 7314 19 female R 1 1 23 immoralSelf immoralSelf match n n 1 0.8793 
16-May-2018_14:24:05 Exp 7314 19 female R 1 1 24 immoralSelf immoralOther mismatch m m 1 0.6575 
16-May-2018_14:24:08 Exp 7314 19 female R 1 2 1 moralSelf moralOther mismatch m m 1 0.7757 
16-May-2018_14:24:10 Exp 7314 19 female R 1 2 2 moralOther immoralSelf mismatch m m 1 0.6717 
16-May-2018_14:24:13 Exp 7314 19 female R 1 2 3 immoralSelf immoralSelf match n NA -1 1.0850 
16-May-2018_14:24:15 Exp 7314 19 female R 1 2 4 moralSelf moralSelf match n m 0 0.7580 
16-May-2018_14:24:17 Exp 7314 19 female R 1 2 5 immoralSelf moralOther mismatch m m 1 0.7202 
16-May-2018_14:24:20 Exp 7314 19 female R 1 2 6 moralSelf immoralSelf mismatch m m 1 1.0103 
16-May-2018_14:24:22 Exp 7314 19 female R 1 2 7 moralOther moralOther match n n 1 0.5784 
16-May-2018_14:24:24 Exp 7314 19 female R 1 2 8 moralSelf moralSelf match n m 0 0.6646 
16-May-2018_14:24:27 Exp 7314 19 female R 1 2 9 immoralOther immoralOther match n n 1 0.7347 
16-May-2018_14:24:29 Exp 7314 19 female R 1 2 10 immoralSelf immoralOther mismatch m m 1 0.7349 
16-May-2018_14:24:32 Exp 7314 19 female R 1 2 11 immoralOther immoralOther match n n 1 0.7109 
16-May-2018_14:24:34 Exp 7314 19 female R 1 2 12 immoralOther moralSelf mismatch m n 0 0.6911 
16-May-2018_14:24:36 Exp 7314 19 female R 1 2 13 immoralSelf immoralSelf match n n 1 0.7152 
16-May-2018_14:24:39 Exp 7314 19 female R 1 2 14 immoralOther moralOther mismatch m m 1 0.7273 
16-May-2018_14:24:41 Exp 7314 19 female R 1 2 15 moralSelf moralSelf match n n 1 0.6955 
16-May-2018_14:24:43 Exp 7314 19 female R 1 2 16 immoralSelf immoralSelf match n n 1 0.7436 
16-May-2018_14:24:46 Exp 7314 19 female R 1 2 17 moralSelf immoralSelf mismatch m m 1 0.9337 
16-May-2018_14:24:48 Exp 7314 19 female R 1 2 18 moralOther immoralOther mismatch m m 1 0.6619 
16-May-2018_14:24:50 Exp 7314 19 female R 1 2 19 immoralOther immoralSelf mismatch m m 1 0.7560 
16-May-2018_14:24:53 Exp 7314 19 female R 1 2 20 moralOther moralOther match n n 1 0.7202 
16-May-2018_14:24:55 Exp 7314 19 female R 1 2 21 moralOther immoralSelf mismatch m m 1 0.7223 
16-May-2018_14:24:58 Exp 7314 19 female R 1 2 22 moralOther moralOther match n n 1 0.8205 
16-May-2018_14:25:00 Exp 7314 19 female R 1 2 23 immoralSelf moralOther mismatch m m 1 0.7465 
16-May-2018_14:25:02 Exp 7314 19 female R 1 2 24 immoralOther immoralOther match n n 1 0.5928 
Date Prac Sub Age Sex Hand Block Bin Trial Shape Label Match CorrResp Resp ACC RT
16-May-2018_14:29:36 Exp 7314 19 female R 1 1 1 moralOther immoralOther mismatch m m 1 0.9002 
16-May-2018_14:29:38 Exp 7314 19 female R 1 1 2 moralSelf moralSelf match n n 1 0.6264 
16-May-2018_14:29:40 Exp 7314 19 female R 1 1 3 moralOther immoralSelf mismatch m m 1 0.7206 
16-May-2018_14:29:43 Exp 7314 19 female R 1 1 4 immoralOther immoralOther match n n 1 0.8187 
16-May-2018_14:29:45 Exp 7314 19 female R 1 1 5 immoralSelf immoralOther mismatch m m 1 0.7687 
16-May-2018_14:29:48 Exp 7314 19 female R 1 1 6 immoralSelf immoralSelf match n n 1 0.8889 
16-May-2018_14:29:50 Exp 7314 19 female R 1 1 7 immoralOther moralOther mismatch m m 1 0.7851 
16-May-2018_14:29:53 Exp 7314 19 female R 1 1 8 immoralSelf immoralOther mismatch m m 1 0.7671 
16-May-2018_14:29:55 Exp 7314 19 female R 1 1 9 immoralOther immoralOther match n n 1 0.6312 
16-May-2018_14:29:57 Exp 7314 19 female R 1 1 10 moralOther moralOther match n n 1 0.6595 
16-May-2018_14:29:59 Exp 7314 19 female R 1 1 11 immoralSelf immoralOther mismatch m m 1 0.6576 
16-May-2018_14:30:02 Exp 7314 19 female R 1 1 12 immoralOther moralOther mismatch m m 1 0.8637 
16-May-2018_14:30:04 Exp 7314 19 female R 1 1 13 moralSelf immoralSelf mismatch m m 1 0.7259 
16-May-2018_14:30:07 Exp 7314 19 female R 1 1 14 moralSelf immoralSelf mismatch m m 1 0.8399 
16-May-2018_14:30:09 Exp 7314 19 female R 1 1 15 immoralSelf immoralSelf match n n 1 0.7381 
16-May-2018_14:30:11 Exp 7314 19 female R 1 1 16 moralOther immoralSelf mismatch m m 1 0.6882 
16-May-2018_14:30:14 Exp 7314 19 female R 1 1 17 immoralSelf immoralSelf match n n 1 1.0564 
16-May-2018_14:30:16 Exp 7314 19 female R 1 1 18 immoralOther immoralOther match n n 1 0.6725 
16-May-2018_14:30:19 Exp 7314 19 female R 1 1 19 moralOther moralOther match n n 1 0.6126 
16-May-2018_14:30:21 Exp 7314 19 female R 1 1 20 moralOther moralOther match n n 1 0.7648 
16-May-2018_14:30:23 Exp 7314 19 female R 1 1 21 immoralOther moralOther mismatch m m 1 0.6869 
16-May-2018_14:30:26 Exp 7314 19 female R 1 1 22 moralSelf immoralOther mismatch m m 1 0.7370 
16-May-2018_14:30:28 Exp 7314 19 female R 1 1 23 moralSelf moralSelf match n n 1 0.6972 
16-May-2018_14:30:30 Exp 7314 19 female R 1 1 24 moralSelf moralSelf match n n 1 0.5994 
16-May-2018_14:30:33 Exp 7314 19 female R 1 2 1 moralOther moralSelf mismatch m m 1 0.8075 
16-May-2018_14:30:35 Exp 7314 19 female R 1 2 2 immoralOther immoralOther match n n 1 0.7756 
16-May-2018_14:30:37 Exp 7314 19 female R 1 2 3 moralSelf moralOther mismatch m m 1 0.7037 
16-May-2018_14:30:40 Exp 7314 19 female R 1 2 4 immoralSelf immoralOther mismatch m m 1 0.9578 
16-May-2018_14:30:42 Exp 7314 19 female R 1 2 5 immoralSelf immoralSelf match n n 1 0.6879 
16-May-2018_14:30:45 Exp 7314 19 female R 1 2 6 moralSelf moralOther mismatch m m 1 0.6641 
16-May-2018_14:30:47 Exp 7314 19 female R 1 2 7 immoralOther moralSelf mismatch m m 1 0.8543 
16-May-2018_14:30:50 Exp 7314 19 female R 1 2 8 immoralSelf immoralSelf match n n 1 0.9025 
16-May-2018_14:30:52 Exp 7314 19 female R 1 2 9 moralSelf moralSelf match n n 1 0.7325 
16-May-2018_14:30:54 Exp 7314 19 female R 1 2 10 moralSelf immoralSelf mismatch m m 1 0.7727 
16-May-2018_14:30:57 Exp 7314 19 female R 1 2 11 immoralOther immoralOther match n n 1 0.6849 
16-May-2018_14:30:59 Exp 7314 19 female R 1 2 12 immoralSelf moralOther mismatch m m 1 0.7511 
16-May-2018_14:31:02 Exp 7314 19 female R 1 2 13 moralOther moralOther match n n 1 0.9071 
16-May-2018_14:31:04 Exp 7314 19 female R 1 2 14 immoralOther immoralOther match n n 1 0.7432 
16-May-2018_14:31:06 Exp 7314 19 female R 1 2 15 moralOther moralOther match n n 1 0.6854 
16-May-2018_14:31:09 Exp 7314 19 female R 1 2 16 immoralSelf moralOther mismatch m m 1 0.6635 
16-May-2018_14:31:11 Exp 7314 19 female R 1 2 17 moralSelf moralSelf match n n 1 0.7016 
16-May-2018_14:31:13 Exp 7314 19 female R 1 2 18 moralOther moralSelf mismatch m m 1 0.5718 
16-May-2018_14:31:16 Exp 7314 19 female R 1 2 19 immoralOther moralSelf mismatch m m 1 0.7879 
16-May-2018_14:31:18 Exp 7314 19 female R 1 2 20 immoralSelf immoralSelf match n n 1 0.8000 
16-May-2018_14:31:20 Exp 7314 19 female R 1 2 21 moralOther immoralSelf mismatch m m 1 0.6903 
16-May-2018_14:31:23 Exp 7314 19 female R 1 2 22 immoralOther moralOther mismatch m m 1 0.7063 
16-May-2018_14:31:25 Exp 7314 19 female R 1 2 23 moralSelf moralSelf match n n 1 0.7685 
16-May-2018_14:31:27 Exp 7314 19 female R 1 2 24 moralOther moralOther match n m 0 0.6566 
Date Prac Sub Age Sex Hand Block Bin Trial Shape Label Match CorrResp Resp ACC RT
16-May-2018_14:36:24 Exp 7314 19 female R 1 1 1 immoralSelf immoralSelf match n n 1 0.9874 
16-May-2018_14:36:26 Exp 7314 19 female R 1 1 2 immoralOther moralSelf mismatch m m 1 0.8075 
16-May-2018_14:36:29 Exp 7314 19 female R 1 1 3 immoralOther moralOther mismatch m m 1 0.7917 
16-May-2018_14:36:31 Exp 7314 19 female R 1 1 4 immoralOther moralOther mismatch m m 1 0.8358 
16-May-2018_14:36:34 Exp 7314 19 female R 1 1 5 moralOther moralSelf mismatch m n 0 0.8480 
16-May-2018_14:36:36 Exp 7314 19 female R 1 1 6 immoralOther immoralOther match n n 1 0.8721 
16-May-2018_14:36:38 Exp 7314 19 female R 1 1 7 moralOther immoralSelf mismatch m m 1 0.6602 
16-May-2018_14:36:41 Exp 7314 19 female R 1 1 8 moralSelf moralSelf match n n 1 0.8503 
16-May-2018_14:36:43 Exp 7314 19 female R 1 1 9 immoralOther immoralOther match n n 1 0.6425 
16-May-2018_14:36:45 Exp 7314 19 female R 1 1 10 immoralSelf immoralSelf match n n 1 0.6846 
16-May-2018_14:36:48 Exp 7314 19 female R 1 1 11 moralSelf immoralSelf mismatch m m 1 0.8627 
16-May-2018_14:36:51 Exp 7314 19 female R 1 1 12 immoralSelf moralSelf mismatch m NA -1 1.0850 
16-May-2018_14:36:53 Exp 7314 19 female R 1 1 13 immoralSelf immoralOther mismatch m m 1 0.7511 
16-May-2018_14:36:55 Exp 7314 19 female R 1 1 14 immoralSelf immoralSelf match n n 1 0.8912 
16-May-2018_14:36:58 Exp 7314 19 female R 1 1 15 moralSelf immoralSelf mismatch m m 1 0.6753 
16-May-2018_14:37:00 Exp 7314 19 female R 1 1 16 moralOther immoralOther mismatch m m 1 0.7435 
16-May-2018_14:37:03 Exp 7314 19 female R 1 1 17 immoralSelf immoralOther mismatch m m 1 0.7736 
16-May-2018_14:37:05 Exp 7314 19 female R 1 1 18 moralSelf moralSelf match n n 1 0.8937 
16-May-2018_14:37:08 Exp 7314 19 female R 1 1 19 immoralOther immoralOther match n m 0 0.9099 
16-May-2018_14:37:10 Exp 7314 19 female R 1 1 20 moralOther moralOther match n n 1 1.0260 
16-May-2018_14:37:12 Exp 7314 19 female R 1 1 21 moralOther moralOther match n n 1 0.5522 
16-May-2018_14:37:15 Exp 7314 19 female R 1 1 22 moralSelf moralSelf match n n 1 0.8203 
16-May-2018_14:37:18 Exp 7314 19 female R 1 1 23 moralSelf immoralSelf mismatch m NA -1 1.0850 
16-May-2018_14:37:20 Exp 7314 19 female R 1 1 24 moralOther moralOther match n n 1 0.5806 
16-May-2018_14:37:22 Exp 7314 19 female R 1 2 1 moralOther moralOther match n n 1 0.7147 
16-May-2018_14:37:24 Exp 7314 19 female R 1 2 2 moralSelf immoralOther mismatch m m 1 0.7028 
16-May-2018_14:37:27 Exp 7314 19 female R 1 2 3 immoralSelf immoralSelf match n n 1 0.8370 
16-May-2018_14:37:29 Exp 7314 19 female R 1 2 4 moralOther moralOther match n n 1 0.9212 
16-May-2018_14:37:32 Exp 7314 19 female R 1 2 5 moralOther immoralSelf mismatch m m 1 0.6353 
16-May-2018_14:37:34 Exp 7314 19 female R 1 2 6 immoralOther immoralOther match n n 1 0.6554 
16-May-2018_14:37:36 Exp 7314 19 female R 1 2 7 immoralOther immoralSelf mismatch m m 1 0.7355 
16-May-2018_14:37:39 Exp 7314 19 female R 1 2 8 immoralSelf immoralSelf match n n 1 0.7517 
16-May-2018_14:37:41 Exp 7314 19 female R 1 2 9 immoralSelf moralOther mismatch m m 1 0.6918 
16-May-2018_14:37:43 Exp 7314 19 female R 1 2 10 immoralSelf immoralOther mismatch m m 1 0.7319 
16-May-2018_14:37:46 Exp 7314 19 female R 1 2 11 moralSelf immoralSelf mismatch m m 1 1.0281 
16-May-2018_14:37:49 Exp 7314 19 female R 1 2 12 moralSelf moralSelf match n n 1 0.8002 
16-May-2018_14:37:51 Exp 7314 19 female R 1 2 13 moralSelf moralSelf match n n 1 0.8903 
16-May-2018_14:37:54 Exp 7314 19 female R 1 2 14 immoralOther immoralSelf mismatch m m 1 1.0185 
16-May-2018_14:37:56 Exp 7314 19 female R 1 2 15 immoralOther immoralOther match n n 1 0.7686 
16-May-2018_14:37:58 Exp 7314 19 female R 1 2 16 immoralOther immoralOther match n n 1 0.6568 
16-May-2018_14:38:01 Exp 7314 19 female R 1 2 17 moralSelf moralOther mismatch m m 1 0.6248 
16-May-2018_14:38:03 Exp 7314 19 female R 1 2 18 immoralSelf immoralSelf match n n 1 0.8469 
16-May-2018_14:38:05 Exp 7314 19 female R 1 2 19 moralOther moralOther match n n 1 0.6731 
16-May-2018_14:38:08 Exp 7314 19 female R 1 2 20 moralOther moralSelf mismatch m m 1 0.6753 
16-May-2018_14:38:10 Exp 7314 19 female R 1 2 21 immoralOther immoralSelf mismatch m m 1 0.6474 
16-May-2018_14:38:12 Exp 7314 19 female R 1 2 22 moralOther immoralOther mismatch m m 1 0.6316 
16-May-2018_14:38:15 Exp 7314 19 female R 1 2 23 moralSelf moralSelf match n n 1 0.6357 
16-May-2018_14:38:17 Exp 7314 19 female R 1 2 24 immoralSelf moralSelf mismatch m m 1 0.6238 
