Date Prac Sub Age Sex Hand Block Bin Trial Shape Label Match CorrResp Resp ACC RT
20-May-2018_16:00:42 Exp 7325 21 male R 1 1 1 immoralSelf immoralSelf match m m 1 0.6125 
20-May-2018_16:00:45 Exp 7325 21 male R 1 1 2 immoralSelf moralOther mismatch n n 1 0.6455 
20-May-2018_16:00:47 Exp 7325 21 male R 1 1 3 moralOther moralOther match m m 1 0.8433 
20-May-2018_16:00:49 Exp 7325 21 male R 1 1 4 moralSelf immoralOther mismatch n n 1 0.6448 
20-May-2018_16:00:52 Exp 7325 21 male R 1 1 5 immoralOther moralSelf mismatch n n 1 0.5705 
20-May-2018_16:00:54 Exp 7325 21 male R 1 1 6 immoralOther moralSelf mismatch n n 1 0.5226 
20-May-2018_16:00:56 Exp 7325 21 male R 1 1 7 moralOther immoralOther mismatch n n 1 0.6338 
20-May-2018_16:00:58 Exp 7325 21 male R 1 1 8 immoralOther immoralOther match m m 1 0.6112 
20-May-2018_16:01:01 Exp 7325 21 male R 1 1 9 immoralSelf moralSelf mismatch n m 0 0.7322 
20-May-2018_16:01:03 Exp 7325 21 male R 1 1 10 immoralOther immoralOther match m m 1 0.7276 
20-May-2018_16:01:05 Exp 7325 21 male R 1 1 11 moralOther immoralSelf mismatch n n 1 0.7631 
20-May-2018_16:01:08 Exp 7325 21 male R 1 1 12 moralOther moralOther match m m 1 0.7872 
20-May-2018_16:01:10 Exp 7325 21 male R 1 1 13 immoralSelf immoralSelf match m m 1 0.5798 
20-May-2018_16:01:12 Exp 7325 21 male R 1 1 14 moralSelf immoralOther mismatch n m 0 0.4400 
20-May-2018_16:01:15 Exp 7325 21 male R 1 1 15 immoralSelf moralSelf mismatch n m 0 0.8176 
20-May-2018_16:01:17 Exp 7325 21 male R 1 1 16 immoralOther immoralOther match m m 1 0.7066 
20-May-2018_16:01:19 Exp 7325 21 male R 1 1 17 moralSelf immoralOther mismatch n n 1 0.7975 
20-May-2018_16:01:22 Exp 7325 21 male R 1 1 18 moralSelf moralSelf match m m 1 0.8582 
20-May-2018_16:01:24 Exp 7325 21 male R 1 1 19 moralOther immoralSelf mismatch n n 1 0.6523 
20-May-2018_16:01:26 Exp 7325 21 male R 1 1 20 moralSelf moralSelf match m m 1 0.6099 
20-May-2018_16:01:29 Exp 7325 21 male R 1 1 21 moralSelf moralSelf match m m 1 0.5791 
20-May-2018_16:01:31 Exp 7325 21 male R 1 1 22 moralOther moralOther match m m 1 0.7433 
20-May-2018_16:01:33 Exp 7325 21 male R 1 1 23 immoralOther moralOther mismatch n n 1 0.7030 
20-May-2018_16:01:36 Exp 7325 21 male R 1 1 24 immoralSelf immoralSelf match m m 1 0.6019 
20-May-2018_16:01:38 Exp 7325 21 male R 1 2 1 immoralOther immoralOther match m n 0 0.5949 
20-May-2018_16:01:40 Exp 7325 21 male R 1 2 2 moralOther moralSelf mismatch n m 0 0.5714 
20-May-2018_16:01:42 Exp 7325 21 male R 1 2 3 immoralSelf immoralSelf match m m 1 0.7395 
20-May-2018_16:01:45 Exp 7325 21 male R 1 2 4 moralSelf moralSelf match m m 1 0.6751 
20-May-2018_16:01:47 Exp 7325 21 male R 1 2 5 moralOther immoralOther mismatch n n 1 0.8253 
20-May-2018_16:01:49 Exp 7325 21 male R 1 2 6 moralSelf moralSelf match m m 1 0.6868 
20-May-2018_16:01:52 Exp 7325 21 male R 1 2 7 immoralOther immoralSelf mismatch n n 1 0.9371 
20-May-2018_16:01:54 Exp 7325 21 male R 1 2 8 immoralSelf moralOther mismatch n m 0 0.7564 
20-May-2018_16:01:57 Exp 7325 21 male R 1 2 9 moralOther immoralSelf mismatch n n 1 0.6563 
20-May-2018_16:01:59 Exp 7325 21 male R 1 2 10 immoralSelf immoralSelf match m n 0 0.8103 
20-May-2018_16:02:01 Exp 7325 21 male R 1 2 11 moralSelf moralSelf match m m 1 0.5313 
20-May-2018_16:02:04 Exp 7325 21 male R 1 2 12 immoralSelf immoralSelf match m m 1 0.5429 
20-May-2018_16:02:06 Exp 7325 21 male R 1 2 13 moralSelf immoralOther mismatch n n 1 0.6703 
20-May-2018_16:02:08 Exp 7325 21 male R 1 2 14 moralOther moralOther match m m 1 0.6846 
20-May-2018_16:02:10 Exp 7325 21 male R 1 2 15 immoralOther moralSelf mismatch n n 1 0.5750 
20-May-2018_16:02:13 Exp 7325 21 male R 1 2 16 moralSelf immoralSelf mismatch n n 1 0.7233 
20-May-2018_16:02:15 Exp 7325 21 male R 1 2 17 immoralOther immoralOther match m m 1 0.5064 
20-May-2018_16:02:17 Exp 7325 21 male R 1 2 18 moralOther moralOther match m m 1 0.7493 
20-May-2018_16:02:19 Exp 7325 21 male R 1 2 19 moralOther moralOther match m n 0 0.5489 
20-May-2018_16:02:22 Exp 7325 21 male R 1 2 20 immoralOther immoralSelf mismatch n n 1 0.8045 
20-May-2018_16:02:24 Exp 7325 21 male R 1 2 21 immoralSelf moralSelf mismatch n n 1 0.7614 
20-May-2018_16:02:27 Exp 7325 21 male R 1 2 22 immoralOther immoralOther match m m 1 0.6612 
20-May-2018_16:02:29 Exp 7325 21 male R 1 2 23 immoralSelf moralSelf mismatch n n 1 0.5993 
20-May-2018_16:02:31 Exp 7325 21 male R 1 2 24 moralSelf immoralSelf mismatch n n 1 0.8920 
20-May-2018_16:02:34 Exp 7325 21 male R 1 3 1 moralOther moralOther match m m 1 0.7513 
20-May-2018_16:02:36 Exp 7325 21 male R 1 3 2 moralOther moralSelf mismatch n n 1 0.8113 
20-May-2018_16:02:38 Exp 7325 21 male R 1 3 3 moralSelf moralOther mismatch n m 0 0.7083 
20-May-2018_16:02:41 Exp 7325 21 male R 1 3 4 immoralSelf immoralSelf match m m 1 0.6873 
20-May-2018_16:02:43 Exp 7325 21 male R 1 3 5 moralOther immoralSelf mismatch n n 1 0.7217 
20-May-2018_16:02:46 Exp 7325 21 male R 1 3 6 immoralSelf moralOther mismatch n m 0 0.8729 
20-May-2018_16:02:48 Exp 7325 21 male R 1 3 7 moralSelf moralOther mismatch n n 1 0.6710 
20-May-2018_16:02:50 Exp 7325 21 male R 1 3 8 immoralOther immoralOther match m m 1 0.5332 
20-May-2018_16:02:52 Exp 7325 21 male R 1 3 9 immoralOther immoralOther match m m 1 0.7366 
20-May-2018_16:02:55 Exp 7325 21 male R 1 3 10 immoralOther moralSelf mismatch n n 1 0.6120 
20-May-2018_16:02:57 Exp 7325 21 male R 1 3 11 moralSelf moralSelf match m m 1 0.5090 
20-May-2018_16:02:59 Exp 7325 21 male R 1 3 12 moralSelf moralSelf match m m 1 0.5119 
20-May-2018_16:03:01 Exp 7325 21 male R 1 3 13 immoralOther moralOther mismatch n n 1 0.6829 
20-May-2018_16:03:03 Exp 7325 21 male R 1 3 14 immoralOther moralOther mismatch n n 1 0.4373 
20-May-2018_16:03:06 Exp 7325 21 male R 1 3 15 moralSelf moralSelf match m m 1 0.5188 
20-May-2018_16:03:08 Exp 7325 21 male R 1 3 16 moralSelf moralOther mismatch n m 0 0.4299 
20-May-2018_16:03:10 Exp 7325 21 male R 1 3 17 immoralSelf immoralOther mismatch n n 1 0.6991 
20-May-2018_16:03:12 Exp 7325 21 male R 1 3 18 immoralOther immoralOther match m m 1 0.6338 
20-May-2018_16:03:14 Exp 7325 21 male R 1 3 19 immoralSelf immoralSelf match m m 1 0.6354 
20-May-2018_16:03:17 Exp 7325 21 male R 1 3 20 immoralSelf immoralOther mismatch n n 1 0.7248 
20-May-2018_16:03:19 Exp 7325 21 male R 1 3 21 moralOther moralSelf mismatch n m 0 0.9720 
20-May-2018_16:03:22 Exp 7325 21 male R 1 3 22 immoralSelf immoralSelf match m m 1 0.9721 
20-May-2018_16:03:24 Exp 7325 21 male R 1 3 23 moralOther moralOther match m m 1 0.8202 
20-May-2018_16:03:27 Exp 7325 21 male R 1 3 24 moralOther moralOther match m n 0 0.5732 
20-May-2018_16:03:42 Exp 7325 21 male R 1 4 1 moralSelf immoralOther mismatch n n 1 0.7757 
20-May-2018_16:03:44 Exp 7325 21 male R 1 4 2 immoralOther immoralOther match m m 1 0.6680 
20-May-2018_16:03:46 Exp 7325 21 male R 1 4 3 moralSelf moralSelf match m m 1 0.5062 
20-May-2018_16:03:48 Exp 7325 21 male R 1 4 4 immoralOther immoralOther match m m 1 0.5652 
20-May-2018_16:03:51 Exp 7325 21 male R 1 4 5 immoralOther moralOther mismatch n m 0 0.9012 
20-May-2018_16:03:53 Exp 7325 21 male R 1 4 6 moralOther moralOther match m m 1 0.5319 
20-May-2018_16:03:55 Exp 7325 21 male R 1 4 7 immoralOther immoralSelf mismatch n n 1 0.7033 
20-May-2018_16:03:58 Exp 7325 21 male R 1 4 8 immoralSelf moralSelf mismatch n n 1 0.8661 
20-May-2018_16:04:00 Exp 7325 21 male R 1 4 9 immoralSelf immoralSelf match m m 1 0.5881 
20-May-2018_16:04:02 Exp 7325 21 male R 1 4 10 immoralSelf immoralSelf match m m 1 0.7887 
20-May-2018_16:04:05 Exp 7325 21 male R 1 4 11 moralSelf moralSelf match m m 1 0.6293 
20-May-2018_16:04:07 Exp 7325 21 male R 1 4 12 immoralSelf moralSelf mismatch n m 0 0.6346 
20-May-2018_16:04:09 Exp 7325 21 male R 1 4 13 immoralSelf immoralSelf match m m 1 0.5481 
20-May-2018_16:04:11 Exp 7325 21 male R 1 4 14 moralOther moralOther match m m 1 0.5397 
20-May-2018_16:04:14 Exp 7325 21 male R 1 4 15 moralSelf immoralSelf mismatch n n 1 0.5874 
20-May-2018_16:04:16 Exp 7325 21 male R 1 4 16 immoralSelf immoralOther mismatch n m 0 0.6039 
20-May-2018_16:04:18 Exp 7325 21 male R 1 4 17 moralOther immoralOther mismatch n n 1 0.7126 
20-May-2018_16:04:20 Exp 7325 21 male R 1 4 18 moralOther moralOther match m m 1 0.6435 
20-May-2018_16:04:23 Exp 7325 21 male R 1 4 19 moralSelf moralSelf match m n 0 0.9650 
20-May-2018_16:04:25 Exp 7325 21 male R 1 4 20 moralOther immoralOther mismatch n n 1 0.6771 
20-May-2018_16:04:27 Exp 7325 21 male R 1 4 21 immoralOther immoralOther match m m 1 0.5874 
20-May-2018_16:04:30 Exp 7325 21 male R 1 4 22 immoralOther moralSelf mismatch n n 1 0.5799 
20-May-2018_16:04:32 Exp 7325 21 male R 1 4 23 moralOther moralSelf mismatch n n 1 0.6243 
20-May-2018_16:04:34 Exp 7325 21 male R 1 4 24 moralSelf moralOther mismatch n n 1 0.7335 
20-May-2018_16:04:37 Exp 7325 21 male R 1 5 1 moralSelf immoralOther mismatch n n 1 0.6649 
20-May-2018_16:04:39 Exp 7325 21 male R 1 5 2 moralOther immoralOther mismatch n n 1 0.5868 
20-May-2018_16:04:41 Exp 7325 21 male R 1 5 3 moralOther moralOther match m m 1 0.5155 
20-May-2018_16:04:43 Exp 7325 21 male R 1 5 4 immoralSelf immoralOther mismatch n n 1 0.7706 
20-May-2018_16:04:46 Exp 7325 21 male R 1 5 5 moralOther moralOther match m n 0 0.4906 
20-May-2018_16:04:48 Exp 7325 21 male R 1 5 6 immoralSelf immoralSelf match m m 1 0.6050 
20-May-2018_16:04:50 Exp 7325 21 male R 1 5 7 immoralOther immoralOther match m m 1 0.4500 
20-May-2018_16:04:52 Exp 7325 21 male R 1 5 8 immoralOther immoralOther match m m 1 0.5676 
20-May-2018_16:04:54 Exp 7325 21 male R 1 5 9 immoralSelf immoralOther mismatch n n 1 0.5517 
20-May-2018_16:04:56 Exp 7325 21 male R 1 5 10 immoralSelf immoralSelf match m m 1 0.4996 
20-May-2018_16:04:59 Exp 7325 21 male R 1 5 11 moralSelf moralSelf match m m 1 0.6422 
20-May-2018_16:05:01 Exp 7325 21 male R 1 5 12 moralSelf moralOther mismatch n n 1 0.7479 
20-May-2018_16:05:03 Exp 7325 21 male R 1 5 13 moralOther moralOther match m n 0 0.5713 
20-May-2018_16:05:05 Exp 7325 21 male R 1 5 14 moralOther immoralOther mismatch n n 1 0.6035 
20-May-2018_16:05:08 Exp 7325 21 male R 1 5 15 immoralSelf moralSelf mismatch n n 1 0.6163 
20-May-2018_16:05:10 Exp 7325 21 male R 1 5 16 immoralOther immoralSelf mismatch n n 1 0.5692 
20-May-2018_16:05:12 Exp 7325 21 male R 1 5 17 immoralSelf immoralSelf match m m 1 0.6414 
20-May-2018_16:05:14 Exp 7325 21 male R 1 5 18 moralOther immoralOther mismatch n n 1 0.6908 
20-May-2018_16:05:17 Exp 7325 21 male R 1 5 19 moralSelf moralOther mismatch n n 1 0.7253 
20-May-2018_16:05:19 Exp 7325 21 male R 1 5 20 immoralOther moralOther mismatch n n 1 0.5084 
20-May-2018_16:05:21 Exp 7325 21 male R 1 5 21 immoralOther immoralOther match m n 0 0.5433 
20-May-2018_16:05:23 Exp 7325 21 male R 1 5 22 moralSelf moralSelf match m n 0 0.6230 
20-May-2018_16:05:26 Exp 7325 21 male R 1 5 23 immoralOther immoralSelf mismatch n n 1 0.7643 
20-May-2018_16:05:28 Exp 7325 21 male R 1 5 24 moralSelf moralSelf match m n 0 0.5563 
20-May-2018_16:05:34 Exp 7325 21 male R 2 1 1 moralSelf moralSelf match m m 1 0.9650 
20-May-2018_16:05:36 Exp 7325 21 male R 2 1 2 immoralOther immoralOther match m m 1 0.9011 
20-May-2018_16:05:38 Exp 7325 21 male R 2 1 3 immoralSelf immoralSelf match m m 1 0.5637 
20-May-2018_16:05:41 Exp 7325 21 male R 2 1 4 immoralSelf moralOther mismatch n n 1 0.7719 
20-May-2018_16:05:43 Exp 7325 21 male R 2 1 5 moralOther moralOther match m m 1 0.5719 
20-May-2018_16:05:45 Exp 7325 21 male R 2 1 6 moralOther moralSelf mismatch n m 0 0.7400 
20-May-2018_16:05:47 Exp 7325 21 male R 2 1 7 immoralSelf moralSelf mismatch n m 0 0.4837 
20-May-2018_16:05:50 Exp 7325 21 male R 2 1 8 immoralOther moralSelf mismatch n n 1 0.6141 
20-May-2018_16:05:52 Exp 7325 21 male R 2 1 9 immoralOther immoralOther match m m 1 0.5832 
20-May-2018_16:05:54 Exp 7325 21 male R 2 1 10 immoralSelf immoralSelf match m m 1 0.7714 
20-May-2018_16:05:57 Exp 7325 21 male R 2 1 11 immoralSelf moralOther mismatch n n 1 0.6595 
20-May-2018_16:05:59 Exp 7325 21 male R 2 1 12 immoralOther immoralSelf mismatch n m 0 0.7255 
20-May-2018_16:06:01 Exp 7325 21 male R 2 1 13 moralOther moralOther match m m 1 0.7566 
20-May-2018_16:06:04 Exp 7325 21 male R 2 1 14 immoralSelf immoralSelf match m m 1 0.7285 
20-May-2018_16:06:06 Exp 7325 21 male R 2 1 15 moralSelf immoralSelf mismatch n m 0 0.5318 
20-May-2018_16:06:08 Exp 7325 21 male R 2 1 16 moralOther moralOther match m m 1 0.4713 
20-May-2018_16:06:10 Exp 7325 21 male R 2 1 17 moralOther immoralSelf mismatch n m 0 0.7255 
20-May-2018_16:06:13 Exp 7325 21 male R 2 1 18 moralSelf immoralSelf mismatch n m 0 0.5966 
20-May-2018_16:06:15 Exp 7325 21 male R 2 1 19 moralOther immoralSelf mismatch n n 1 0.6851 
20-May-2018_16:06:17 Exp 7325 21 male R 2 1 20 immoralOther immoralOther match m m 1 0.6957 
20-May-2018_16:06:20 Exp 7325 21 male R 2 1 21 moralSelf moralSelf match m m 1 0.6863 
20-May-2018_16:06:22 Exp 7325 21 male R 2 1 22 moralSelf moralSelf match m m 1 0.5847 
20-May-2018_16:06:24 Exp 7325 21 male R 2 1 23 moralSelf immoralOther mismatch n n 1 0.5810 
20-May-2018_16:06:26 Exp 7325 21 male R 2 1 24 immoralOther immoralSelf mismatch n n 1 0.8574 
20-May-2018_16:06:29 Exp 7325 21 male R 2 2 1 moralOther moralOther match m m 1 0.5954 
20-May-2018_16:06:31 Exp 7325 21 male R 2 2 2 immoralSelf immoralSelf match m m 1 0.6360 
20-May-2018_16:06:33 Exp 7325 21 male R 2 2 3 immoralSelf immoralOther mismatch n n 1 0.5574 
20-May-2018_16:06:35 Exp 7325 21 male R 2 2 4 moralSelf moralSelf match m m 1 0.4973 
20-May-2018_16:06:38 Exp 7325 21 male R 2 2 5 immoralSelf immoralSelf match m m 1 0.7519 
20-May-2018_16:06:40 Exp 7325 21 male R 2 2 6 immoralSelf immoralSelf match m m 1 0.4358 
20-May-2018_16:06:42 Exp 7325 21 male R 2 2 7 immoralOther immoralOther match m m 1 0.6693 
20-May-2018_16:06:44 Exp 7325 21 male R 2 2 8 moralOther immoralSelf mismatch n n 1 0.6515 
20-May-2018_16:06:47 Exp 7325 21 male R 2 2 9 moralOther moralOther match m m 1 0.8252 
20-May-2018_16:06:49 Exp 7325 21 male R 2 2 10 immoralOther immoralSelf mismatch n n 1 0.7345 
20-May-2018_16:06:51 Exp 7325 21 male R 2 2 11 immoralSelf moralSelf mismatch n m 0 0.5539 
20-May-2018_16:06:54 Exp 7325 21 male R 2 2 12 moralSelf immoralSelf mismatch n n 1 0.5898 
20-May-2018_16:06:56 Exp 7325 21 male R 2 2 13 immoralOther immoralOther match m m 1 0.5983 
20-May-2018_16:06:58 Exp 7325 21 male R 2 2 14 moralOther moralSelf mismatch n m 0 0.5631 
20-May-2018_16:07:00 Exp 7325 21 male R 2 2 15 moralSelf moralOther mismatch n n 1 0.6832 
20-May-2018_16:07:03 Exp 7325 21 male R 2 2 16 immoralOther immoralOther match m m 1 0.6216 
20-May-2018_16:07:05 Exp 7325 21 male R 2 2 17 moralOther moralSelf mismatch n n 1 0.6828 
20-May-2018_16:07:07 Exp 7325 21 male R 2 2 18 moralSelf immoralOther mismatch n n 1 0.6454 
20-May-2018_16:07:09 Exp 7325 21 male R 2 2 19 immoralSelf immoralOther mismatch n n 1 0.6512 
20-May-2018_16:07:12 Exp 7325 21 male R 2 2 20 moralSelf moralSelf match m m 1 0.5368 
20-May-2018_16:07:14 Exp 7325 21 male R 2 2 21 immoralOther immoralSelf mismatch n n 1 0.7082 
20-May-2018_16:07:16 Exp 7325 21 male R 2 2 22 moralSelf moralSelf match m m 1 0.5191 
20-May-2018_16:07:18 Exp 7325 21 male R 2 2 23 moralOther moralOther match m m 1 0.6223 
20-May-2018_16:07:21 Exp 7325 21 male R 2 2 24 immoralOther immoralSelf mismatch n n 1 0.8036 
20-May-2018_16:07:23 Exp 7325 21 male R 2 3 1 immoralOther immoralOther match m m 1 0.8883 
20-May-2018_16:07:26 Exp 7325 21 male R 2 3 2 moralOther immoralOther mismatch n n 1 0.6907 
20-May-2018_16:07:28 Exp 7325 21 male R 2 3 3 moralSelf moralSelf match m m 1 0.5412 
20-May-2018_16:07:30 Exp 7325 21 male R 2 3 4 moralOther immoralSelf mismatch n n 1 0.5968 
20-May-2018_16:07:33 Exp 7325 21 male R 2 3 5 moralOther moralOther match m m 1 0.9014 
20-May-2018_16:07:35 Exp 7325 21 male R 2 3 6 immoralSelf immoralSelf match m m 1 0.5560 
20-May-2018_16:07:37 Exp 7325 21 male R 2 3 7 immoralOther immoralSelf mismatch n n 1 0.6399 
20-May-2018_16:07:39 Exp 7325 21 male R 2 3 8 immoralSelf immoralSelf match m m 1 0.6894 
20-May-2018_16:07:42 Exp 7325 21 male R 2 3 9 immoralSelf moralOther mismatch n n 1 0.6119 
20-May-2018_16:07:44 Exp 7325 21 male R 2 3 10 moralSelf moralSelf match m m 1 0.5089 
20-May-2018_16:07:46 Exp 7325 21 male R 2 3 11 immoralSelf moralOther mismatch n n 1 0.6718 
20-May-2018_16:07:48 Exp 7325 21 male R 2 3 12 immoralOther immoralOther match m m 1 0.5660 
20-May-2018_16:07:51 Exp 7325 21 male R 2 3 13 moralSelf immoralSelf mismatch n n 1 0.6701 
20-May-2018_16:07:53 Exp 7325 21 male R 2 3 14 immoralSelf immoralSelf match m m 1 0.5163 
20-May-2018_16:07:55 Exp 7325 21 male R 2 3 15 moralOther immoralSelf mismatch n n 1 0.5635 
20-May-2018_16:07:57 Exp 7325 21 male R 2 3 16 moralSelf immoralSelf mismatch n n 1 0.6516 
20-May-2018_16:07:59 Exp 7325 21 male R 2 3 17 immoralOther moralOther mismatch n m 0 0.6252 
20-May-2018_16:08:02 Exp 7325 21 male R 2 3 18 moralSelf moralSelf match m m 1 0.5986 
20-May-2018_16:08:04 Exp 7325 21 male R 2 3 19 moralSelf immoralOther mismatch n n 1 0.5953 
20-May-2018_16:08:06 Exp 7325 21 male R 2 3 20 moralOther moralOther match m m 1 0.6519 
20-May-2018_16:08:09 Exp 7325 21 male R 2 3 21 immoralSelf moralOther mismatch n n 1 0.7536 
20-May-2018_16:08:11 Exp 7325 21 male R 2 3 22 immoralOther immoralOther match m m 1 0.6774 
20-May-2018_16:08:13 Exp 7325 21 male R 2 3 23 immoralOther immoralSelf mismatch n n 1 0.6757 
20-May-2018_16:08:15 Exp 7325 21 male R 2 3 24 moralOther moralOther match m m 1 0.5138 
20-May-2018_16:08:32 Exp 7325 21 male R 2 4 1 moralOther moralOther match m m 1 0.7197 
20-May-2018_16:08:34 Exp 7325 21 male R 2 4 2 moralOther immoralSelf mismatch n n 1 0.6388 
20-May-2018_16:08:36 Exp 7325 21 male R 2 4 3 moralSelf moralSelf match m m 1 0.4883 
20-May-2018_16:08:38 Exp 7325 21 male R 2 4 4 immoralSelf immoralSelf match m m 1 0.6987 
20-May-2018_16:08:41 Exp 7325 21 male R 2 4 5 immoralSelf immoralSelf match m m 1 0.6894 
20-May-2018_16:08:43 Exp 7325 21 male R 2 4 6 immoralOther immoralSelf mismatch n n 1 0.6999 
20-May-2018_16:08:45 Exp 7325 21 male R 2 4 7 moralOther immoralSelf mismatch n n 1 0.7146 
20-May-2018_16:08:48 Exp 7325 21 male R 2 4 8 moralSelf immoralSelf mismatch n n 1 0.5335 
20-May-2018_16:08:50 Exp 7325 21 male R 2 4 9 immoralOther moralSelf mismatch n n 1 0.7048 
20-May-2018_16:08:52 Exp 7325 21 male R 2 4 10 moralOther moralOther match m m 1 0.5638 
20-May-2018_16:08:55 Exp 7325 21 male R 2 4 11 immoralSelf moralSelf mismatch n n 1 0.7239 
20-May-2018_16:08:57 Exp 7325 21 male R 2 4 12 moralSelf immoralSelf mismatch n n 1 0.6910 
20-May-2018_16:08:59 Exp 7325 21 male R 2 4 13 immoralOther immoralSelf mismatch n n 1 0.7495 
20-May-2018_16:09:01 Exp 7325 21 male R 2 4 14 moralSelf moralSelf match m m 1 0.5651 
20-May-2018_16:09:04 Exp 7325 21 male R 2 4 15 moralOther moralSelf mismatch n m 0 0.6771 
20-May-2018_16:09:06 Exp 7325 21 male R 2 4 16 moralSelf moralSelf match m m 1 0.6194 
20-May-2018_16:09:09 Exp 7325 21 male R 2 4 17 immoralOther immoralOther match m m 1 0.9884 
20-May-2018_16:09:11 Exp 7325 21 male R 2 4 18 moralSelf immoralOther mismatch n n 1 0.6610 
20-May-2018_16:09:13 Exp 7325 21 male R 2 4 19 immoralSelf immoralSelf match m m 1 0.7910 
20-May-2018_16:09:16 Exp 7325 21 male R 2 4 20 moralOther moralOther match m m 1 0.7515 
20-May-2018_16:09:18 Exp 7325 21 male R 2 4 21 immoralOther immoralOther match m m 1 0.5794 
20-May-2018_16:09:21 Exp 7325 21 male R 2 4 22 immoralSelf moralSelf mismatch n n 1 0.9917 
20-May-2018_16:09:23 Exp 7325 21 male R 2 4 23 immoralOther immoralOther match m m 1 0.7842 
20-May-2018_16:09:25 Exp 7325 21 male R 2 4 24 immoralSelf immoralOther mismatch n n 1 0.7247 
20-May-2018_16:09:28 Exp 7325 21 male R 2 5 1 immoralOther immoralOther match m m 1 0.7397 
20-May-2018_16:09:30 Exp 7325 21 male R 2 5 2 moralOther immoralSelf mismatch n n 1 0.6514 
20-May-2018_16:09:32 Exp 7325 21 male R 2 5 3 immoralSelf immoralSelf match m m 1 0.8971 
20-May-2018_16:09:35 Exp 7325 21 male R 2 5 4 immoralOther immoralSelf mismatch n n 1 0.6399 
20-May-2018_16:09:37 Exp 7325 21 male R 2 5 5 moralOther immoralOther mismatch n n 1 0.6413 
20-May-2018_16:09:40 Exp 7325 21 male R 2 5 6 moralOther moralOther match m n 0 0.9708 
20-May-2018_16:09:42 Exp 7325 21 male R 2 5 7 immoralOther immoralOther match m m 1 0.7869 
20-May-2018_16:09:44 Exp 7325 21 male R 2 5 8 moralSelf moralOther mismatch n n 1 0.6194 
20-May-2018_16:09:47 Exp 7325 21 male R 2 5 9 immoralSelf immoralOther mismatch n n 1 0.5805 
20-May-2018_16:09:49 Exp 7325 21 male R 2 5 10 immoralSelf moralSelf mismatch n n 1 0.5608 
20-May-2018_16:09:51 Exp 7325 21 male R 2 5 11 moralSelf moralOther mismatch n n 1 0.6446 
20-May-2018_16:09:53 Exp 7325 21 male R 2 5 12 moralSelf moralSelf match m m 1 0.5225 
20-May-2018_16:09:55 Exp 7325 21 male R 2 5 13 moralSelf immoralSelf mismatch n n 1 0.5615 
20-May-2018_16:09:57 Exp 7325 21 male R 2 5 14 immoralOther moralSelf mismatch n n 1 0.5494 
20-May-2018_16:10:00 Exp 7325 21 male R 2 5 15 moralSelf moralSelf match m n 0 0.6130 
20-May-2018_16:10:02 Exp 7325 21 male R 2 5 16 immoralSelf immoralSelf match m m 1 0.6380 
20-May-2018_16:10:04 Exp 7325 21 male R 2 5 17 immoralOther immoralOther match m m 1 0.6315 
20-May-2018_16:10:07 Exp 7325 21 male R 2 5 18 immoralSelf immoralOther mismatch n n 1 0.7328 
20-May-2018_16:10:09 Exp 7325 21 male R 2 5 19 immoralOther moralOther mismatch n n 1 0.8642 
20-May-2018_16:10:11 Exp 7325 21 male R 2 5 20 moralOther moralOther match m m 1 0.5782 
20-May-2018_16:10:14 Exp 7325 21 male R 2 5 21 immoralSelf immoralSelf match m m 1 0.6145 
20-May-2018_16:10:16 Exp 7325 21 male R 2 5 22 moralOther moralOther match m m 1 0.7915 
20-May-2018_16:10:18 Exp 7325 21 male R 2 5 23 moralOther immoralOther mismatch n m 0 0.8321 
20-May-2018_16:10:21 Exp 7325 21 male R 2 5 24 moralSelf moralSelf match m m 1 0.5894 
20-May-2018_16:10:26 Exp 7325 21 male R 3 1 1 moralSelf moralSelf match m m 1 0.5708 
20-May-2018_16:10:28 Exp 7325 21 male R 3 1 2 moralOther immoralSelf mismatch n n 1 0.7549 
20-May-2018_16:10:31 Exp 7325 21 male R 3 1 3 immoralSelf immoralSelf match m m 1 0.7347 
20-May-2018_16:10:33 Exp 7325 21 male R 3 1 4 moralOther immoralOther mismatch n n 1 0.7060 
20-May-2018_16:10:36 Exp 7325 21 male R 3 1 5 immoralOther immoralSelf mismatch n n 1 0.9250 
20-May-2018_16:10:38 Exp 7325 21 male R 3 1 6 moralSelf immoralOther mismatch n n 1 0.8442 
20-May-2018_16:10:40 Exp 7325 21 male R 3 1 7 immoralOther immoralOther match m m 1 0.5300 
20-May-2018_16:10:42 Exp 7325 21 male R 3 1 8 moralOther moralOther match m m 1 0.5893 
20-May-2018_16:10:45 Exp 7325 21 male R 3 1 9 immoralOther moralSelf mismatch n n 1 0.8778 
20-May-2018_16:10:47 Exp 7325 21 male R 3 1 10 moralOther immoralSelf mismatch n n 1 0.6920 
20-May-2018_16:10:50 Exp 7325 21 male R 3 1 11 moralSelf moralSelf match m m 1 0.6267 
20-May-2018_16:10:52 Exp 7325 21 male R 3 1 12 immoralOther immoralOther match m m 1 0.7040 
20-May-2018_16:10:54 Exp 7325 21 male R 3 1 13 immoralSelf moralOther mismatch n n 1 0.6029 
20-May-2018_16:10:56 Exp 7325 21 male R 3 1 14 immoralSelf immoralSelf match m m 1 0.7277 
20-May-2018_16:10:59 Exp 7325 21 male R 3 1 15 moralSelf immoralSelf mismatch n n 1 0.5232 
20-May-2018_16:11:01 Exp 7325 21 male R 3 1 16 moralOther moralOther match m m 1 0.6422 
20-May-2018_16:11:03 Exp 7325 21 male R 3 1 17 moralOther moralOther match m m 1 0.7557 
20-May-2018_16:11:06 Exp 7325 21 male R 3 1 18 immoralSelf immoralSelf match m m 1 0.6796 
20-May-2018_16:11:08 Exp 7325 21 male R 3 1 19 immoralSelf moralOther mismatch n n 1 0.7781 
20-May-2018_16:11:10 Exp 7325 21 male R 3 1 20 moralSelf moralSelf match m m 1 0.5263 
20-May-2018_16:11:13 Exp 7325 21 male R 3 1 21 immoralSelf immoralOther mismatch n n 1 0.7256 
20-May-2018_16:11:15 Exp 7325 21 male R 3 1 22 immoralOther moralOther mismatch n n 1 0.7967 
20-May-2018_16:11:17 Exp 7325 21 male R 3 1 23 immoralOther immoralOther match m m 1 0.7652 
20-May-2018_16:11:20 Exp 7325 21 male R 3 1 24 moralSelf immoralSelf mismatch n n 1 0.6533 
20-May-2018_16:11:22 Exp 7325 21 male R 3 2 1 moralSelf moralOther mismatch n m 0 0.6031 
20-May-2018_16:11:24 Exp 7325 21 male R 3 2 2 moralOther moralOther match m m 1 0.6958 
20-May-2018_16:11:26 Exp 7325 21 male R 3 2 3 immoralOther immoralOther match m n 0 0.5345 
20-May-2018_16:11:29 Exp 7325 21 male R 3 2 4 moralOther immoralOther mismatch n n 1 0.5619 
20-May-2018_16:11:31 Exp 7325 21 male R 3 2 5 moralOther moralOther match m m 1 0.6980 
20-May-2018_16:11:33 Exp 7325 21 male R 3 2 6 immoralSelf immoralSelf match m m 1 0.6006 
20-May-2018_16:11:35 Exp 7325 21 male R 3 2 7 moralOther moralSelf mismatch n n 1 0.6935 
20-May-2018_16:11:38 Exp 7325 21 male R 3 2 8 immoralSelf immoralOther mismatch n NA -1 1.0841 
20-May-2018_16:11:40 Exp 7325 21 male R 3 2 9 immoralSelf immoralSelf match m m 1 0.5745 
20-May-2018_16:11:43 Exp 7325 21 male R 3 2 10 moralSelf moralSelf match m m 1 0.5388 
20-May-2018_16:11:45 Exp 7325 21 male R 3 2 11 immoralSelf immoralSelf match m m 1 0.8505 
20-May-2018_16:11:47 Exp 7325 21 male R 3 2 12 moralOther moralOther match m m 1 0.5122 
20-May-2018_16:11:49 Exp 7325 21 male R 3 2 13 moralSelf moralOther mismatch n n 1 0.5472 
20-May-2018_16:11:52 Exp 7325 21 male R 3 2 14 immoralOther moralSelf mismatch n n 1 0.5548 
20-May-2018_16:11:54 Exp 7325 21 male R 3 2 15 immoralOther moralSelf mismatch n n 1 0.5827 
20-May-2018_16:11:56 Exp 7325 21 male R 3 2 16 immoralOther moralOther mismatch n n 1 0.6669 
20-May-2018_16:11:58 Exp 7325 21 male R 3 2 17 moralSelf moralSelf match m m 1 0.4769 
20-May-2018_16:12:00 Exp 7325 21 male R 3 2 18 moralSelf moralOther mismatch n n 1 0.6511 
20-May-2018_16:12:03 Exp 7325 21 male R 3 2 19 immoralSelf moralSelf mismatch n n 1 0.6649 
20-May-2018_16:12:05 Exp 7325 21 male R 3 2 20 immoralSelf moralSelf mismatch n n 1 0.5548 
20-May-2018_16:12:07 Exp 7325 21 male R 3 2 21 moralSelf moralSelf match m m 1 0.5586 
20-May-2018_16:12:09 Exp 7325 21 male R 3 2 22 moralOther immoralOther mismatch n n 1 0.5706 
20-May-2018_16:12:11 Exp 7325 21 male R 3 2 23 immoralOther immoralOther match m n 0 0.5466 
20-May-2018_16:12:14 Exp 7325 21 male R 3 2 24 immoralOther immoralOther match m m 1 0.5542 
20-May-2018_16:12:16 Exp 7325 21 male R 3 3 1 immoralSelf immoralSelf match m m 1 0.6140 
20-May-2018_16:12:18 Exp 7325 21 male R 3 3 2 immoralOther immoralOther match m m 1 0.6151 
20-May-2018_16:12:20 Exp 7325 21 male R 3 3 3 immoralOther immoralOther match m m 1 0.5762 
20-May-2018_16:12:23 Exp 7325 21 male R 3 3 4 immoralOther immoralSelf mismatch n n 1 0.5963 
20-May-2018_16:12:25 Exp 7325 21 male R 3 3 5 moralOther moralOther match m n 0 0.7170 
20-May-2018_16:12:27 Exp 7325 21 male R 3 3 6 immoralOther moralOther mismatch n n 1 0.5802 
20-May-2018_16:12:29 Exp 7325 21 male R 3 3 7 immoralSelf moralSelf mismatch n n 1 0.5924 
20-May-2018_16:12:32 Exp 7325 21 male R 3 3 8 moralOther immoralSelf mismatch n n 1 0.6170 
20-May-2018_16:12:34 Exp 7325 21 male R 3 3 9 moralOther moralSelf mismatch n n 1 0.6421 
20-May-2018_16:12:36 Exp 7325 21 male R 3 3 10 immoralSelf moralOther mismatch n n 1 0.6915 
20-May-2018_16:12:38 Exp 7325 21 male R 3 3 11 moralSelf immoralOther mismatch n n 1 0.6022 
20-May-2018_16:12:41 Exp 7325 21 male R 3 3 12 immoralSelf immoralSelf match m m 1 0.8071 
20-May-2018_16:12:43 Exp 7325 21 male R 3 3 13 immoralOther moralOther mismatch n n 1 0.6198 
20-May-2018_16:12:45 Exp 7325 21 male R 3 3 14 moralSelf moralSelf match m m 1 0.5248 
20-May-2018_16:12:48 Exp 7325 21 male R 3 3 15 moralSelf moralSelf match m m 1 0.6600 
20-May-2018_16:12:50 Exp 7325 21 male R 3 3 16 moralOther moralOther match m m 1 0.6540 
20-May-2018_16:12:52 Exp 7325 21 male R 3 3 17 moralSelf immoralOther mismatch n n 1 0.6037 
20-May-2018_16:12:54 Exp 7325 21 male R 3 3 18 moralOther immoralSelf mismatch n n 1 0.7284 
20-May-2018_16:12:57 Exp 7325 21 male R 3 3 19 immoralSelf immoralSelf match m m 1 0.6519 
20-May-2018_16:12:59 Exp 7325 21 male R 3 3 20 moralSelf moralSelf match m m 1 0.5777 
20-May-2018_16:13:01 Exp 7325 21 male R 3 3 21 immoralSelf moralOther mismatch n n 1 0.6699 
20-May-2018_16:13:03 Exp 7325 21 male R 3 3 22 moralOther moralOther match m m 1 0.4922 
20-May-2018_16:13:06 Exp 7325 21 male R 3 3 23 immoralOther immoralOther match m n 0 0.5308 
20-May-2018_16:13:08 Exp 7325 21 male R 3 3 24 moralSelf moralOther mismatch n m 0 0.5182 
20-May-2018_16:13:32 Exp 7325 21 male R 3 4 1 immoralSelf immoralSelf match m n 0 0.6278 
20-May-2018_16:13:34 Exp 7325 21 male R 3 4 2 immoralOther immoralSelf mismatch n n 1 0.5931 
20-May-2018_16:13:37 Exp 7325 21 male R 3 4 3 moralSelf moralSelf match m m 1 0.6576 
20-May-2018_16:13:39 Exp 7325 21 male R 3 4 4 immoralSelf immoralSelf match m m 1 0.7716 
20-May-2018_16:13:41 Exp 7325 21 male R 3 4 5 moralSelf moralSelf match m m 1 0.5558 
20-May-2018_16:13:44 Exp 7325 21 male R 3 4 6 immoralOther moralSelf mismatch n m 0 0.6716 
20-May-2018_16:13:46 Exp 7325 21 male R 3 4 7 immoralSelf immoralSelf match m m 1 0.5497 
20-May-2018_16:13:48 Exp 7325 21 male R 3 4 8 moralSelf immoralOther mismatch n n 1 0.6294 
20-May-2018_16:13:50 Exp 7325 21 male R 3 4 9 moralOther immoralOther mismatch n n 1 0.5227 
20-May-2018_16:13:53 Exp 7325 21 male R 3 4 10 immoralSelf moralOther mismatch n n 1 0.6979 
20-May-2018_16:13:55 Exp 7325 21 male R 3 4 11 moralOther moralOther match m m 1 0.6804 
20-May-2018_16:13:57 Exp 7325 21 male R 3 4 12 moralOther moralOther match m m 1 0.4749 
20-May-2018_16:13:59 Exp 7325 21 male R 3 4 13 moralOther immoralOther mismatch n n 1 0.5132 
20-May-2018_16:14:01 Exp 7325 21 male R 3 4 14 immoralSelf immoralOther mismatch n n 1 0.5240 
20-May-2018_16:14:03 Exp 7325 21 male R 3 4 15 moralSelf moralSelf match m m 1 0.5151 
20-May-2018_16:14:06 Exp 7325 21 male R 3 4 16 moralSelf immoralOther mismatch n n 1 0.4583 
20-May-2018_16:14:08 Exp 7325 21 male R 3 4 17 immoralOther immoralOther match m m 1 0.6124 
20-May-2018_16:14:10 Exp 7325 21 male R 3 4 18 immoralSelf moralOther mismatch n m 0 0.6291 
20-May-2018_16:14:12 Exp 7325 21 male R 3 4 19 moralOther moralOther match m m 1 0.5065 
20-May-2018_16:14:14 Exp 7325 21 male R 3 4 20 moralOther immoralOther mismatch n n 1 0.6054 
20-May-2018_16:14:17 Exp 7325 21 male R 3 4 21 immoralOther moralOther mismatch n n 1 0.6342 
20-May-2018_16:14:19 Exp 7325 21 male R 3 4 22 immoralOther immoralOther match m n 0 0.5157 
20-May-2018_16:14:21 Exp 7325 21 male R 3 4 23 immoralOther immoralOther match m m 1 0.5230 
20-May-2018_16:14:23 Exp 7325 21 male R 3 4 24 moralSelf moralOther mismatch n n 1 0.6660 
20-May-2018_16:14:25 Exp 7325 21 male R 3 5 1 moralSelf moralSelf match m m 1 0.4599 
20-May-2018_16:14:28 Exp 7325 21 male R 3 5 2 immoralSelf immoralSelf match m m 1 0.5579 
20-May-2018_16:14:30 Exp 7325 21 male R 3 5 3 immoralOther immoralOther match m m 1 0.6419 
20-May-2018_16:14:32 Exp 7325 21 male R 3 5 4 immoralSelf moralSelf mismatch n n 1 0.7793 
20-May-2018_16:14:34 Exp 7325 21 male R 3 5 5 moralSelf moralSelf match m m 1 0.5116 
20-May-2018_16:14:37 Exp 7325 21 male R 3 5 6 moralOther immoralSelf mismatch n n 1 0.7065 
20-May-2018_16:14:39 Exp 7325 21 male R 3 5 7 moralOther immoralOther mismatch n n 1 0.6934 
20-May-2018_16:14:41 Exp 7325 21 male R 3 5 8 immoralOther moralOther mismatch n n 1 0.5961 
20-May-2018_16:14:44 Exp 7325 21 male R 3 5 9 moralOther moralOther match m n 0 0.7327 
20-May-2018_16:14:46 Exp 7325 21 male R 3 5 10 immoralSelf moralOther mismatch n n 1 0.7201 
20-May-2018_16:14:48 Exp 7325 21 male R 3 5 11 immoralOther immoralOther match m m 1 0.6232 
20-May-2018_16:14:50 Exp 7325 21 male R 3 5 12 moralSelf immoralOther mismatch n n 1 0.5644 
20-May-2018_16:14:53 Exp 7325 21 male R 3 5 13 immoralOther immoralOther match m m 1 0.6205 
20-May-2018_16:14:55 Exp 7325 21 male R 3 5 14 moralOther moralSelf mismatch n n 1 0.7175 
20-May-2018_16:14:57 Exp 7325 21 male R 3 5 15 immoralSelf immoralSelf match m n 0 0.7568 
20-May-2018_16:15:00 Exp 7325 21 male R 3 5 16 moralSelf moralOther mismatch n n 1 0.8087 
20-May-2018_16:15:02 Exp 7325 21 male R 3 5 17 immoralSelf immoralSelf match m m 1 0.5894 
20-May-2018_16:15:04 Exp 7325 21 male R 3 5 18 moralOther moralOther match m n 0 0.5100 
20-May-2018_16:15:06 Exp 7325 21 male R 3 5 19 immoralOther moralOther mismatch n n 1 0.5609 
20-May-2018_16:15:09 Exp 7325 21 male R 3 5 20 moralSelf moralSelf match m m 1 0.5487 
20-May-2018_16:15:11 Exp 7325 21 male R 3 5 21 immoralSelf moralOther mismatch n n 1 0.6283 
20-May-2018_16:15:13 Exp 7325 21 male R 3 5 22 moralOther moralOther match m m 1 0.6096 
20-May-2018_16:15:15 Exp 7325 21 male R 3 5 23 immoralOther moralOther mismatch n n 1 0.5306 
20-May-2018_16:15:18 Exp 7325 21 male R 3 5 24 moralSelf immoralOther mismatch n n 1 0.8060 
Date Prac Sub Age Sex Hand Block Bin Trial Shape Label Match CorrResp Resp ACC RT
20-May-2018_16:20:20 Exp 7325 21 male R 1 1 1 moralSelf moralSelf match m n 0 0.7275 
20-May-2018_16:20:23 Exp 7325 21 male R 1 1 2 immoralOther moralOther mismatch n n 1 1.0190 
20-May-2018_16:20:25 Exp 7325 21 male R 1 1 3 immoralSelf moralSelf mismatch n m 0 0.5640 
20-May-2018_16:20:27 Exp 7325 21 male R 1 1 4 moralOther moralOther match m m 1 0.5801 
20-May-2018_16:20:29 Exp 7325 21 male R 1 1 5 moralSelf moralSelf match m m 1 0.5364 
20-May-2018_16:20:32 Exp 7325 21 male R 1 1 6 immoralSelf immoralSelf match m m 1 0.6757 
20-May-2018_16:20:34 Exp 7325 21 male R 1 1 7 moralSelf moralOther mismatch n n 1 0.5301 
20-May-2018_16:20:36 Exp 7325 21 male R 1 1 8 immoralSelf moralSelf mismatch n n 1 0.5653 
20-May-2018_16:20:38 Exp 7325 21 male R 1 1 9 immoralOther moralOther mismatch n n 1 0.4935 
20-May-2018_16:20:40 Exp 7325 21 male R 1 1 10 immoralOther immoralOther match m m 1 0.5402 
20-May-2018_16:20:42 Exp 7325 21 male R 1 1 11 immoralSelf immoralSelf match m n 0 0.6517 
20-May-2018_16:20:45 Exp 7325 21 male R 1 1 12 immoralOther immoralOther match m n 0 0.5295 
20-May-2018_16:20:47 Exp 7325 21 male R 1 1 13 immoralOther immoralOther match m m 1 0.5329 
20-May-2018_16:20:49 Exp 7325 21 male R 1 1 14 moralOther moralOther match m m 1 0.5602 
20-May-2018_16:20:51 Exp 7325 21 male R 1 1 15 moralOther immoralSelf mismatch n n 1 0.6121 
20-May-2018_16:20:53 Exp 7325 21 male R 1 1 16 moralSelf moralSelf match m m 1 0.5731 
20-May-2018_16:20:56 Exp 7325 21 male R 1 1 17 moralOther immoralOther mismatch n n 1 0.6452 
20-May-2018_16:20:58 Exp 7325 21 male R 1 1 18 moralOther moralOther match m n 0 0.7149 
20-May-2018_16:21:00 Exp 7325 21 male R 1 1 19 immoralSelf immoralSelf match m m 1 0.6181 
20-May-2018_16:21:03 Exp 7325 21 male R 1 1 20 moralOther immoralSelf mismatch n n 1 0.6431 
20-May-2018_16:21:05 Exp 7325 21 male R 1 1 21 moralSelf immoralOther mismatch n n 1 0.6607 
20-May-2018_16:21:07 Exp 7325 21 male R 1 1 22 immoralOther immoralSelf mismatch n n 1 0.5345 
20-May-2018_16:21:09 Exp 7325 21 male R 1 1 23 immoralSelf moralOther mismatch n n 1 0.6739 
20-May-2018_16:21:12 Exp 7325 21 male R 1 1 24 moralSelf immoralOther mismatch n n 1 0.5762 
20-May-2018_16:21:14 Exp 7325 21 male R 1 2 1 moralOther moralSelf mismatch n n 1 0.6765 
20-May-2018_16:21:16 Exp 7325 21 male R 1 2 2 immoralSelf moralSelf mismatch n n 1 0.5547 
20-May-2018_16:21:18 Exp 7325 21 male R 1 2 3 immoralSelf immoralSelf match m n 0 0.5825 
20-May-2018_16:21:21 Exp 7325 21 male R 1 2 4 moralOther immoralOther mismatch n n 1 0.7068 
20-May-2018_16:21:23 Exp 7325 21 male R 1 2 5 moralOther moralOther match m n 0 0.7258 
20-May-2018_16:21:25 Exp 7325 21 male R 1 2 6 moralOther moralOther match m m 1 0.8129 
20-May-2018_16:21:28 Exp 7325 21 male R 1 2 7 immoralOther immoralOther match m m 1 0.5900 
20-May-2018_16:21:30 Exp 7325 21 male R 1 2 8 immoralOther moralSelf mismatch n m 0 0.7105 
20-May-2018_16:21:32 Exp 7325 21 male R 1 2 9 moralSelf immoralOther mismatch n n 1 0.6494 
20-May-2018_16:21:34 Exp 7325 21 male R 1 2 10 immoralSelf immoralOther mismatch n n 1 0.6071 
20-May-2018_16:21:37 Exp 7325 21 male R 1 2 11 moralOther moralOther match m n 0 0.5319 
20-May-2018_16:21:39 Exp 7325 21 male R 1 2 12 moralSelf moralSelf match m n 0 0.7033 
20-May-2018_16:21:41 Exp 7325 21 male R 1 2 13 immoralSelf moralSelf mismatch n n 1 0.7302 
20-May-2018_16:21:44 Exp 7325 21 male R 1 2 14 moralSelf moralOther mismatch n n 1 0.7416 
20-May-2018_16:21:46 Exp 7325 21 male R 1 2 15 immoralOther immoralOther match m m 1 0.6212 
20-May-2018_16:21:48 Exp 7325 21 male R 1 2 16 moralSelf immoralSelf mismatch n n 1 0.6905 
20-May-2018_16:21:50 Exp 7325 21 male R 1 2 17 immoralSelf immoralSelf match m m 1 0.5649 
20-May-2018_16:21:53 Exp 7325 21 male R 1 2 18 immoralSelf immoralSelf match m m 1 0.6530 
20-May-2018_16:21:55 Exp 7325 21 male R 1 2 19 moralOther immoralOther mismatch n n 1 0.6907 
20-May-2018_16:21:57 Exp 7325 21 male R 1 2 20 immoralOther immoralOther match m n 0 0.7092 
20-May-2018_16:22:00 Exp 7325 21 male R 1 2 21 moralSelf moralSelf match m m 1 0.5920 
20-May-2018_16:22:02 Exp 7325 21 male R 1 2 22 immoralOther moralOther mismatch n n 1 0.8487 
20-May-2018_16:22:05 Exp 7325 21 male R 1 2 23 moralSelf moralSelf match m m 1 0.7264 
20-May-2018_16:22:07 Exp 7325 21 male R 1 2 24 immoralOther moralSelf mismatch n n 1 0.7459 
Date Prac Sub Age Sex Hand Block Bin Trial Shape Label Match CorrResp Resp ACC RT
20-May-2018_16:27:01 Exp 7325 21 male R 1 1 1 immoralSelf immoralSelf match m m 1 0.7925 
20-May-2018_16:27:03 Exp 7325 21 male R 1 1 2 immoralOther immoralOther match m m 1 0.5852 
20-May-2018_16:27:05 Exp 7325 21 male R 1 1 3 immoralOther immoralSelf mismatch n n 1 0.6498 
20-May-2018_16:27:08 Exp 7325 21 male R 1 1 4 immoralSelf immoralOther mismatch n n 1 0.7355 
20-May-2018_16:27:10 Exp 7325 21 male R 1 1 5 moralOther immoralOther mismatch n n 1 0.6189 
20-May-2018_16:27:12 Exp 7325 21 male R 1 1 6 moralOther moralOther match m m 1 0.7799 
20-May-2018_16:27:15 Exp 7325 21 male R 1 1 7 moralOther immoralOther mismatch n n 1 0.4962 
20-May-2018_16:27:17 Exp 7325 21 male R 1 1 8 moralSelf moralOther mismatch n n 1 0.5908 
20-May-2018_16:27:19 Exp 7325 21 male R 1 1 9 moralSelf moralSelf match m m 1 0.5354 
20-May-2018_16:27:21 Exp 7325 21 male R 1 1 10 moralSelf immoralOther mismatch n n 1 0.5228 
20-May-2018_16:27:23 Exp 7325 21 male R 1 1 11 immoralSelf moralOther mismatch n n 1 0.6339 
20-May-2018_16:27:26 Exp 7325 21 male R 1 1 12 immoralOther immoralOther match m n 0 0.5314 
20-May-2018_16:27:28 Exp 7325 21 male R 1 1 13 immoralOther immoralOther match m m 1 0.6068 
20-May-2018_16:27:30 Exp 7325 21 male R 1 1 14 moralOther immoralSelf mismatch n n 1 0.6916 
20-May-2018_16:27:33 Exp 7325 21 male R 1 1 15 moralOther moralOther match m m 1 1.0343 
20-May-2018_16:27:35 Exp 7325 21 male R 1 1 16 moralSelf immoralSelf mismatch n n 1 0.6758 
20-May-2018_16:27:37 Exp 7325 21 male R 1 1 17 moralSelf moralSelf match m n 0 0.6020 
20-May-2018_16:27:40 Exp 7325 21 male R 1 1 18 moralOther moralOther match m m 1 0.6628 
20-May-2018_16:27:42 Exp 7325 21 male R 1 1 19 immoralSelf moralSelf mismatch n n 1 0.7368 
20-May-2018_16:27:44 Exp 7325 21 male R 1 1 20 immoralOther moralSelf mismatch n n 1 0.7562 
20-May-2018_16:27:47 Exp 7325 21 male R 1 1 21 immoralOther immoralSelf mismatch n n 1 0.9520 
20-May-2018_16:27:49 Exp 7325 21 male R 1 1 22 immoralSelf immoralSelf match m m 1 0.5959 
20-May-2018_16:27:52 Exp 7325 21 male R 1 1 23 immoralSelf immoralSelf match m n 0 1.0444 
20-May-2018_16:27:54 Exp 7325 21 male R 1 1 24 moralSelf moralSelf match m m 1 0.6021 
20-May-2018_16:27:56 Exp 7325 21 male R 1 2 1 immoralSelf immoralSelf match m m 1 0.5829 
20-May-2018_16:27:59 Exp 7325 21 male R 1 2 2 immoralOther immoralOther match m n 0 0.7472 
20-May-2018_16:28:01 Exp 7325 21 male R 1 2 3 moralOther moralOther match m m 1 0.5390 
20-May-2018_16:28:03 Exp 7325 21 male R 1 2 4 moralOther immoralOther mismatch n n 1 0.7145 
20-May-2018_16:28:05 Exp 7325 21 male R 1 2 5 moralSelf moralOther mismatch n n 1 0.6534 
20-May-2018_16:28:08 Exp 7325 21 male R 1 2 6 immoralOther moralOther mismatch n n 1 0.7392 
20-May-2018_16:28:10 Exp 7325 21 male R 1 2 7 moralSelf moralSelf match m m 1 0.5948 
20-May-2018_16:28:12 Exp 7325 21 male R 1 2 8 immoralSelf immoralSelf match m m 1 0.6274 
20-May-2018_16:28:14 Exp 7325 21 male R 1 2 9 moralSelf moralSelf match m m 1 0.5126 
20-May-2018_16:28:17 Exp 7325 21 male R 1 2 10 moralSelf immoralSelf mismatch n n 1 0.7395 
20-May-2018_16:28:19 Exp 7325 21 male R 1 2 11 immoralSelf moralSelf mismatch n n 1 0.8351 
20-May-2018_16:28:22 Exp 7325 21 male R 1 2 12 immoralOther immoralSelf mismatch n n 1 1.0446 
20-May-2018_16:28:24 Exp 7325 21 male R 1 2 13 immoralSelf moralSelf mismatch n n 1 0.5704 
20-May-2018_16:28:27 Exp 7325 21 male R 1 2 14 immoralSelf immoralSelf match m n 0 0.7864 
20-May-2018_16:28:29 Exp 7325 21 male R 1 2 15 immoralOther immoralOther match m m 1 0.6990 
20-May-2018_16:28:31 Exp 7325 21 male R 1 2 16 moralOther immoralSelf mismatch n n 1 0.7136 
20-May-2018_16:28:34 Exp 7325 21 male R 1 2 17 moralOther immoralSelf mismatch n n 1 0.7006 
20-May-2018_16:28:36 Exp 7325 21 male R 1 2 18 moralSelf moralSelf match m m 1 0.6353 
20-May-2018_16:28:38 Exp 7325 21 male R 1 2 19 immoralSelf immoralOther mismatch n n 1 0.7088 
20-May-2018_16:28:41 Exp 7325 21 male R 1 2 20 immoralOther moralOther mismatch n n 1 0.7517 
20-May-2018_16:28:43 Exp 7325 21 male R 1 2 21 moralOther moralOther match m m 1 0.7715 
20-May-2018_16:28:45 Exp 7325 21 male R 1 2 22 moralSelf moralOther mismatch n n 1 0.6276 
20-May-2018_16:28:48 Exp 7325 21 male R 1 2 23 immoralOther immoralOther match m m 1 0.6809 
20-May-2018_16:28:50 Exp 7325 21 male R 1 2 24 moralOther moralOther match m m 1 0.6994 
Date Prac Sub Age Sex Hand Block Bin Trial Shape Label Match CorrResp Resp ACC RT
20-May-2018_16:33:34 Exp 7325 21 male R 1 1 1 moralOther moralSelf mismatch n n 1 0.6488 
20-May-2018_16:33:36 Exp 7325 21 male R 1 1 2 immoralSelf immoralSelf match m m 1 0.6466 
20-May-2018_16:33:38 Exp 7325 21 male R 1 1 3 moralSelf immoralOther mismatch n n 1 0.5563 
20-May-2018_16:33:41 Exp 7325 21 male R 1 1 4 immoralOther moralSelf mismatch n n 1 0.6242 
20-May-2018_16:33:43 Exp 7325 21 male R 1 1 5 moralOther immoralSelf mismatch n n 1 0.6614 
20-May-2018_16:33:45 Exp 7325 21 male R 1 1 6 immoralOther immoralOther match m n 0 0.4634 
20-May-2018_16:33:47 Exp 7325 21 male R 1 1 7 immoralSelf immoralSelf match m m 1 0.5133 
20-May-2018_16:33:49 Exp 7325 21 male R 1 1 8 moralOther moralOther match m m 1 0.4842 
20-May-2018_16:33:51 Exp 7325 21 male R 1 1 9 moralSelf immoralOther mismatch n n 1 0.6147 
20-May-2018_16:33:54 Exp 7325 21 male R 1 1 10 moralSelf moralSelf match m m 1 0.5197 
20-May-2018_16:33:56 Exp 7325 21 male R 1 1 11 immoralOther immoralOther match m m 1 0.5509 
20-May-2018_16:33:58 Exp 7325 21 male R 1 1 12 immoralOther immoralSelf mismatch n n 1 0.5227 
20-May-2018_16:34:00 Exp 7325 21 male R 1 1 13 moralOther moralOther match m n 0 0.5618 
20-May-2018_16:34:02 Exp 7325 21 male R 1 1 14 moralOther moralOther match m n 0 0.5699 
20-May-2018_16:34:05 Exp 7325 21 male R 1 1 15 moralSelf moralSelf match m m 1 0.5780 
20-May-2018_16:34:07 Exp 7325 21 male R 1 1 16 immoralSelf moralOther mismatch n n 1 0.6303 
20-May-2018_16:34:09 Exp 7325 21 male R 1 1 17 immoralSelf immoralOther mismatch n n 1 0.8116 
20-May-2018_16:34:12 Exp 7325 21 male R 1 1 18 immoralOther immoralOther match m m 1 0.8046 
20-May-2018_16:34:14 Exp 7325 21 male R 1 1 19 moralSelf immoralOther mismatch n n 1 0.5614 
20-May-2018_16:34:16 Exp 7325 21 male R 1 1 20 moralSelf moralSelf match m m 1 0.5812 
20-May-2018_16:34:18 Exp 7325 21 male R 1 1 21 moralOther moralSelf mismatch n n 1 0.7376 
20-May-2018_16:34:21 Exp 7325 21 male R 1 1 22 immoralOther moralSelf mismatch n n 1 0.6929 
20-May-2018_16:34:23 Exp 7325 21 male R 1 1 23 immoralSelf immoralSelf match m m 1 0.5636 
20-May-2018_16:34:25 Exp 7325 21 male R 1 1 24 immoralSelf immoralOther mismatch n n 1 0.6677 
20-May-2018_16:34:28 Exp 7325 21 male R 1 2 1 moralSelf moralOther mismatch n n 1 0.6819 
20-May-2018_16:34:30 Exp 7325 21 male R 1 2 2 moralOther immoralSelf mismatch n n 1 0.5484 
20-May-2018_16:34:32 Exp 7325 21 male R 1 2 3 immoralSelf immoralSelf match m m 1 0.7320 
20-May-2018_16:34:34 Exp 7325 21 male R 1 2 4 moralSelf moralSelf match m n 0 0.6394 
20-May-2018_16:34:37 Exp 7325 21 male R 1 2 5 immoralSelf moralOther mismatch n n 1 0.6649 
20-May-2018_16:34:39 Exp 7325 21 male R 1 2 6 moralSelf immoralSelf mismatch n m 0 0.6909 
20-May-2018_16:34:41 Exp 7325 21 male R 1 2 7 moralOther moralOther match m m 1 0.8133 
20-May-2018_16:34:44 Exp 7325 21 male R 1 2 8 moralSelf moralSelf match m m 1 0.6223 
20-May-2018_16:34:46 Exp 7325 21 male R 1 2 9 immoralOther immoralOther match m m 1 0.8516 
20-May-2018_16:34:49 Exp 7325 21 male R 1 2 10 immoralSelf immoralOther mismatch n n 1 0.7774 
20-May-2018_16:34:51 Exp 7325 21 male R 1 2 11 immoralOther immoralOther match m m 1 0.5736 
20-May-2018_16:34:53 Exp 7325 21 male R 1 2 12 immoralOther moralSelf mismatch n n 1 0.5939 
20-May-2018_16:34:56 Exp 7325 21 male R 1 2 13 immoralSelf immoralSelf match m m 1 0.8585 
20-May-2018_16:34:58 Exp 7325 21 male R 1 2 14 immoralOther moralOther mismatch n m 0 0.6605 
20-May-2018_16:35:00 Exp 7325 21 male R 1 2 15 moralSelf moralSelf match m m 1 0.6304 
20-May-2018_16:35:03 Exp 7325 21 male R 1 2 16 immoralSelf immoralSelf match m m 1 0.7877 
20-May-2018_16:35:05 Exp 7325 21 male R 1 2 17 moralSelf immoralSelf mismatch n NA -1 1.0841 
20-May-2018_16:35:07 Exp 7325 21 male R 1 2 18 moralOther immoralOther mismatch n m 0 0.5267 
20-May-2018_16:35:10 Exp 7325 21 male R 1 2 19 immoralOther immoralSelf mismatch n n 1 0.6341 
20-May-2018_16:35:12 Exp 7325 21 male R 1 2 20 moralOther moralOther match m m 1 0.5316 
20-May-2018_16:35:14 Exp 7325 21 male R 1 2 21 moralOther immoralSelf mismatch n n 1 0.5590 
20-May-2018_16:35:16 Exp 7325 21 male R 1 2 22 moralOther moralOther match m n 0 0.5308 
20-May-2018_16:35:18 Exp 7325 21 male R 1 2 23 immoralSelf moralOther mismatch n n 1 0.6062 
20-May-2018_16:35:21 Exp 7325 21 male R 1 2 24 immoralOther immoralOther match m m 1 0.5790 
Date Prac Sub Age Sex Hand Block Bin Trial Shape Label Match CorrResp Resp ACC RT
20-May-2018_16:40:45 Exp 7325 21 male R 1 1 1 moralOther immoralOther mismatch n n 1 0.6880 
20-May-2018_16:40:48 Exp 7325 21 male R 1 1 2 moralSelf moralSelf match m m 1 0.4986 
20-May-2018_16:40:50 Exp 7325 21 male R 1 1 3 moralOther immoralSelf mismatch n n 1 0.6412 
20-May-2018_16:40:52 Exp 7325 21 male R 1 1 4 immoralOther immoralOther match m m 1 0.7947 
20-May-2018_16:40:54 Exp 7325 21 male R 1 1 5 immoralSelf immoralOther mismatch n n 1 0.6434 
20-May-2018_16:40:57 Exp 7325 21 male R 1 1 6 immoralSelf immoralSelf match m m 1 0.5328 
20-May-2018_16:40:59 Exp 7325 21 male R 1 1 7 immoralOther moralOther mismatch n n 1 0.6722 
20-May-2018_16:41:01 Exp 7325 21 male R 1 1 8 immoralSelf immoralOther mismatch n n 1 0.7264 
20-May-2018_16:41:04 Exp 7325 21 male R 1 1 9 immoralOther immoralOther match m m 1 0.5736 
20-May-2018_16:41:06 Exp 7325 21 male R 1 1 10 moralOther moralOther match m n 0 0.7938 
20-May-2018_16:41:08 Exp 7325 21 male R 1 1 11 immoralSelf immoralOther mismatch n n 1 0.6104 
20-May-2018_16:41:10 Exp 7325 21 male R 1 1 12 immoralOther moralOther mismatch n n 1 0.5954 
20-May-2018_16:41:13 Exp 7325 21 male R 1 1 13 moralSelf immoralSelf mismatch n m 0 0.6440 
20-May-2018_16:41:15 Exp 7325 21 male R 1 1 14 moralSelf immoralSelf mismatch n n 1 0.6375 
20-May-2018_16:41:17 Exp 7325 21 male R 1 1 15 immoralSelf immoralSelf match m n 0 0.5429 
20-May-2018_16:41:19 Exp 7325 21 male R 1 1 16 moralOther immoralSelf mismatch n n 1 0.5906 
20-May-2018_16:41:22 Exp 7325 21 male R 1 1 17 immoralSelf immoralSelf match m n 0 0.6872 
20-May-2018_16:41:24 Exp 7325 21 male R 1 1 18 immoralOther immoralOther match m m 1 0.7616 
20-May-2018_16:41:26 Exp 7325 21 male R 1 1 19 moralOther moralOther match m m 1 0.4374 
20-May-2018_16:41:28 Exp 7325 21 male R 1 1 20 moralOther moralOther match m m 1 0.5670 
20-May-2018_16:41:31 Exp 7325 21 male R 1 1 21 immoralOther moralOther mismatch n n 1 0.5910 
20-May-2018_16:41:33 Exp 7325 21 male R 1 1 22 moralSelf immoralOther mismatch n n 1 0.5916 
20-May-2018_16:41:35 Exp 7325 21 male R 1 1 23 moralSelf moralSelf match m m 1 0.5521 
20-May-2018_16:41:37 Exp 7325 21 male R 1 1 24 moralSelf moralSelf match m n 0 0.5959 
20-May-2018_16:41:39 Exp 7325 21 male R 1 2 1 moralOther moralSelf mismatch n n 1 0.6605 
20-May-2018_16:41:42 Exp 7325 21 male R 1 2 2 immoralOther immoralOther match m m 1 0.7025 
20-May-2018_16:41:44 Exp 7325 21 male R 1 2 3 moralSelf moralOther mismatch n m 0 0.5572 
20-May-2018_16:41:46 Exp 7325 21 male R 1 2 4 immoralSelf immoralOther mismatch n n 1 0.6490 
20-May-2018_16:41:48 Exp 7325 21 male R 1 2 5 immoralSelf immoralSelf match m m 1 0.5187 
20-May-2018_16:41:51 Exp 7325 21 male R 1 2 6 moralSelf moralOther mismatch n m 0 0.5019 
20-May-2018_16:41:53 Exp 7325 21 male R 1 2 7 immoralOther moralSelf mismatch n n 1 0.6126 
20-May-2018_16:41:55 Exp 7325 21 male R 1 2 8 immoralSelf immoralSelf match m n 0 0.7097 
20-May-2018_16:41:57 Exp 7325 21 male R 1 2 9 moralSelf moralSelf match m m 1 0.4485 
20-May-2018_16:41:59 Exp 7325 21 male R 1 2 10 moralSelf immoralSelf mismatch n n 1 0.5022 
20-May-2018_16:42:01 Exp 7325 21 male R 1 2 11 immoralOther immoralOther match m n 0 0.4929 
20-May-2018_16:42:04 Exp 7325 21 male R 1 2 12 immoralSelf moralOther mismatch n m 0 0.7156 
20-May-2018_16:42:06 Exp 7325 21 male R 1 2 13 moralOther moralOther match m m 1 0.5067 
20-May-2018_16:42:08 Exp 7325 21 male R 1 2 14 immoralOther immoralOther match m m 1 0.5977 
20-May-2018_16:42:10 Exp 7325 21 male R 1 2 15 moralOther moralOther match m m 1 0.5384 
20-May-2018_16:42:13 Exp 7325 21 male R 1 2 16 immoralSelf moralOther mismatch n n 1 0.6260 
20-May-2018_16:42:15 Exp 7325 21 male R 1 2 17 moralSelf moralSelf match m m 1 0.4713 
20-May-2018_16:42:17 Exp 7325 21 male R 1 2 18 moralOther moralSelf mismatch n n 1 0.7335 
20-May-2018_16:42:19 Exp 7325 21 male R 1 2 19 immoralOther moralSelf mismatch n n 1 0.5609 
20-May-2018_16:42:22 Exp 7325 21 male R 1 2 20 immoralSelf immoralSelf match m m 1 0.7887 
20-May-2018_16:42:24 Exp 7325 21 male R 1 2 21 moralOther immoralSelf mismatch n n 1 0.6132 
20-May-2018_16:42:26 Exp 7325 21 male R 1 2 22 immoralOther moralOther mismatch n n 1 0.5983 
20-May-2018_16:42:28 Exp 7325 21 male R 1 2 23 moralSelf moralSelf match m m 1 0.4750 
20-May-2018_16:42:31 Exp 7325 21 male R 1 2 24 moralOther moralOther match m m 1 0.5852 
Date Prac Sub Age Sex Hand Block Bin Trial Shape Label Match CorrResp Resp ACC RT
20-May-2018_16:47:16 Exp 7325 21 male R 1 1 1 immoralSelf immoralSelf match m m 1 0.6529 
20-May-2018_16:47:19 Exp 7325 21 male R 1 1 2 immoralOther moralSelf mismatch n n 1 0.6107 
20-May-2018_16:47:21 Exp 7325 21 male R 1 1 3 immoralOther moralOther mismatch n n 1 0.8757 
20-May-2018_16:47:23 Exp 7325 21 male R 1 1 4 immoralOther moralOther mismatch n n 1 0.4659 
20-May-2018_16:47:26 Exp 7325 21 male R 1 1 5 moralOther moralSelf mismatch n n 1 0.6679 
20-May-2018_16:47:28 Exp 7325 21 male R 1 1 6 immoralOther immoralOther match m m 1 0.5381 
20-May-2018_16:47:30 Exp 7325 21 male R 1 1 7 moralOther immoralSelf mismatch n n 1 0.7255 
20-May-2018_16:47:32 Exp 7325 21 male R 1 1 8 moralSelf moralSelf match m m 1 0.5167 
20-May-2018_16:47:35 Exp 7325 21 male R 1 1 9 immoralOther immoralOther match m m 1 0.6198 
20-May-2018_16:47:37 Exp 7325 21 male R 1 1 10 immoralSelf immoralSelf match m m 1 0.4929 
20-May-2018_16:47:39 Exp 7325 21 male R 1 1 11 moralSelf immoralSelf mismatch n n 1 0.6034 
20-May-2018_16:47:41 Exp 7325 21 male R 1 1 12 immoralSelf moralSelf mismatch n n 1 0.6563 
20-May-2018_16:47:43 Exp 7325 21 male R 1 1 13 immoralSelf immoralOther mismatch n n 1 0.6022 
20-May-2018_16:47:46 Exp 7325 21 male R 1 1 14 immoralSelf immoralSelf match m n 0 0.9270 
20-May-2018_16:47:48 Exp 7325 21 male R 1 1 15 moralSelf immoralSelf mismatch n n 1 0.5705 
20-May-2018_16:47:50 Exp 7325 21 male R 1 1 16 moralOther immoralOther mismatch n n 1 0.6106 
20-May-2018_16:47:52 Exp 7325 21 male R 1 1 17 immoralSelf immoralOther mismatch n n 1 0.4355 
20-May-2018_16:47:55 Exp 7325 21 male R 1 1 18 moralSelf moralSelf match m m 1 0.5570 
20-May-2018_16:47:57 Exp 7325 21 male R 1 1 19 immoralOther immoralOther match m m 1 0.5369 
20-May-2018_16:47:59 Exp 7325 21 male R 1 1 20 moralOther moralOther match m m 1 0.5322 
20-May-2018_16:48:01 Exp 7325 21 male R 1 1 21 moralOther moralOther match m m 1 0.4557 
20-May-2018_16:48:03 Exp 7325 21 male R 1 1 22 moralSelf moralSelf match m m 1 0.6613 
20-May-2018_16:48:06 Exp 7325 21 male R 1 1 23 moralSelf immoralSelf mismatch n n 1 0.6553 
20-May-2018_16:48:08 Exp 7325 21 male R 1 1 24 moralOther moralOther match m m 1 0.7010 
20-May-2018_16:48:10 Exp 7325 21 male R 1 2 1 moralOther moralOther match m m 1 0.6278 
20-May-2018_16:48:12 Exp 7325 21 male R 1 2 2 moralSelf immoralOther mismatch n n 1 0.5530 
20-May-2018_16:48:15 Exp 7325 21 male R 1 2 3 immoralSelf immoralSelf match m m 1 0.8368 
20-May-2018_16:48:17 Exp 7325 21 male R 1 2 4 moralOther moralOther match m n 0 0.6864 
20-May-2018_16:48:19 Exp 7325 21 male R 1 2 5 moralOther immoralSelf mismatch n n 1 0.6407 
20-May-2018_16:48:22 Exp 7325 21 male R 1 2 6 immoralOther immoralOther match m m 1 0.6663 
20-May-2018_16:48:24 Exp 7325 21 male R 1 2 7 immoralOther immoralSelf mismatch n n 1 0.6362 
20-May-2018_16:48:26 Exp 7325 21 male R 1 2 8 immoralSelf immoralSelf match m m 1 0.6218 
20-May-2018_16:48:29 Exp 7325 21 male R 1 2 9 immoralSelf moralOther mismatch n n 1 0.7070 
20-May-2018_16:48:31 Exp 7325 21 male R 1 2 10 immoralSelf immoralOther mismatch n n 1 0.8459 
20-May-2018_16:48:34 Exp 7325 21 male R 1 2 11 moralSelf immoralSelf mismatch n n 1 0.8916 
20-May-2018_16:48:36 Exp 7325 21 male R 1 2 12 moralSelf moralSelf match m m 1 0.4903 
20-May-2018_16:48:38 Exp 7325 21 male R 1 2 13 moralSelf moralSelf match m m 1 0.6127 
20-May-2018_16:48:40 Exp 7325 21 male R 1 2 14 immoralOther immoralSelf mismatch n n 1 0.5258 
20-May-2018_16:48:43 Exp 7325 21 male R 1 2 15 immoralOther immoralOther match m n 0 0.7169 
20-May-2018_16:48:45 Exp 7325 21 male R 1 2 16 immoralOther immoralOther match m m 1 0.7561 
20-May-2018_16:48:47 Exp 7325 21 male R 1 2 17 moralSelf moralOther mismatch n m 0 0.5439 
20-May-2018_16:48:49 Exp 7325 21 male R 1 2 18 immoralSelf immoralSelf match m m 1 0.6876 
20-May-2018_16:48:52 Exp 7325 21 male R 1 2 19 moralOther moralOther match m m 1 0.5380 
20-May-2018_16:48:54 Exp 7325 21 male R 1 2 20 moralOther moralSelf mismatch n n 1 0.5173 
20-May-2018_16:48:56 Exp 7325 21 male R 1 2 21 immoralOther immoralSelf mismatch n n 1 0.6444 
20-May-2018_16:48:58 Exp 7325 21 male R 1 2 22 moralOther immoralOther mismatch n n 1 0.6662 
20-May-2018_16:49:00 Exp 7325 21 male R 1 2 23 moralSelf moralSelf match m m 1 0.5082 
20-May-2018_16:49:03 Exp 7325 21 male R 1 2 24 immoralSelf moralSelf mismatch n n 1 0.5831 
