Date Prac Sub Age Sex Hand Block Bin Trial Shape Label Match CorrResp Resp ACC RT
13-May-2018_14:10:14 Exp 7312 21 female R 1 1 1 moralOther moralOther match n ,< 2 0.9446 
13-May-2018_14:10:16 Exp 7312 21 female R 1 1 2 moralOther moralSelf mismatch m NA -1 1.0841 
13-May-2018_14:10:18 Exp 7312 21 female R 1 1 3 moralSelf moralOther mismatch m n 0 0.4028 
13-May-2018_14:10:21 Exp 7312 21 female R 1 1 4 immoralSelf immoralSelf match n NA -1 1.0841 
13-May-2018_14:10:23 Exp 7312 21 female R 1 1 5 moralOther immoralSelf mismatch m m 1 0.5940 
13-May-2018_14:10:26 Exp 7312 21 female R 1 1 6 immoralSelf moralOther mismatch m n 0 0.9066 
13-May-2018_14:10:28 Exp 7312 21 female R 1 1 7 moralSelf moralOther mismatch m m 1 0.8215 
13-May-2018_14:10:31 Exp 7312 21 female R 1 1 8 immoralOther immoralOther match n n 1 1.0348 
13-May-2018_14:10:33 Exp 7312 21 female R 1 1 9 immoralOther immoralOther match n n 1 0.8043 
13-May-2018_14:10:36 Exp 7312 21 female R 1 1 10 immoralOther moralSelf mismatch m m 1 0.7371 
13-May-2018_14:10:38 Exp 7312 21 female R 1 1 11 moralSelf moralSelf match n n 1 0.4445 
13-May-2018_14:10:40 Exp 7312 21 female R 1 1 12 moralSelf moralSelf match n n 1 0.4663 
13-May-2018_14:10:42 Exp 7312 21 female R 1 1 13 immoralOther moralOther mismatch m m 1 0.8362 
13-May-2018_14:10:45 Exp 7312 21 female R 1 1 14 immoralOther moralOther mismatch m m 1 0.7897 
13-May-2018_14:10:47 Exp 7312 21 female R 1 1 15 moralSelf moralSelf match n n 1 0.6302 
13-May-2018_14:10:49 Exp 7312 21 female R 1 1 16 moralSelf moralOther mismatch m m 1 0.7076 
13-May-2018_14:10:52 Exp 7312 21 female R 1 1 17 immoralSelf immoralOther mismatch m n 0 0.8784 
13-May-2018_14:10:55 Exp 7312 21 female R 1 1 18 immoralOther immoralOther match n NA -1 1.0841 
13-May-2018_14:10:57 Exp 7312 21 female R 1 1 19 immoralSelf immoralSelf match n n 1 0.9831 
13-May-2018_14:11:00 Exp 7312 21 female R 1 1 20 immoralSelf immoralOther mismatch m n 0 1.0835 
13-May-2018_14:11:02 Exp 7312 21 female R 1 1 21 moralOther moralSelf mismatch m m 1 0.7899 
13-May-2018_14:11:05 Exp 7312 21 female R 1 1 22 immoralSelf immoralSelf match n n 1 0.9825 
13-May-2018_14:11:08 Exp 7312 21 female R 1 1 23 moralOther moralOther match n n 1 1.0828 
13-May-2018_14:11:10 Exp 7312 21 female R 1 1 24 moralOther moralOther match n m 0 0.6533 
13-May-2018_14:11:12 Exp 7312 21 female R 1 2 1 moralSelf immoralOther mismatch m m 1 0.7950 
13-May-2018_14:11:15 Exp 7312 21 female R 1 2 2 immoralOther immoralOther match n n 1 0.6675 
13-May-2018_14:11:17 Exp 7312 21 female R 1 2 3 moralSelf moralSelf match n n 1 0.6737 
13-May-2018_14:11:20 Exp 7312 21 female R 1 2 4 immoralOther immoralOther match n n 1 0.9280 
13-May-2018_14:11:22 Exp 7312 21 female R 1 2 5 immoralOther moralOther mismatch m n 0 0.9474 
13-May-2018_14:11:25 Exp 7312 21 female R 1 2 6 moralOther moralOther match n NA -1 1.0841 
13-May-2018_14:11:27 Exp 7312 21 female R 1 2 7 immoralOther immoralSelf mismatch m m 1 0.6615 
13-May-2018_14:11:29 Exp 7312 21 female R 1 2 8 immoralSelf moralSelf mismatch m m 1 0.6714 
13-May-2018_14:11:32 Exp 7312 21 female R 1 2 9 immoralSelf immoralSelf match n n 1 0.7016 
13-May-2018_14:11:35 Exp 7312 21 female R 1 2 10 immoralSelf immoralSelf match n NA -1 1.0841 
13-May-2018_14:11:37 Exp 7312 21 female R 1 2 11 moralSelf moralSelf match n n 1 0.6711 
13-May-2018_14:11:39 Exp 7312 21 female R 1 2 12 immoralSelf moralSelf mismatch m n 0 0.8370 
13-May-2018_14:11:42 Exp 7312 21 female R 1 2 13 immoralSelf immoralSelf match n n 1 0.8545 
13-May-2018_14:11:44 Exp 7312 21 female R 1 2 14 moralOther moralOther match n m 0 0.6123 
13-May-2018_14:11:46 Exp 7312 21 female R 1 2 15 moralSelf immoralSelf mismatch m m 1 0.7813 
13-May-2018_14:11:49 Exp 7312 21 female R 1 2 16 immoralSelf immoralOther mismatch m NA -1 1.0841 
13-May-2018_14:11:52 Exp 7312 21 female R 1 2 17 moralOther immoralOther mismatch m m 1 1.0440 
13-May-2018_14:11:54 Exp 7312 21 female R 1 2 18 moralOther moralOther match n m 0 0.9058 
13-May-2018_14:11:57 Exp 7312 21 female R 1 2 19 moralSelf moralSelf match n n 1 0.6128 
13-May-2018_14:11:59 Exp 7312 21 female R 1 2 20 moralOther immoralOther mismatch m NA -1 1.0841 
13-May-2018_14:12:02 Exp 7312 21 female R 1 2 21 immoralOther immoralOther match n NA -1 1.0841 
13-May-2018_14:12:04 Exp 7312 21 female R 1 2 22 immoralOther moralSelf mismatch m n 0 0.6186 
13-May-2018_14:12:07 Exp 7312 21 female R 1 2 23 moralOther moralSelf mismatch m m 1 0.6197 
13-May-2018_14:12:09 Exp 7312 21 female R 1 2 24 moralSelf moralOther mismatch m m 1 0.8768 
13-May-2018_14:12:12 Exp 7312 21 female R 1 3 1 moralSelf immoralOther mismatch m m 1 0.8750 
13-May-2018_14:12:14 Exp 7312 21 female R 1 3 2 moralOther immoralOther mismatch m NA -1 1.0841 
13-May-2018_14:12:17 Exp 7312 21 female R 1 3 3 moralOther moralOther match n m 0 0.5877 
13-May-2018_14:12:19 Exp 7312 21 female R 1 3 4 immoralSelf immoralOther mismatch m m 1 0.8601 
13-May-2018_14:12:22 Exp 7312 21 female R 1 3 5 moralOther moralOther match n m 0 0.9102 
13-May-2018_14:12:24 Exp 7312 21 female R 1 3 6 immoralSelf immoralSelf match n n 1 1.0331 
13-May-2018_14:12:27 Exp 7312 21 female R 1 3 7 immoralOther immoralOther match n m 0 0.7226 
13-May-2018_14:12:29 Exp 7312 21 female R 1 3 8 immoralOther immoralOther match n m 0 0.7538 
13-May-2018_14:12:32 Exp 7312 21 female R 1 3 9 immoralSelf immoralOther mismatch m m 1 0.9736 
13-May-2018_14:12:34 Exp 7312 21 female R 1 3 10 immoralSelf immoralSelf match n n 1 0.8420 
13-May-2018_14:12:36 Exp 7312 21 female R 1 3 11 moralSelf moralSelf match n n 1 0.6274 
13-May-2018_14:12:39 Exp 7312 21 female R 1 3 12 moralSelf moralOther mismatch m m 1 0.6487 
13-May-2018_14:12:41 Exp 7312 21 female R 1 3 13 moralOther moralOther match n n 1 1.0545 
13-May-2018_14:12:44 Exp 7312 21 female R 1 3 14 moralOther immoralOther mismatch m m 1 0.8122 
13-May-2018_14:12:46 Exp 7312 21 female R 1 3 15 immoralSelf moralSelf mismatch m m 1 0.7332 
13-May-2018_14:12:49 Exp 7312 21 female R 1 3 16 immoralOther immoralSelf mismatch m m 1 0.8247 
13-May-2018_14:12:51 Exp 7312 21 female R 1 3 17 immoralSelf immoralSelf match n n 1 0.7580 
13-May-2018_14:12:53 Exp 7312 21 female R 1 3 18 moralOther immoralOther mismatch m m 1 0.6017 
13-May-2018_14:12:55 Exp 7312 21 female R 1 3 19 moralSelf moralOther mismatch m n 0 0.5425 
13-May-2018_14:12:58 Exp 7312 21 female R 1 3 20 immoralOther moralOther mismatch m m 1 0.7902 
13-May-2018_14:13:00 Exp 7312 21 female R 1 3 21 immoralOther immoralOther match n n 1 0.7827 
13-May-2018_14:13:02 Exp 7312 21 female R 1 3 22 moralSelf moralSelf match n n 1 0.6030 
13-May-2018_14:13:05 Exp 7312 21 female R 1 3 23 immoralOther immoralSelf mismatch m n 0 0.8399 
13-May-2018_14:13:07 Exp 7312 21 female R 1 3 24 moralSelf moralSelf match n n 1 0.6094 
13-May-2018_14:13:23 Exp 7312 21 female R 1 4 1 moralSelf moralSelf match n n 1 0.5785 
13-May-2018_14:13:26 Exp 7312 21 female R 1 4 2 immoralOther immoralOther match n m 0 0.9587 
13-May-2018_14:13:28 Exp 7312 21 female R 1 4 3 immoralSelf immoralSelf match n n 1 0.6507 
13-May-2018_14:13:31 Exp 7312 21 female R 1 4 4 immoralSelf moralOther mismatch m m 1 0.6964 
13-May-2018_14:13:33 Exp 7312 21 female R 1 4 5 moralOther moralOther match n n 1 1.0070 
13-May-2018_14:13:35 Exp 7312 21 female R 1 4 6 moralOther moralSelf mismatch m m 1 0.6439 
13-May-2018_14:13:38 Exp 7312 21 female R 1 4 7 immoralSelf moralSelf mismatch m m 1 0.7413 
13-May-2018_14:13:40 Exp 7312 21 female R 1 4 8 immoralOther moralSelf mismatch m m 1 0.7730 
13-May-2018_14:13:43 Exp 7312 21 female R 1 4 9 immoralOther immoralOther match n n 1 0.9251 
13-May-2018_14:13:45 Exp 7312 21 female R 1 4 10 immoralSelf immoralSelf match n m 0 0.6362 
13-May-2018_14:13:47 Exp 7312 21 female R 1 4 11 immoralSelf moralOther mismatch m m 1 0.6857 
13-May-2018_14:13:50 Exp 7312 21 female R 1 4 12 immoralOther immoralSelf mismatch m m 1 0.8161 
13-May-2018_14:13:52 Exp 7312 21 female R 1 4 13 moralOther moralOther match n m 0 0.5852 
13-May-2018_14:13:55 Exp 7312 21 female R 1 4 14 immoralSelf immoralSelf match n n 1 1.0018 
13-May-2018_14:13:57 Exp 7312 21 female R 1 4 15 moralSelf immoralSelf mismatch m m 1 0.7106 
13-May-2018_14:13:59 Exp 7312 21 female R 1 4 16 moralOther moralOther match n n 1 0.6495 
13-May-2018_14:14:02 Exp 7312 21 female R 1 4 17 moralOther immoralSelf mismatch m m 1 0.7832 
13-May-2018_14:14:04 Exp 7312 21 female R 1 4 18 moralSelf immoralSelf mismatch m m 1 0.7156 
13-May-2018_14:14:07 Exp 7312 21 female R 1 4 19 moralOther immoralSelf mismatch m NA -1 1.0841 
13-May-2018_14:14:09 Exp 7312 21 female R 1 4 20 immoralOther immoralOther match n NA -1 1.0841 
13-May-2018_14:14:12 Exp 7312 21 female R 1 4 21 moralSelf moralSelf match n n 1 0.4957 
13-May-2018_14:14:14 Exp 7312 21 female R 1 4 22 moralSelf moralSelf match n n 1 0.5023 
13-May-2018_14:14:16 Exp 7312 21 female R 1 4 23 moralSelf immoralOther mismatch m m 1 0.5489 
13-May-2018_14:14:18 Exp 7312 21 female R 1 4 24 immoralOther immoralSelf mismatch m n 0 0.9086 
13-May-2018_14:14:21 Exp 7312 21 female R 1 5 1 moralOther moralOther match n n 1 0.9835 
13-May-2018_14:14:23 Exp 7312 21 female R 1 5 2 immoralSelf immoralSelf match n n 1 0.7239 
13-May-2018_14:14:26 Exp 7312 21 female R 1 5 3 immoralSelf immoralOther mismatch m m 1 0.7070 
13-May-2018_14:14:28 Exp 7312 21 female R 1 5 4 moralSelf moralSelf match n n 1 0.5099 
13-May-2018_14:14:30 Exp 7312 21 female R 1 5 5 immoralSelf immoralSelf match n n 1 0.7608 
13-May-2018_14:14:33 Exp 7312 21 female R 1 5 6 immoralSelf immoralSelf match n m 0 0.6926 
13-May-2018_14:14:35 Exp 7312 21 female R 1 5 7 immoralOther immoralOther match n m 0 0.7553 
13-May-2018_14:14:37 Exp 7312 21 female R 1 5 8 moralOther immoralSelf mismatch m n 0 0.5433 
13-May-2018_14:14:40 Exp 7312 21 female R 1 5 9 moralOther moralOther match n m 0 0.7588 
13-May-2018_14:14:42 Exp 7312 21 female R 1 5 10 immoralOther immoralSelf mismatch m n 0 0.5866 
13-May-2018_14:14:44 Exp 7312 21 female R 1 5 11 immoralSelf moralSelf mismatch m m 1 0.7712 
13-May-2018_14:14:47 Exp 7312 21 female R 1 5 12 moralSelf immoralSelf mismatch m m 1 0.6993 
13-May-2018_14:14:49 Exp 7312 21 female R 1 5 13 immoralOther immoralOther match n m 0 1.0340 
13-May-2018_14:14:51 Exp 7312 21 female R 1 5 14 moralOther moralSelf mismatch m m 1 0.6756 
13-May-2018_14:14:54 Exp 7312 21 female R 1 5 15 moralSelf moralOther mismatch m n 0 0.5057 
13-May-2018_14:14:56 Exp 7312 21 female R 1 5 16 immoralOther immoralOther match n m 0 0.6526 
13-May-2018_14:14:58 Exp 7312 21 female R 1 5 17 moralOther moralSelf mismatch m m 1 0.9064 
13-May-2018_14:15:01 Exp 7312 21 female R 1 5 18 moralSelf immoralOther mismatch m m 1 0.5573 
13-May-2018_14:15:03 Exp 7312 21 female R 1 5 19 immoralSelf immoralOther mismatch m m 1 0.9371 
13-May-2018_14:15:06 Exp 7312 21 female R 1 5 20 moralSelf moralSelf match n n 1 0.7966 
13-May-2018_14:15:08 Exp 7312 21 female R 1 5 21 immoralOther immoralSelf mismatch m n 0 0.8531 
13-May-2018_14:15:10 Exp 7312 21 female R 1 5 22 moralSelf moralSelf match n n 1 0.5709 
13-May-2018_14:15:13 Exp 7312 21 female R 1 5 23 moralOther moralOther match n m 0 0.6829 
13-May-2018_14:15:15 Exp 7312 21 female R 1 5 24 immoralOther immoralSelf mismatch m n 0 0.8054 
13-May-2018_14:15:21 Exp 7312 21 female R 2 1 1 immoralOther immoralOther match n NA -1 1.0841 
13-May-2018_14:15:23 Exp 7312 21 female R 2 1 2 moralOther immoralOther mismatch m m 1 0.7017 
13-May-2018_14:15:25 Exp 7312 21 female R 2 1 3 moralSelf moralSelf match n n 1 0.5244 
13-May-2018_14:15:28 Exp 7312 21 female R 2 1 4 moralOther immoralSelf mismatch m m 1 0.6275 
13-May-2018_14:15:30 Exp 7312 21 female R 2 1 5 moralOther moralOther match n n 1 0.6808 
13-May-2018_14:15:32 Exp 7312 21 female R 2 1 6 immoralSelf immoralSelf match n n 1 0.8352 
13-May-2018_14:15:35 Exp 7312 21 female R 2 1 7 immoralOther immoralSelf mismatch m NA -1 1.0841 
13-May-2018_14:15:38 Exp 7312 21 female R 2 1 8 immoralSelf immoralSelf match n n 1 0.8473 
13-May-2018_14:15:40 Exp 7312 21 female R 2 1 9 immoralSelf moralOther mismatch m m 1 0.7330 
13-May-2018_14:15:42 Exp 7312 21 female R 2 1 10 moralSelf moralSelf match n n 1 0.5523 
13-May-2018_14:15:44 Exp 7312 21 female R 2 1 11 immoralSelf moralOther mismatch m m 1 0.6521 
13-May-2018_14:15:47 Exp 7312 21 female R 2 1 12 immoralOther immoralOther match n NA -1 1.0841 
13-May-2018_14:15:50 Exp 7312 21 female R 2 1 13 moralSelf immoralSelf mismatch m m 1 0.8763 
13-May-2018_14:15:52 Exp 7312 21 female R 2 1 14 immoralSelf immoralSelf match n n 1 0.8026 
13-May-2018_14:15:55 Exp 7312 21 female R 2 1 15 moralOther immoralSelf mismatch m n 0 0.8554 
13-May-2018_14:15:57 Exp 7312 21 female R 2 1 16 moralSelf immoralSelf mismatch m m 1 0.8691 
13-May-2018_14:16:00 Exp 7312 21 female R 2 1 17 immoralOther moralOther mismatch m m 1 0.8273 
13-May-2018_14:16:02 Exp 7312 21 female R 2 1 18 moralSelf moralSelf match n n 1 0.6006 
13-May-2018_14:16:04 Exp 7312 21 female R 2 1 19 moralSelf immoralOther mismatch m m 1 0.6294 
13-May-2018_14:16:06 Exp 7312 21 female R 2 1 20 moralOther moralOther match n n 1 0.7707 
13-May-2018_14:16:09 Exp 7312 21 female R 2 1 21 immoralSelf moralOther mismatch m m 1 0.6348 
13-May-2018_14:16:11 Exp 7312 21 female R 2 1 22 immoralOther immoralOther match n n 1 0.7722 
13-May-2018_14:16:13 Exp 7312 21 female R 2 1 23 immoralOther immoralSelf mismatch m m 1 0.7644 
13-May-2018_14:16:16 Exp 7312 21 female R 2 1 24 moralOther moralOther match n n 1 0.8444 
13-May-2018_14:16:18 Exp 7312 21 female R 2 2 1 moralOther moralOther match n m 0 0.5702 
13-May-2018_14:16:20 Exp 7312 21 female R 2 2 2 moralOther immoralSelf mismatch m m 1 0.6823 
13-May-2018_14:16:23 Exp 7312 21 female R 2 2 3 moralSelf moralSelf match n n 1 0.4687 
13-May-2018_14:16:25 Exp 7312 21 female R 2 2 4 immoralSelf immoralSelf match n n 1 0.7149 
13-May-2018_14:16:27 Exp 7312 21 female R 2 2 5 immoralSelf immoralSelf match n n 1 0.6420 
13-May-2018_14:16:30 Exp 7312 21 female R 2 2 6 immoralOther immoralSelf mismatch m m 1 0.6756 
13-May-2018_14:16:32 Exp 7312 21 female R 2 2 7 moralOther immoralSelf mismatch m m 1 0.6578 
13-May-2018_14:16:34 Exp 7312 21 female R 2 2 8 moralSelf immoralSelf mismatch m m 1 0.7238 
13-May-2018_14:16:37 Exp 7312 21 female R 2 2 9 immoralOther moralSelf mismatch m m 1 0.9070 
13-May-2018_14:16:39 Exp 7312 21 female R 2 2 10 moralOther moralOther match n m 0 0.5899 
13-May-2018_14:16:41 Exp 7312 21 female R 2 2 11 immoralSelf moralSelf mismatch m m 1 0.8464 
13-May-2018_14:16:44 Exp 7312 21 female R 2 2 12 moralSelf immoralSelf mismatch m m 1 0.6601 
13-May-2018_14:16:46 Exp 7312 21 female R 2 2 13 immoralOther immoralSelf mismatch m m 1 0.7261 
13-May-2018_14:16:48 Exp 7312 21 female R 2 2 14 moralSelf moralSelf match n n 1 0.5093 
13-May-2018_14:16:51 Exp 7312 21 female R 2 2 15 moralOther moralSelf mismatch m m 1 0.7682 
13-May-2018_14:16:53 Exp 7312 21 female R 2 2 16 moralSelf moralSelf match n n 1 0.7922 
13-May-2018_14:16:56 Exp 7312 21 female R 2 2 17 immoralOther immoralOther match n NA -1 1.0841 
13-May-2018_14:16:58 Exp 7312 21 female R 2 2 18 moralSelf immoralOther mismatch m m 1 0.6993 
13-May-2018_14:17:00 Exp 7312 21 female R 2 2 19 immoralSelf immoralSelf match n n 1 0.7700 
13-May-2018_14:17:03 Exp 7312 21 female R 2 2 20 moralOther moralOther match n m 0 0.7140 
13-May-2018_14:17:05 Exp 7312 21 female R 2 2 21 immoralOther immoralOther match n n 1 0.7890 
13-May-2018_14:17:08 Exp 7312 21 female R 2 2 22 immoralSelf moralSelf mismatch m m 1 0.7335 
13-May-2018_14:17:10 Exp 7312 21 female R 2 2 23 immoralOther immoralOther match n n 1 0.6969 
13-May-2018_14:17:12 Exp 7312 21 female R 2 2 24 immoralSelf immoralOther mismatch m n 0 0.4796 
13-May-2018_14:17:14 Exp 7312 21 female R 2 3 1 immoralOther immoralOther match n m 0 0.8020 
13-May-2018_14:17:17 Exp 7312 21 female R 2 3 2 moralOther immoralSelf mismatch m n 0 0.9988 
13-May-2018_14:17:19 Exp 7312 21 female R 2 3 3 immoralSelf immoralSelf match n n 1 0.7316 
13-May-2018_14:17:22 Exp 7312 21 female R 2 3 4 immoralOther immoralSelf mismatch m n 0 0.9270 
13-May-2018_14:17:25 Exp 7312 21 female R 2 3 5 moralOther immoralOther mismatch m m 1 0.8905 
13-May-2018_14:17:27 Exp 7312 21 female R 2 3 6 moralOther moralOther match n n 1 0.6528 
13-May-2018_14:17:29 Exp 7312 21 female R 2 3 7 immoralOther immoralOther match n n 1 0.7546 
13-May-2018_14:17:32 Exp 7312 21 female R 2 3 8 moralSelf moralOther mismatch m m 1 1.0144 
13-May-2018_14:17:34 Exp 7312 21 female R 2 3 9 immoralSelf immoralOther mismatch m m 1 0.9435 
13-May-2018_14:17:37 Exp 7312 21 female R 2 3 10 immoralSelf moralSelf mismatch m n 0 0.5911 
13-May-2018_14:17:39 Exp 7312 21 female R 2 3 11 moralSelf moralOther mismatch m n 0 0.7276 
13-May-2018_14:17:41 Exp 7312 21 female R 2 3 12 moralSelf moralSelf match n n 1 0.7871 
13-May-2018_14:17:44 Exp 7312 21 female R 2 3 13 moralSelf immoralSelf mismatch m m 1 0.7077 
13-May-2018_14:17:46 Exp 7312 21 female R 2 3 14 immoralOther moralSelf mismatch m m 1 0.7505 
13-May-2018_14:17:48 Exp 7312 21 female R 2 3 15 moralSelf moralSelf match n n 1 0.6424 
13-May-2018_14:17:51 Exp 7312 21 female R 2 3 16 immoralSelf immoralSelf match n m 0 0.5880 
13-May-2018_14:17:53 Exp 7312 21 female R 2 3 17 immoralOther immoralOther match n n 1 0.8845 
13-May-2018_14:17:56 Exp 7312 21 female R 2 3 18 immoralSelf immoralOther mismatch m m 1 0.8470 
13-May-2018_14:17:58 Exp 7312 21 female R 2 3 19 immoralOther moralOther mismatch m m 1 0.7566 
13-May-2018_14:18:00 Exp 7312 21 female R 2 3 20 moralOther moralOther match n n 1 0.7525 
13-May-2018_14:18:03 Exp 7312 21 female R 2 3 21 immoralSelf immoralSelf match n n 1 0.8204 
13-May-2018_14:18:05 Exp 7312 21 female R 2 3 22 moralOther moralOther match n m 0 0.7094 
13-May-2018_14:18:08 Exp 7312 21 female R 2 3 23 moralOther immoralOther mismatch m m 1 0.8164 
13-May-2018_14:18:10 Exp 7312 21 female R 2 3 24 moralSelf moralSelf match n n 1 0.6734 
13-May-2018_14:18:35 Exp 7312 21 female R 2 4 1 moralSelf moralSelf match n NA -1 1.0841 
13-May-2018_14:18:37 Exp 7312 21 female R 2 4 2 moralOther immoralSelf mismatch m NA -1 1.0841 
13-May-2018_14:18:40 Exp 7312 21 female R 2 4 3 immoralSelf immoralSelf match n n 1 0.8392 
13-May-2018_14:18:42 Exp 7312 21 female R 2 4 4 moralOther immoralOther mismatch m m 1 0.9047 
13-May-2018_14:18:45 Exp 7312 21 female R 2 4 5 immoralOther immoralSelf mismatch m NA -1 1.0841 
13-May-2018_14:18:47 Exp 7312 21 female R 2 4 6 moralSelf immoralOther mismatch m m 1 0.5741 
13-May-2018_14:18:50 Exp 7312 21 female R 2 4 7 immoralOther immoralOther match n m 0 0.9704 
13-May-2018_14:18:52 Exp 7312 21 female R 2 4 8 moralOther moralOther match n m 0 0.6665 
13-May-2018_14:18:55 Exp 7312 21 female R 2 4 9 immoralOther moralSelf mismatch m m 1 0.7405 
13-May-2018_14:18:57 Exp 7312 21 female R 2 4 10 moralOther immoralSelf mismatch m m 1 0.8681 
13-May-2018_14:18:59 Exp 7312 21 female R 2 4 11 moralSelf moralSelf match n n 1 0.5864 
13-May-2018_14:19:02 Exp 7312 21 female R 2 4 12 immoralOther immoralOther match n n 1 1.0750 
13-May-2018_14:19:04 Exp 7312 21 female R 2 4 13 immoralSelf moralOther mismatch m m 1 0.5932 
13-May-2018_14:19:06 Exp 7312 21 female R 2 4 14 immoralSelf immoralSelf match n n 1 0.6737 
13-May-2018_14:19:09 Exp 7312 21 female R 2 4 15 moralSelf immoralSelf mismatch m m 1 0.6959 
13-May-2018_14:19:11 Exp 7312 21 female R 2 4 16 moralOther moralOther match n m 0 0.6946 
13-May-2018_14:19:13 Exp 7312 21 female R 2 4 17 moralOther moralOther match n n 1 0.6932 
13-May-2018_14:19:16 Exp 7312 21 female R 2 4 18 immoralSelf immoralSelf match n n 1 0.9079 
13-May-2018_14:19:19 Exp 7312 21 female R 2 4 19 immoralSelf moralOther mismatch m m 1 0.9668 
13-May-2018_14:19:21 Exp 7312 21 female R 2 4 20 moralSelf moralSelf match n n 1 0.5109 
13-May-2018_14:19:23 Exp 7312 21 female R 2 4 21 immoralSelf immoralOther mismatch m m 1 0.8578 
13-May-2018_14:19:26 Exp 7312 21 female R 2 4 22 immoralOther moralOther mismatch m m 1 1.0838 
13-May-2018_14:19:28 Exp 7312 21 female R 2 4 23 immoralOther immoralOther match n n 1 0.8703 
13-May-2018_14:19:31 Exp 7312 21 female R 2 4 24 moralSelf immoralSelf mismatch m m 1 0.7405 
13-May-2018_14:19:33 Exp 7312 21 female R 2 5 1 moralSelf moralOther mismatch m n 0 0.6521 
13-May-2018_14:19:35 Exp 7312 21 female R 2 5 2 moralOther moralOther match n n 1 0.6979 
13-May-2018_14:19:38 Exp 7312 21 female R 2 5 3 immoralOther immoralOther match n n 1 1.0405 
13-May-2018_14:19:40 Exp 7312 21 female R 2 5 4 moralOther immoralOther mismatch m m 1 0.6101 
13-May-2018_14:19:43 Exp 7312 21 female R 2 5 5 moralOther moralOther match n n 1 0.5872 
13-May-2018_14:19:45 Exp 7312 21 female R 2 5 6 immoralSelf immoralSelf match n n 1 0.5956 
13-May-2018_14:19:47 Exp 7312 21 female R 2 5 7 moralOther moralSelf mismatch m m 1 0.8282 
13-May-2018_14:19:50 Exp 7312 21 female R 2 5 8 immoralSelf immoralOther mismatch m m 1 0.9695 
13-May-2018_14:19:52 Exp 7312 21 female R 2 5 9 immoralSelf immoralSelf match n n 1 0.7936 
13-May-2018_14:19:55 Exp 7312 21 female R 2 5 10 moralSelf moralSelf match n n 1 0.6261 
13-May-2018_14:19:57 Exp 7312 21 female R 2 5 11 immoralSelf immoralSelf match n NA -1 1.0841 
13-May-2018_14:20:00 Exp 7312 21 female R 2 5 12 moralOther moralOther match n n 1 0.9779 
13-May-2018_14:20:02 Exp 7312 21 female R 2 5 13 moralSelf moralOther mismatch m n 0 0.5902 
13-May-2018_14:20:05 Exp 7312 21 female R 2 5 14 immoralOther moralSelf mismatch m m 1 0.8629 
13-May-2018_14:20:07 Exp 7312 21 female R 2 5 15 immoralOther moralSelf mismatch m m 1 0.9448 
13-May-2018_14:20:10 Exp 7312 21 female R 2 5 16 immoralOther moralOther mismatch m NA -1 1.0841 
13-May-2018_14:20:12 Exp 7312 21 female R 2 5 17 moralSelf moralSelf match n n 1 0.5548 
13-May-2018_14:20:14 Exp 7312 21 female R 2 5 18 moralSelf moralOther mismatch m m 1 0.6867 
13-May-2018_14:20:17 Exp 7312 21 female R 2 5 19 immoralSelf moralSelf mismatch m m 1 0.9051 
13-May-2018_14:20:19 Exp 7312 21 female R 2 5 20 immoralSelf moralSelf mismatch m m 1 0.7000 
13-May-2018_14:20:21 Exp 7312 21 female R 2 5 21 moralSelf moralSelf match n n 1 0.5228 
13-May-2018_14:20:24 Exp 7312 21 female R 2 5 22 moralOther immoralOther mismatch m NA -1 1.0841 
13-May-2018_14:20:26 Exp 7312 21 female R 2 5 23 immoralOther immoralOther match n m 0 0.5964 
13-May-2018_14:20:29 Exp 7312 21 female R 2 5 24 immoralOther immoralOther match n n 1 0.7969 
13-May-2018_14:20:34 Exp 7312 21 female R 3 1 1 immoralSelf immoralSelf match n m 0 0.9180 
13-May-2018_14:20:37 Exp 7312 21 female R 3 1 2 immoralOther immoralOther match n n 1 0.8052 
13-May-2018_14:20:39 Exp 7312 21 female R 3 1 3 immoralOther immoralOther match n n 1 0.6980 
13-May-2018_14:20:42 Exp 7312 21 female R 3 1 4 immoralOther immoralSelf mismatch m m 1 0.7448 
13-May-2018_14:20:44 Exp 7312 21 female R 3 1 5 moralOther moralOther match n n 1 0.9843 
13-May-2018_14:20:46 Exp 7312 21 female R 3 1 6 immoralOther moralOther mismatch m m 1 0.6527 
13-May-2018_14:20:49 Exp 7312 21 female R 3 1 7 immoralSelf moralSelf mismatch m m 1 0.7304 
13-May-2018_14:20:51 Exp 7312 21 female R 3 1 8 moralOther immoralSelf mismatch m m 1 0.7178 
13-May-2018_14:20:54 Exp 7312 21 female R 3 1 9 moralOther moralSelf mismatch m m 1 0.8130 
13-May-2018_14:20:56 Exp 7312 21 female R 3 1 10 immoralSelf moralOther mismatch m m 1 0.7099 
13-May-2018_14:20:58 Exp 7312 21 female R 3 1 11 moralSelf immoralOther mismatch m m 1 0.7368 
13-May-2018_14:21:01 Exp 7312 21 female R 3 1 12 immoralSelf immoralSelf match n n 1 0.8923 
13-May-2018_14:21:03 Exp 7312 21 female R 3 1 13 immoralOther moralOther mismatch m m 1 0.6110 
13-May-2018_14:21:05 Exp 7312 21 female R 3 1 14 moralSelf moralSelf match n n 1 0.6520 
13-May-2018_14:21:07 Exp 7312 21 female R 3 1 15 moralSelf moralSelf match n n 1 0.4817 
13-May-2018_14:21:10 Exp 7312 21 female R 3 1 16 moralOther moralOther match n n 1 0.7963 
13-May-2018_14:21:12 Exp 7312 21 female R 3 1 17 moralSelf immoralOther mismatch m m 1 0.7327 
13-May-2018_14:21:15 Exp 7312 21 female R 3 1 18 moralOther immoralSelf mismatch m m 1 0.8321 
13-May-2018_14:21:17 Exp 7312 21 female R 3 1 19 immoralSelf immoralSelf match n n 1 0.6934 
13-May-2018_14:21:19 Exp 7312 21 female R 3 1 20 moralSelf moralSelf match n n 1 0.7400 
13-May-2018_14:21:22 Exp 7312 21 female R 3 1 21 immoralSelf moralOther mismatch m m 1 0.9957 
13-May-2018_14:21:25 Exp 7312 21 female R 3 1 22 moralOther moralOther match n n 1 0.8283 
13-May-2018_14:21:27 Exp 7312 21 female R 3 1 23 immoralOther immoralOther match n n 1 0.7456 
13-May-2018_14:21:29 Exp 7312 21 female R 3 1 24 moralSelf moralOther mismatch m n 0 0.6972 
13-May-2018_14:21:32 Exp 7312 21 female R 3 2 1 immoralSelf immoralSelf match n n 1 0.7038 
13-May-2018_14:21:34 Exp 7312 21 female R 3 2 2 immoralOther immoralSelf mismatch m m 1 0.9469 
13-May-2018_14:21:36 Exp 7312 21 female R 3 2 3 moralSelf moralSelf match n n 1 0.6264 
13-May-2018_14:21:39 Exp 7312 21 female R 3 2 4 immoralSelf immoralSelf match n n 1 0.6797 
13-May-2018_14:21:41 Exp 7312 21 female R 3 2 5 moralSelf moralSelf match n n 1 0.7781 
13-May-2018_14:21:43 Exp 7312 21 female R 3 2 6 immoralOther moralSelf mismatch m m 1 0.6704 
13-May-2018_14:21:46 Exp 7312 21 female R 3 2 7 immoralSelf immoralSelf match n n 1 1.0286 
13-May-2018_14:21:48 Exp 7312 21 female R 3 2 8 moralSelf immoralOther mismatch m m 1 0.7380 
13-May-2018_14:21:51 Exp 7312 21 female R 3 2 9 moralOther immoralOther mismatch m m 1 0.8053 
13-May-2018_14:21:53 Exp 7312 21 female R 3 2 10 immoralSelf moralOther mismatch m m 1 0.8101 
13-May-2018_14:21:56 Exp 7312 21 female R 3 2 11 moralOther moralOther match n n 1 0.6911 
13-May-2018_14:21:58 Exp 7312 21 female R 3 2 12 moralOther moralOther match n n 1 0.9219 
13-May-2018_14:22:00 Exp 7312 21 female R 3 2 13 moralOther immoralOther mismatch m m 1 0.6491 
13-May-2018_14:22:03 Exp 7312 21 female R 3 2 14 immoralSelf immoralOther mismatch m m 1 0.8467 
13-May-2018_14:22:05 Exp 7312 21 female R 3 2 15 moralSelf moralSelf match n n 1 0.6365 
13-May-2018_14:22:08 Exp 7312 21 female R 3 2 16 moralSelf immoralOther mismatch m m 1 0.7420 
13-May-2018_14:22:10 Exp 7312 21 female R 3 2 17 immoralOther immoralOther match n n 1 0.7496 
13-May-2018_14:22:12 Exp 7312 21 female R 3 2 18 immoralSelf moralOther mismatch m m 1 0.6932 
13-May-2018_14:22:15 Exp 7312 21 female R 3 2 19 moralOther moralOther match n n 1 0.7479 
13-May-2018_14:22:17 Exp 7312 21 female R 3 2 20 moralOther immoralOther mismatch m m 1 0.6755 
13-May-2018_14:22:20 Exp 7312 21 female R 3 2 21 immoralOther moralOther mismatch m m 1 0.9377 
13-May-2018_14:22:22 Exp 7312 21 female R 3 2 22 immoralOther immoralOther match n n 1 0.7651 
13-May-2018_14:22:24 Exp 7312 21 female R 3 2 23 immoralOther immoralOther match n n 1 0.6692 
13-May-2018_14:22:27 Exp 7312 21 female R 3 2 24 moralSelf moralOther mismatch m m 1 0.7875 
13-May-2018_14:22:29 Exp 7312 21 female R 3 3 1 moralSelf moralSelf match n n 1 0.6119 
13-May-2018_14:22:31 Exp 7312 21 female R 3 3 2 immoralSelf immoralSelf match n n 1 0.7010 
13-May-2018_14:22:34 Exp 7312 21 female R 3 3 3 immoralOther immoralOther match n n 1 0.8837 
13-May-2018_14:22:36 Exp 7312 21 female R 3 3 4 immoralSelf moralSelf mismatch m m 1 0.6222 
13-May-2018_14:22:38 Exp 7312 21 female R 3 3 5 moralSelf moralSelf match n n 1 0.6835 
13-May-2018_14:22:41 Exp 7312 21 female R 3 3 6 moralOther immoralSelf mismatch m m 1 0.7819 
13-May-2018_14:22:44 Exp 7312 21 female R 3 3 7 moralOther immoralOther mismatch m m 1 1.0822 
13-May-2018_14:22:46 Exp 7312 21 female R 3 3 8 immoralOther moralOther mismatch m m 1 0.8926 
13-May-2018_14:22:48 Exp 7312 21 female R 3 3 9 moralOther moralOther match n n 1 0.6593 
13-May-2018_14:22:51 Exp 7312 21 female R 3 3 10 immoralSelf moralOther mismatch m m 1 0.6533 
13-May-2018_14:22:53 Exp 7312 21 female R 3 3 11 immoralOther immoralOther match n n 1 0.6991 
13-May-2018_14:22:55 Exp 7312 21 female R 3 3 12 moralSelf immoralOther mismatch m m 1 0.6497 
13-May-2018_14:22:58 Exp 7312 21 female R 3 3 13 immoralOther immoralOther match n n 1 0.8075 
13-May-2018_14:23:00 Exp 7312 21 female R 3 3 14 moralOther moralSelf mismatch m m 1 0.8203 
13-May-2018_14:23:03 Exp 7312 21 female R 3 3 15 immoralSelf immoralSelf match n n 1 0.7894 
13-May-2018_14:23:05 Exp 7312 21 female R 3 3 16 moralSelf moralOther mismatch m m 1 0.8218 
13-May-2018_14:23:07 Exp 7312 21 female R 3 3 17 immoralSelf immoralSelf match n n 1 0.8512 
13-May-2018_14:23:10 Exp 7312 21 female R 3 3 18 moralOther moralOther match n n 1 0.9609 
13-May-2018_14:23:12 Exp 7312 21 female R 3 3 19 immoralOther moralOther mismatch m m 1 0.7648 
13-May-2018_14:23:15 Exp 7312 21 female R 3 3 20 moralSelf moralSelf match n n 1 0.7488 
13-May-2018_14:23:17 Exp 7312 21 female R 3 3 21 immoralSelf moralOther mismatch m m 1 0.6045 
13-May-2018_14:23:19 Exp 7312 21 female R 3 3 22 moralOther moralOther match n n 1 0.7693 
13-May-2018_14:23:22 Exp 7312 21 female R 3 3 23 immoralOther moralOther mismatch m m 1 0.9295 
13-May-2018_14:23:24 Exp 7312 21 female R 3 3 24 moralSelf immoralOther mismatch m m 1 0.6928 
13-May-2018_14:23:34 Exp 7312 21 female R 3 4 1 moralSelf moralSelf match n n 1 0.6334 
13-May-2018_14:23:36 Exp 7312 21 female R 3 4 2 moralOther immoralSelf mismatch m m 1 0.6909 
13-May-2018_14:23:39 Exp 7312 21 female R 3 4 3 immoralOther moralSelf mismatch m m 1 0.7014 
13-May-2018_14:23:41 Exp 7312 21 female R 3 4 4 moralSelf moralSelf match n n 1 0.6600 
13-May-2018_14:23:43 Exp 7312 21 female R 3 4 5 moralOther moralSelf mismatch m m 1 0.8380 
13-May-2018_14:23:46 Exp 7312 21 female R 3 4 6 moralSelf moralSelf match n n 1 0.7275 
13-May-2018_14:23:48 Exp 7312 21 female R 3 4 7 moralOther immoralSelf mismatch m m 1 0.9149 
13-May-2018_14:23:51 Exp 7312 21 female R 3 4 8 moralOther moralOther match n n 1 0.9301 
13-May-2018_14:23:53 Exp 7312 21 female R 3 4 9 immoralSelf immoralSelf match n n 1 0.9735 
13-May-2018_14:23:56 Exp 7312 21 female R 3 4 10 immoralSelf moralOther mismatch m m 1 0.6257 
13-May-2018_14:23:58 Exp 7312 21 female R 3 4 11 immoralOther moralOther mismatch m m 1 0.9351 
13-May-2018_14:24:01 Exp 7312 21 female R 3 4 12 immoralSelf moralSelf mismatch m NA -1 1.0841 
13-May-2018_14:24:03 Exp 7312 21 female R 3 4 13 moralSelf immoralSelf mismatch m n 0 0.8689 
13-May-2018_14:24:06 Exp 7312 21 female R 3 4 14 moralOther moralOther match n n 1 0.8911 
13-May-2018_14:24:09 Exp 7312 21 female R 3 4 15 immoralSelf immoralOther mismatch m m 1 0.9058 
13-May-2018_14:24:11 Exp 7312 21 female R 3 4 16 moralSelf immoralSelf mismatch m m 1 0.6367 
13-May-2018_14:24:13 Exp 7312 21 female R 3 4 17 immoralSelf immoralSelf match n n 1 0.6862 
13-May-2018_14:24:16 Exp 7312 21 female R 3 4 18 immoralOther immoralOther match n n 1 0.8726 
13-May-2018_14:24:18 Exp 7312 21 female R 3 4 19 moralSelf immoralSelf mismatch m m 1 0.7109 
13-May-2018_14:24:20 Exp 7312 21 female R 3 4 20 immoralOther immoralSelf mismatch m n 0 0.7058 
13-May-2018_14:24:23 Exp 7312 21 female R 3 4 21 immoralSelf immoralSelf match n n 1 0.7087 
13-May-2018_14:24:25 Exp 7312 21 female R 3 4 22 immoralOther immoralOther match n n 1 1.0636 
13-May-2018_14:24:28 Exp 7312 21 female R 3 4 23 moralOther moralOther match n n 1 0.8816 
13-May-2018_14:24:30 Exp 7312 21 female R 3 4 24 immoralOther immoralOther match n n 1 0.9160 
13-May-2018_14:24:33 Exp 7312 21 female R 3 5 1 immoralOther immoralOther match n n 1 0.8032 
13-May-2018_14:24:35 Exp 7312 21 female R 3 5 2 moralOther moralOther match n n 1 0.6960 
13-May-2018_14:24:38 Exp 7312 21 female R 3 5 3 moralOther moralSelf mismatch m m 1 0.8787 
13-May-2018_14:24:40 Exp 7312 21 female R 3 5 4 immoralOther moralOther mismatch m m 1 0.8769 
13-May-2018_14:24:43 Exp 7312 21 female R 3 5 5 immoralOther moralSelf mismatch m m 1 0.7231 
13-May-2018_14:24:45 Exp 7312 21 female R 3 5 6 moralOther immoralSelf mismatch m m 1 0.8422 
13-May-2018_14:24:48 Exp 7312 21 female R 3 5 7 moralOther moralSelf mismatch m m 1 0.9237 
13-May-2018_14:24:50 Exp 7312 21 female R 3 5 8 moralSelf immoralOther mismatch m m 1 0.7469 
13-May-2018_14:24:52 Exp 7312 21 female R 3 5 9 moralOther moralOther match n n 1 0.6346 
13-May-2018_14:24:55 Exp 7312 21 female R 3 5 10 immoralSelf immoralSelf match n n 1 0.9641 
13-May-2018_14:24:57 Exp 7312 21 female R 3 5 11 moralSelf immoralOther mismatch m m 1 0.6442 
13-May-2018_14:24:59 Exp 7312 21 female R 3 5 12 immoralOther immoralOther match n n 1 0.7699 
13-May-2018_14:25:02 Exp 7312 21 female R 3 5 13 immoralSelf moralSelf mismatch m m 1 0.4819 
13-May-2018_14:25:04 Exp 7312 21 female R 3 5 14 immoralOther moralSelf mismatch m m 1 0.6764 
13-May-2018_14:25:06 Exp 7312 21 female R 3 5 15 moralOther moralOther match n n 1 0.5626 
13-May-2018_14:25:08 Exp 7312 21 female R 3 5 16 moralSelf immoralOther mismatch m m 1 0.6028 
13-May-2018_14:25:11 Exp 7312 21 female R 3 5 17 moralSelf moralSelf match n n 1 0.9036 
13-May-2018_14:25:13 Exp 7312 21 female R 3 5 18 immoralOther immoralOther match n n 1 0.6665 
13-May-2018_14:25:15 Exp 7312 21 female R 3 5 19 immoralSelf moralOther mismatch m m 1 0.6044 
13-May-2018_14:25:18 Exp 7312 21 female R 3 5 20 immoralSelf immoralSelf match n n 1 0.7932 
13-May-2018_14:25:20 Exp 7312 21 female R 3 5 21 immoralSelf immoralSelf match n n 1 0.7538 
13-May-2018_14:25:23 Exp 7312 21 female R 3 5 22 moralSelf moralSelf match n n 1 0.6616 
13-May-2018_14:25:25 Exp 7312 21 female R 3 5 23 immoralSelf moralOther mismatch m m 1 0.6236 
13-May-2018_14:25:27 Exp 7312 21 female R 3 5 24 moralSelf moralSelf match n n 1 0.7809 
Date Prac Sub Age Sex Hand Block Bin Trial Shape Label Match CorrResp Resp ACC RT
13-May-2018_14:30:11 Exp 7312 21 female R 1 1 1 immoralSelf immoralSelf match n m 0 1.0795 
13-May-2018_14:30:13 Exp 7312 21 female R 1 1 2 moralSelf moralOther mismatch m m 1 0.7780 
13-May-2018_14:30:15 Exp 7312 21 female R 1 1 3 moralSelf moralSelf match n n 1 0.6064 
13-May-2018_14:30:18 Exp 7312 21 female R 1 1 4 immoralOther immoralSelf mismatch m m 1 0.9951 
13-May-2018_14:30:20 Exp 7312 21 female R 1 1 5 moralOther moralOther match n n 1 0.7557 
13-May-2018_14:30:22 Exp 7312 21 female R 1 1 6 immoralSelf moralOther mismatch m m 1 0.5356 
13-May-2018_14:30:25 Exp 7312 21 female R 1 1 7 immoralSelf moralOther mismatch m m 1 0.6909 
13-May-2018_14:30:27 Exp 7312 21 female R 1 1 8 moralSelf moralSelf match n n 1 0.5333 
13-May-2018_14:30:30 Exp 7312 21 female R 1 1 9 immoralOther immoralOther match n m 0 0.9048 
13-May-2018_14:30:32 Exp 7312 21 female R 1 1 10 moralOther moralSelf mismatch m n 0 0.7477 
13-May-2018_14:30:34 Exp 7312 21 female R 1 1 11 moralOther moralOther match n n 1 0.9393 
13-May-2018_14:30:37 Exp 7312 21 female R 1 1 12 moralSelf immoralSelf mismatch m m 1 0.8749 
13-May-2018_14:30:40 Exp 7312 21 female R 1 1 13 immoralSelf immoralOther mismatch m m 1 1.0332 
13-May-2018_14:30:42 Exp 7312 21 female R 1 1 14 immoralOther immoralOther match n n 1 0.8827 
13-May-2018_14:30:45 Exp 7312 21 female R 1 1 15 immoralSelf immoralSelf match n n 1 0.9411 
13-May-2018_14:30:47 Exp 7312 21 female R 1 1 16 moralSelf immoralSelf mismatch m m 1 0.9488 
13-May-2018_14:30:50 Exp 7312 21 female R 1 1 17 immoralSelf immoralSelf match n n 1 0.7724 
13-May-2018_14:30:52 Exp 7312 21 female R 1 1 18 moralOther moralOther match n m 0 0.5805 
13-May-2018_14:30:54 Exp 7312 21 female R 1 1 19 immoralOther immoralOther match n n 1 0.8009 
13-May-2018_14:30:57 Exp 7312 21 female R 1 1 20 moralSelf moralSelf match n n 1 0.6216 
13-May-2018_14:30:59 Exp 7312 21 female R 1 1 21 moralOther moralSelf mismatch m m 1 0.9469 
13-May-2018_14:31:02 Exp 7312 21 female R 1 1 22 immoralOther moralSelf mismatch m m 1 0.8745 
13-May-2018_14:31:04 Exp 7312 21 female R 1 1 23 moralOther immoralOther mismatch m m 1 0.8087 
13-May-2018_14:31:07 Exp 7312 21 female R 1 1 24 immoralOther immoralSelf mismatch m NA -1 1.0841 
13-May-2018_14:31:09 Exp 7312 21 female R 1 2 1 immoralOther moralSelf mismatch m m 1 0.8960 
13-May-2018_14:31:12 Exp 7312 21 female R 1 2 2 moralOther moralOther match n n 1 0.7106 
13-May-2018_14:31:14 Exp 7312 21 female R 1 2 3 immoralOther immoralOther match n m 0 0.8976 
13-May-2018_14:31:17 Exp 7312 21 female R 1 2 4 moralSelf moralSelf match n n 1 0.6243 
13-May-2018_14:31:19 Exp 7312 21 female R 1 2 5 immoralSelf immoralSelf match n n 1 0.8375 
13-May-2018_14:31:21 Exp 7312 21 female R 1 2 6 moralOther moralOther match n n 1 0.6631 
13-May-2018_14:31:24 Exp 7312 21 female R 1 2 7 moralOther moralOther match n n 1 0.9851 
13-May-2018_14:31:26 Exp 7312 21 female R 1 2 8 moralSelf moralSelf match n n 1 0.5974 
13-May-2018_14:31:29 Exp 7312 21 female R 1 2 9 immoralSelf moralSelf mismatch m m 1 0.9142 
13-May-2018_14:31:31 Exp 7312 21 female R 1 2 10 moralSelf immoralSelf mismatch m m 1 0.7491 
13-May-2018_14:31:34 Exp 7312 21 female R 1 2 11 moralSelf immoralSelf mismatch m m 1 0.9887 
13-May-2018_14:31:36 Exp 7312 21 female R 1 2 12 immoralSelf moralSelf mismatch m m 1 0.7573 
13-May-2018_14:31:38 Exp 7312 21 female R 1 2 13 moralOther immoralOther mismatch m m 1 0.6651 
13-May-2018_14:31:41 Exp 7312 21 female R 1 2 14 moralSelf immoralSelf mismatch m m 1 0.6512 
13-May-2018_14:31:43 Exp 7312 21 female R 1 2 15 immoralOther immoralSelf mismatch m n 0 0.8329 
13-May-2018_14:31:46 Exp 7312 21 female R 1 2 16 moralOther moralSelf mismatch m m 1 0.8264 
13-May-2018_14:31:48 Exp 7312 21 female R 1 2 17 moralSelf moralSelf match n n 1 0.7036 
13-May-2018_14:31:50 Exp 7312 21 female R 1 2 18 immoralSelf immoralSelf match n n 1 0.7866 
13-May-2018_14:31:53 Exp 7312 21 female R 1 2 19 immoralOther immoralOther match n n 1 0.9151 
13-May-2018_14:31:55 Exp 7312 21 female R 1 2 20 moralOther immoralOther mismatch m m 1 0.6583 
13-May-2018_14:31:58 Exp 7312 21 female R 1 2 21 immoralOther moralOther mismatch m m 1 0.8043 
13-May-2018_14:32:00 Exp 7312 21 female R 1 2 22 immoralOther immoralOther match n n 1 0.8010 
13-May-2018_14:32:02 Exp 7312 21 female R 1 2 23 immoralSelf immoralSelf match n n 1 0.7579 
13-May-2018_14:32:05 Exp 7312 21 female R 1 2 24 immoralSelf moralOther mismatch m m 1 0.8577 
Date Prac Sub Age Sex Hand Block Bin Trial Shape Label Match CorrResp Resp ACC RT
13-May-2018_14:36:34 Exp 7312 21 female R 1 1 1 immoralSelf immoralSelf match n n 1 0.7083 
13-May-2018_14:36:36 Exp 7312 21 female R 1 1 2 moralOther immoralOther mismatch m m 1 0.9593 
13-May-2018_14:36:39 Exp 7312 21 female R 1 1 3 moralOther moralSelf mismatch m m 1 0.8512 
13-May-2018_14:36:41 Exp 7312 21 female R 1 1 4 immoralSelf immoralSelf match n n 1 0.8408 
13-May-2018_14:36:44 Exp 7312 21 female R 1 1 5 moralOther moralOther match n n 1 0.7944 
13-May-2018_14:36:46 Exp 7312 21 female R 1 1 6 moralSelf immoralSelf mismatch m m 1 0.7709 
13-May-2018_14:36:48 Exp 7312 21 female R 1 1 7 immoralSelf immoralSelf match n n 1 0.5710 
13-May-2018_14:36:51 Exp 7312 21 female R 1 1 8 moralSelf immoralOther mismatch m m 1 0.8512 
13-May-2018_14:36:53 Exp 7312 21 female R 1 1 9 moralSelf immoralSelf mismatch m n 0 0.7929 
13-May-2018_14:36:56 Exp 7312 21 female R 1 1 10 immoralOther immoralOther match n NA -1 1.0841 
13-May-2018_14:36:58 Exp 7312 21 female R 1 1 11 immoralOther moralSelf mismatch m m 1 0.6599 
13-May-2018_14:37:00 Exp 7312 21 female R 1 1 12 immoralOther moralSelf mismatch m m 1 0.6059 
13-May-2018_14:37:02 Exp 7312 21 female R 1 1 13 moralSelf moralSelf match n n 1 0.5867 
13-May-2018_14:37:05 Exp 7312 21 female R 1 1 14 immoralSelf moralSelf mismatch m m 1 0.6992 
13-May-2018_14:37:07 Exp 7312 21 female R 1 1 15 moralSelf moralSelf match n n 1 0.5860 
13-May-2018_14:37:09 Exp 7312 21 female R 1 1 16 immoralOther immoralOther match n n 1 0.7385 
13-May-2018_14:37:12 Exp 7312 21 female R 1 1 17 moralOther moralOther match n n 1 0.7541 
13-May-2018_14:37:14 Exp 7312 21 female R 1 1 18 moralSelf moralSelf match n n 1 0.8860 
13-May-2018_14:37:17 Exp 7312 21 female R 1 1 19 moralOther moralOther match n n 1 0.7284 
13-May-2018_14:37:19 Exp 7312 21 female R 1 1 20 immoralOther immoralSelf mismatch m m 1 0.8757 
13-May-2018_14:37:22 Exp 7312 21 female R 1 1 21 immoralOther immoralOther match n n 1 0.7780 
13-May-2018_14:37:24 Exp 7312 21 female R 1 1 22 moralOther immoralSelf mismatch m m 1 0.7263 
13-May-2018_14:37:26 Exp 7312 21 female R 1 1 23 immoralSelf moralOther mismatch m m 1 0.6535 
13-May-2018_14:37:29 Exp 7312 21 female R 1 1 24 immoralSelf immoralOther mismatch m m 1 0.7792 
13-May-2018_14:37:31 Exp 7312 21 female R 1 2 1 immoralSelf immoralSelf match n n 1 0.6075 
13-May-2018_14:37:34 Exp 7312 21 female R 1 2 2 immoralOther moralOther mismatch m NA -1 1.0841 
13-May-2018_14:37:36 Exp 7312 21 female R 1 2 3 immoralOther moralOther mismatch m m 1 0.7749 
13-May-2018_14:37:38 Exp 7312 21 female R 1 2 4 moralOther moralOther match n n 1 0.6111 
13-May-2018_14:37:41 Exp 7312 21 female R 1 2 5 immoralSelf moralSelf mismatch m m 1 0.6202 
13-May-2018_14:37:43 Exp 7312 21 female R 1 2 6 immoralSelf moralOther mismatch m m 1 0.8292 
13-May-2018_14:37:45 Exp 7312 21 female R 1 2 7 immoralOther immoralOther match n n 1 0.7624 
13-May-2018_14:37:48 Exp 7312 21 female R 1 2 8 moralSelf moralSelf match n n 1 0.6746 
13-May-2018_14:37:50 Exp 7312 21 female R 1 2 9 immoralSelf immoralSelf match n n 1 0.6968 
13-May-2018_14:37:52 Exp 7312 21 female R 1 2 10 immoralSelf immoralSelf match n n 1 0.7195 
13-May-2018_14:37:55 Exp 7312 21 female R 1 2 11 moralSelf immoralSelf mismatch m m 1 0.7425 
13-May-2018_14:37:57 Exp 7312 21 female R 1 2 12 moralSelf moralSelf match n n 1 0.5422 
13-May-2018_14:37:59 Exp 7312 21 female R 1 2 13 moralSelf moralOther mismatch m m 1 0.8458 
13-May-2018_14:38:02 Exp 7312 21 female R 1 2 14 moralSelf immoralSelf mismatch m m 1 0.7876 
13-May-2018_14:38:04 Exp 7312 21 female R 1 2 15 immoralSelf moralSelf mismatch m m 1 0.7482 
13-May-2018_14:38:07 Exp 7312 21 female R 1 2 16 moralOther immoralSelf mismatch m m 1 0.7078 
13-May-2018_14:38:09 Exp 7312 21 female R 1 2 17 moralOther immoralOther mismatch m m 1 0.6706 
13-May-2018_14:38:11 Exp 7312 21 female R 1 2 18 immoralOther moralSelf mismatch m m 1 0.6769 
13-May-2018_14:38:14 Exp 7312 21 female R 1 2 19 moralOther moralSelf mismatch m m 1 0.7631 
13-May-2018_14:38:16 Exp 7312 21 female R 1 2 20 immoralOther immoralOther match n n 1 0.7392 
13-May-2018_14:38:18 Exp 7312 21 female R 1 2 21 moralOther moralOther match n m 0 0.5548 
13-May-2018_14:38:20 Exp 7312 21 female R 1 2 22 immoralOther immoralOther match n n 1 0.7267 
13-May-2018_14:38:23 Exp 7312 21 female R 1 2 23 moralSelf moralSelf match n n 1 0.6821 
13-May-2018_14:38:25 Exp 7312 21 female R 1 2 24 moralOther moralOther match n n 1 0.8925 
Date Prac Sub Age Sex Hand Block Bin Trial Shape Label Match CorrResp Resp ACC RT
13-May-2018_14:42:40 Exp 7312 21 female R 1 1 1 moralOther moralOther match n n 1 0.7632 
13-May-2018_14:42:43 Exp 7312 21 female R 1 1 2 moralSelf immoralOther mismatch m m 1 0.7474 
13-May-2018_14:42:45 Exp 7312 21 female R 1 1 3 moralOther moralSelf mismatch m m 1 0.7070 
13-May-2018_14:42:47 Exp 7312 21 female R 1 1 4 moralOther immoralSelf mismatch m m 1 0.7421 
13-May-2018_14:42:50 Exp 7312 21 female R 1 1 5 immoralOther moralSelf mismatch m m 1 0.6376 
13-May-2018_14:42:52 Exp 7312 21 female R 1 1 6 moralOther immoralSelf mismatch m m 1 0.6551 
13-May-2018_14:42:54 Exp 7312 21 female R 1 1 7 immoralOther immoralOther match n n 1 0.8048 
13-May-2018_14:42:57 Exp 7312 21 female R 1 1 8 immoralOther moralSelf mismatch m m 1 0.5856 
13-May-2018_14:42:59 Exp 7312 21 female R 1 1 9 immoralSelf moralSelf mismatch m m 1 0.5461 
13-May-2018_14:43:01 Exp 7312 21 female R 1 1 10 immoralOther immoralOther match n n 1 0.7139 
13-May-2018_14:43:03 Exp 7312 21 female R 1 1 11 immoralSelf immoralSelf match n n 1 0.6607 
13-May-2018_14:43:06 Exp 7312 21 female R 1 1 12 moralSelf moralOther mismatch m n 0 0.6147 
13-May-2018_14:43:08 Exp 7312 21 female R 1 1 13 immoralOther immoralOther match n n 1 0.6717 
13-May-2018_14:43:10 Exp 7312 21 female R 1 1 14 moralSelf immoralOther mismatch m m 1 0.6299 
13-May-2018_14:43:13 Exp 7312 21 female R 1 1 15 immoralSelf immoralSelf match n n 1 0.8112 
13-May-2018_14:43:15 Exp 7312 21 female R 1 1 16 immoralOther moralSelf mismatch m m 1 0.5642 
13-May-2018_14:43:17 Exp 7312 21 female R 1 1 17 immoralSelf immoralSelf match n n 1 0.9963 
13-May-2018_14:43:20 Exp 7312 21 female R 1 1 18 immoralSelf moralSelf mismatch m m 1 0.6529 
13-May-2018_14:43:22 Exp 7312 21 female R 1 1 19 immoralSelf moralSelf mismatch m m 1 0.6586 
13-May-2018_14:43:24 Exp 7312 21 female R 1 1 20 moralOther moralOther match n n 1 0.7087 
13-May-2018_14:43:26 Exp 7312 21 female R 1 1 21 moralSelf moralSelf match n n 1 0.5195 
13-May-2018_14:43:29 Exp 7312 21 female R 1 1 22 moralSelf moralSelf match n n 1 0.4867 
13-May-2018_14:43:31 Exp 7312 21 female R 1 1 23 moralSelf moralSelf match n n 1 0.4971 
13-May-2018_14:43:33 Exp 7312 21 female R 1 1 24 moralOther moralOther match n n 1 0.5838 
13-May-2018_14:43:35 Exp 7312 21 female R 1 2 1 immoralSelf moralOther mismatch m m 1 0.5642 
13-May-2018_14:43:38 Exp 7312 21 female R 1 2 2 immoralSelf immoralSelf match n n 1 0.7402 
13-May-2018_14:43:40 Exp 7312 21 female R 1 2 3 moralOther immoralOther mismatch m m 1 0.6438 
13-May-2018_14:43:42 Exp 7312 21 female R 1 2 4 immoralOther immoralOther match n n 1 0.5733 
13-May-2018_14:43:44 Exp 7312 21 female R 1 2 5 immoralOther moralSelf mismatch m m 1 0.5574 
13-May-2018_14:43:46 Exp 7312 21 female R 1 2 6 immoralOther immoralOther match n n 1 0.5932 
13-May-2018_14:43:49 Exp 7312 21 female R 1 2 7 moralOther moralOther match n m 0 0.6179 
13-May-2018_14:43:51 Exp 7312 21 female R 1 2 8 immoralOther immoralSelf mismatch m n 0 0.6908 
13-May-2018_14:43:53 Exp 7312 21 female R 1 2 9 moralOther moralOther match n n 1 0.7092 
13-May-2018_14:43:56 Exp 7312 21 female R 1 2 10 immoralSelf immoralSelf match n n 1 0.8722 
13-May-2018_14:43:58 Exp 7312 21 female R 1 2 11 moralSelf immoralOther mismatch m m 1 0.7424 
13-May-2018_14:44:01 Exp 7312 21 female R 1 2 12 immoralSelf moralSelf mismatch m m 1 0.8060 
13-May-2018_14:44:03 Exp 7312 21 female R 1 2 13 immoralSelf immoralSelf match n n 1 0.8109 
13-May-2018_14:44:05 Exp 7312 21 female R 1 2 14 moralSelf immoralOther mismatch m m 1 0.6758 
13-May-2018_14:44:08 Exp 7312 21 female R 1 2 15 moralOther moralOther match n n 1 0.7061 
13-May-2018_14:44:10 Exp 7312 21 female R 1 2 16 moralSelf moralSelf match n n 1 0.5730 
13-May-2018_14:44:12 Exp 7312 21 female R 1 2 17 moralOther moralSelf mismatch m m 1 0.9011 
13-May-2018_14:44:15 Exp 7312 21 female R 1 2 18 moralSelf moralSelf match n n 1 0.5638 
13-May-2018_14:44:17 Exp 7312 21 female R 1 2 19 moralSelf immoralSelf mismatch m m 1 0.6758 
13-May-2018_14:44:19 Exp 7312 21 female R 1 2 20 moralOther immoralSelf mismatch m m 1 0.8741 
13-May-2018_14:44:22 Exp 7312 21 female R 1 2 21 immoralSelf moralSelf mismatch m m 1 0.7443 
13-May-2018_14:44:24 Exp 7312 21 female R 1 2 22 immoralOther immoralSelf mismatch m m 1 0.7518 
13-May-2018_14:44:26 Exp 7312 21 female R 1 2 23 moralSelf moralSelf match n n 1 0.5958 
13-May-2018_14:44:29 Exp 7312 21 female R 1 2 24 immoralOther immoralOther match n n 1 0.6283 
Date Prac Sub Age Sex Hand Block Bin Trial Shape Label Match CorrResp Resp ACC RT
13-May-2018_14:48:35 Exp 7312 21 female R 1 1 1 immoralOther moralOther mismatch m u 2 0.9580 
13-May-2018_14:48:38 Exp 7312 21 female R 1 1 2 immoralOther immoralOther match n NA -1 1.0841 
13-May-2018_14:48:41 Exp 7312 21 female R 1 1 3 moralOther moralOther match n NA -1 1.0841 
13-May-2018_14:48:43 Exp 7312 21 female R 1 1 4 moralOther moralOther match n n 1 0.8949 
13-May-2018_14:48:46 Exp 7312 21 female R 1 1 5 moralOther moralOther match n n 1 0.5096 
13-May-2018_14:48:48 Exp 7312 21 female R 1 1 6 immoralSelf moralSelf mismatch m m 1 0.6645 
13-May-2018_14:48:50 Exp 7312 21 female R 1 1 7 moralSelf moralSelf match n n 1 0.4584 
13-May-2018_14:48:52 Exp 7312 21 female R 1 1 8 immoralOther immoralOther match n n 1 0.9484 
13-May-2018_14:48:55 Exp 7312 21 female R 1 1 9 moralOther immoralOther mismatch m m 1 0.7401 
13-May-2018_14:48:57 Exp 7312 21 female R 1 1 10 moralOther moralSelf mismatch m m 1 0.5957 
13-May-2018_14:49:00 Exp 7312 21 female R 1 1 11 immoralOther immoralSelf mismatch m m 1 0.7722 
13-May-2018_14:49:02 Exp 7312 21 female R 1 1 12 immoralSelf moralSelf mismatch m m 1 0.7045 
13-May-2018_14:49:04 Exp 7312 21 female R 1 1 13 moralSelf immoralSelf mismatch m m 1 0.6275 
13-May-2018_14:49:06 Exp 7312 21 female R 1 1 14 moralSelf moralSelf match n n 1 0.5447 
13-May-2018_14:49:09 Exp 7312 21 female R 1 1 15 moralSelf moralOther mismatch m m 1 0.7764 
13-May-2018_14:49:11 Exp 7312 21 female R 1 1 16 immoralOther immoralOther match n n 1 0.7727 
13-May-2018_14:49:13 Exp 7312 21 female R 1 1 17 immoralSelf immoralSelf match n m 0 0.5728 
13-May-2018_14:49:16 Exp 7312 21 female R 1 1 18 immoralSelf immoralSelf match n n 1 0.6208 
13-May-2018_14:49:18 Exp 7312 21 female R 1 1 19 moralOther immoralOther mismatch m m 1 0.7301 
13-May-2018_14:49:20 Exp 7312 21 female R 1 1 20 immoralSelf moralOther mismatch m m 1 0.7096 
13-May-2018_14:49:23 Exp 7312 21 female R 1 1 21 immoralSelf immoralSelf match n n 1 0.9284 
13-May-2018_14:49:25 Exp 7312 21 female R 1 1 22 moralSelf moralOther mismatch m m 1 0.8359 
13-May-2018_14:49:27 Exp 7312 21 female R 1 1 23 moralSelf moralSelf match n n 1 0.5173 
13-May-2018_14:49:30 Exp 7312 21 female R 1 1 24 immoralOther moralOther mismatch m m 1 1.0045 
13-May-2018_14:49:32 Exp 7312 21 female R 1 2 1 immoralOther immoralSelf mismatch m n 0 0.7293 
13-May-2018_14:49:35 Exp 7312 21 female R 1 2 2 moralSelf immoralSelf mismatch m m 1 0.8207 
13-May-2018_14:49:37 Exp 7312 21 female R 1 2 3 immoralSelf moralSelf mismatch m m 1 0.8660 
13-May-2018_14:49:40 Exp 7312 21 female R 1 2 4 moralOther moralOther match n n 1 0.8039 
13-May-2018_14:49:42 Exp 7312 21 female R 1 2 5 immoralSelf immoralSelf match n n 1 0.8407 
13-May-2018_14:49:44 Exp 7312 21 female R 1 2 6 moralSelf moralSelf match n n 1 0.5222 
13-May-2018_14:49:47 Exp 7312 21 female R 1 2 7 moralSelf immoralOther mismatch m m 1 0.6974 
13-May-2018_14:49:49 Exp 7312 21 female R 1 2 8 immoralOther moralSelf mismatch m m 1 0.6721 
13-May-2018_14:49:52 Exp 7312 21 female R 1 2 9 immoralSelf immoralSelf match n n 1 0.8303 
13-May-2018_14:49:54 Exp 7312 21 female R 1 2 10 moralSelf immoralSelf mismatch m m 1 0.6276 
13-May-2018_14:49:56 Exp 7312 21 female R 1 2 11 immoralOther moralOther mismatch m m 1 0.8168 
13-May-2018_14:49:58 Exp 7312 21 female R 1 2 12 moralSelf moralSelf match n n 1 0.6019 
13-May-2018_14:50:01 Exp 7312 21 female R 1 2 13 moralOther immoralSelf mismatch m m 1 0.6947 
13-May-2018_14:50:03 Exp 7312 21 female R 1 2 14 immoralOther immoralOther match n n 1 0.6853 
13-May-2018_14:50:06 Exp 7312 21 female R 1 2 15 moralOther immoralOther mismatch m m 1 0.7838 
13-May-2018_14:50:08 Exp 7312 21 female R 1 2 16 immoralOther immoralOther match n n 1 0.7641 
13-May-2018_14:50:10 Exp 7312 21 female R 1 2 17 moralOther moralOther match n n 1 0.7483 
13-May-2018_14:50:13 Exp 7312 21 female R 1 2 18 immoralSelf immoralOther mismatch m m 1 0.8758 
13-May-2018_14:50:15 Exp 7312 21 female R 1 2 19 immoralSelf immoralSelf match n n 1 0.8660 
13-May-2018_14:50:18 Exp 7312 21 female R 1 2 20 moralOther immoralSelf mismatch m m 1 0.7561 
13-May-2018_14:50:20 Exp 7312 21 female R 1 2 21 immoralSelf moralSelf mismatch m m 1 0.8479 
13-May-2018_14:50:22 Exp 7312 21 female R 1 2 22 immoralOther immoralOther match n n 1 0.5976 
13-May-2018_14:50:25 Exp 7312 21 female R 1 2 23 moralOther moralOther match n m 0 0.8184 
13-May-2018_14:50:27 Exp 7312 21 female R 1 2 24 moralSelf moralSelf match n n 1 0.7715 
Date Prac Sub Age Sex Hand Block Bin Trial Shape Label Match CorrResp Resp ACC RT
13-May-2018_14:54:27 Exp 7312 21 female R 1 1 1 immoralOther moralOther mismatch m u 2 0.9286 
13-May-2018_14:54:30 Exp 7312 21 female R 1 1 2 immoralOther immoralSelf mismatch m m 1 0.8762 
13-May-2018_14:54:32 Exp 7312 21 female R 1 1 3 immoralSelf immoralSelf match n n 1 0.6664 
13-May-2018_14:54:35 Exp 7312 21 female R 1 1 4 immoralOther immoralOther match n m 0 0.8444 
13-May-2018_14:54:37 Exp 7312 21 female R 1 1 5 moralOther immoralSelf mismatch m m 1 0.5221 
13-May-2018_14:54:39 Exp 7312 21 female R 1 1 6 immoralSelf immoralSelf match n n 1 0.6253 
13-May-2018_14:54:41 Exp 7312 21 female R 1 1 7 moralSelf moralSelf match n n 1 0.6705 
13-May-2018_14:54:44 Exp 7312 21 female R 1 1 8 moralOther moralOther match n n 1 0.6448 
13-May-2018_14:54:46 Exp 7312 21 female R 1 1 9 immoralSelf immoralOther mismatch m m 1 0.7304 
13-May-2018_14:54:48 Exp 7312 21 female R 1 1 10 moralOther moralOther match n m 0 0.7898 
13-May-2018_14:54:51 Exp 7312 21 female R 1 1 11 immoralSelf immoralOther mismatch m m 1 0.8064 
13-May-2018_14:54:53 Exp 7312 21 female R 1 1 12 moralOther immoralOther mismatch m n 0 0.6192 
13-May-2018_14:54:55 Exp 7312 21 female R 1 1 13 moralSelf immoralSelf mismatch m m 1 0.6843 
13-May-2018_14:54:58 Exp 7312 21 female R 1 1 14 moralOther immoralOther mismatch m n 0 0.6467 
13-May-2018_14:55:00 Exp 7312 21 female R 1 1 15 moralSelf moralSelf match n n 1 0.5644 
13-May-2018_14:55:03 Exp 7312 21 female R 1 1 16 immoralSelf immoralOther mismatch m m 1 0.9725 
13-May-2018_14:55:05 Exp 7312 21 female R 1 1 17 immoralSelf immoralSelf match n n 1 0.7566 
13-May-2018_14:55:07 Exp 7312 21 female R 1 1 18 moralSelf moralOther mismatch m n 0 0.5445 
13-May-2018_14:55:10 Exp 7312 21 female R 1 1 19 immoralOther moralOther mismatch m m 1 0.8881 
13-May-2018_14:55:12 Exp 7312 21 female R 1 1 20 moralSelf moralSelf match n n 1 0.6506 
13-May-2018_14:55:14 Exp 7312 21 female R 1 1 21 immoralOther immoralOther match n n 1 0.8323 
13-May-2018_14:55:17 Exp 7312 21 female R 1 1 22 immoralOther immoralOther match n m 0 0.9458 
13-May-2018_14:55:19 Exp 7312 21 female R 1 1 23 moralSelf immoralOther mismatch m m 1 0.7135 
13-May-2018_14:55:22 Exp 7312 21 female R 1 1 24 moralOther moralOther match n n 1 0.7003 
13-May-2018_14:55:24 Exp 7312 21 female R 1 2 1 immoralOther immoralOther match n n 1 0.7790 
13-May-2018_14:55:26 Exp 7312 21 female R 1 2 2 moralOther moralOther match n n 1 0.6793 
13-May-2018_14:55:29 Exp 7312 21 female R 1 2 3 immoralOther immoralOther match n n 1 0.6258 
13-May-2018_14:55:31 Exp 7312 21 female R 1 2 4 moralSelf moralSelf match n n 1 0.6150 
13-May-2018_14:55:33 Exp 7312 21 female R 1 2 5 moralSelf moralSelf match n m 0 0.8641 
13-May-2018_14:55:36 Exp 7312 21 female R 1 2 6 immoralSelf moralSelf mismatch m m 1 0.8500 
13-May-2018_14:55:38 Exp 7312 21 female R 1 2 7 immoralSelf immoralOther mismatch m m 1 0.7678 
13-May-2018_14:55:41 Exp 7312 21 female R 1 2 8 immoralOther moralOther mismatch m m 1 0.8319 
13-May-2018_14:55:43 Exp 7312 21 female R 1 2 9 moralSelf immoralSelf mismatch m m 1 0.7412 
13-May-2018_14:55:46 Exp 7312 21 female R 1 2 10 immoralOther immoralOther match n n 1 0.8288 
13-May-2018_14:55:48 Exp 7312 21 female R 1 2 11 moralOther moralOther match n n 1 0.7140 
13-May-2018_14:55:50 Exp 7312 21 female R 1 2 12 moralOther immoralOther mismatch m m 1 0.7011 
13-May-2018_14:55:52 Exp 7312 21 female R 1 2 13 moralSelf moralOther mismatch m n 0 0.5397 
13-May-2018_14:55:55 Exp 7312 21 female R 1 2 14 immoralSelf immoralOther mismatch m m 1 0.7392 
13-May-2018_14:55:57 Exp 7312 21 female R 1 2 15 moralOther immoralSelf mismatch m m 1 0.9549 
13-May-2018_14:56:00 Exp 7312 21 female R 1 2 16 moralOther moralSelf mismatch m m 1 0.7988 
13-May-2018_14:56:02 Exp 7312 21 female R 1 2 17 immoralOther moralSelf mismatch m m 1 0.6196 
13-May-2018_14:56:05 Exp 7312 21 female R 1 2 18 immoralSelf immoralSelf match n n 1 0.8767 
13-May-2018_14:56:07 Exp 7312 21 female R 1 2 19 moralSelf moralOther mismatch m m 1 0.8029 
13-May-2018_14:56:10 Exp 7312 21 female R 1 2 20 immoralSelf immoralSelf match n n 1 0.9436 
13-May-2018_14:56:12 Exp 7312 21 female R 1 2 21 moralOther moralOther match n n 1 0.5593 
13-May-2018_14:56:14 Exp 7312 21 female R 1 2 22 immoralSelf immoralSelf match n n 1 0.7472 
13-May-2018_14:56:16 Exp 7312 21 female R 1 2 23 moralSelf moralSelf match n n 1 0.6907 
13-May-2018_14:56:19 Exp 7312 21 female R 1 2 24 immoralOther moralSelf mismatch m m 1 0.7813 
