Date Prac Sub Age Sex Hand Block Bin Trial Shape Label Match CorrResp Resp ACC RT
Date Prac Sub Age Sex Hand Block Bin Trial Shape Label Match CorrResp Resp ACC RT
20-May-2018_16:35:36 Exp 7326 20 male R 1 1 1 immoralSelf immoralSelf match m NA -1 1.0260 
20-May-2018_16:35:38 Exp 7326 20 male R 1 1 2 immoralOther immoralOther match m m 1 0.7444 
20-May-2018_16:35:41 Exp 7326 20 male R 1 1 3 immoralSelf immoralSelf match m n 0 0.6705 
20-May-2018_16:35:43 Exp 7326 20 male R 1 1 4 immoralOther immoralSelf mismatch n NA -1 1.0260 
20-May-2018_16:35:45 Exp 7326 20 male R 1 1 5 moralSelf moralOther mismatch n m 0 0.5688 
20-May-2018_16:35:48 Exp 7326 20 male R 1 1 6 immoralSelf moralSelf mismatch n n 1 0.9446 
20-May-2018_16:35:50 Exp 7326 20 male R 1 1 7 moralOther immoralOther mismatch n n 1 0.7272 
20-May-2018_16:35:53 Exp 7326 20 male R 1 1 8 immoralOther immoralSelf mismatch n m 0 0.7993 
20-May-2018_16:35:55 Exp 7326 20 male R 1 1 9 immoralSelf moralOther mismatch n n 1 0.7134 
20-May-2018_16:35:57 Exp 7326 20 male R 1 1 10 moralOther moralOther match m m 1 0.5735 
20-May-2018_16:36:00 Exp 7326 20 male R 1 1 11 immoralSelf immoralOther mismatch n m 0 0.8616 
20-May-2018_16:36:02 Exp 7326 20 male R 1 1 12 immoralOther immoralOther match m m 1 0.8198 
20-May-2018_16:36:05 Exp 7326 20 male R 1 1 13 immoralOther immoralOther match m m 1 0.8019 
20-May-2018_16:36:07 Exp 7326 20 male R 1 1 14 immoralOther immoralSelf mismatch n n 1 0.9561 
20-May-2018_16:36:10 Exp 7326 20 male R 1 1 15 moralOther moralSelf mismatch n m 0 0.7281 
20-May-2018_16:36:12 Exp 7326 20 male R 1 1 16 moralOther moralOther match m m 1 0.5443 
20-May-2018_16:36:14 Exp 7326 20 male R 1 1 17 moralOther immoralOther mismatch n n 1 0.7984 
20-May-2018_16:36:17 Exp 7326 20 male R 1 1 18 immoralSelf immoralSelf match m m 1 0.9446 
20-May-2018_16:36:19 Exp 7326 20 male R 1 1 19 moralOther moralOther match m m 1 0.5827 
20-May-2018_16:36:21 Exp 7326 20 male R 1 1 20 moralSelf moralOther mismatch n n 1 0.7089 
20-May-2018_16:36:24 Exp 7326 20 male R 1 1 21 moralSelf moralSelf match m m 1 0.7290 
20-May-2018_16:36:26 Exp 7326 20 male R 1 1 22 moralSelf moralSelf match m m 1 0.6971 
20-May-2018_16:36:28 Exp 7326 20 male R 1 1 23 moralSelf moralSelf match m m 1 0.6072 
20-May-2018_16:36:31 Exp 7326 20 male R 1 1 24 moralSelf moralOther mismatch n n 1 0.6554 
20-May-2018_16:36:33 Exp 7326 20 male R 1 2 1 moralSelf moralOther mismatch n n 1 0.7356 
20-May-2018_16:36:35 Exp 7326 20 male R 1 2 2 immoralOther moralSelf mismatch n n 1 0.6876 
20-May-2018_16:36:38 Exp 7326 20 male R 1 2 3 moralOther immoralOther mismatch n n 1 0.8317 
20-May-2018_16:36:40 Exp 7326 20 male R 1 2 4 immoralSelf immoralOther mismatch n m 0 0.7399 
20-May-2018_16:36:43 Exp 7326 20 male R 1 2 5 immoralOther immoralOther match m m 1 0.8341 
20-May-2018_16:36:45 Exp 7326 20 male R 1 2 6 immoralOther immoralOther match m m 1 0.8702 
20-May-2018_16:36:47 Exp 7326 20 male R 1 2 7 immoralOther moralOther mismatch n n 1 0.6743 
20-May-2018_16:36:50 Exp 7326 20 male R 1 2 8 immoralSelf immoralSelf match m m 1 0.7824 
20-May-2018_16:36:52 Exp 7326 20 male R 1 2 9 moralOther immoralSelf mismatch n n 1 0.6686 
20-May-2018_16:36:55 Exp 7326 20 male R 1 2 10 immoralOther immoralOther match m m 1 0.8887 
20-May-2018_16:36:57 Exp 7326 20 male R 1 2 11 moralSelf moralSelf match m n 0 0.6809 
20-May-2018_16:36:59 Exp 7326 20 male R 1 2 12 moralOther moralOther match m m 1 0.5310 
20-May-2018_16:37:01 Exp 7326 20 male R 1 2 13 moralSelf moralSelf match m m 1 0.6751 
20-May-2018_16:37:04 Exp 7326 20 male R 1 2 14 immoralOther immoralSelf mismatch n m 0 0.7832 
20-May-2018_16:37:06 Exp 7326 20 male R 1 2 15 immoralSelf moralOther mismatch n n 1 0.7174 
20-May-2018_16:37:08 Exp 7326 20 male R 1 2 16 moralOther moralOther match m m 1 0.5836 
20-May-2018_16:37:11 Exp 7326 20 male R 1 2 17 immoralSelf immoralSelf match m m 1 0.7738 
20-May-2018_16:37:13 Exp 7326 20 male R 1 2 18 moralSelf moralSelf match m m 1 0.7258 
20-May-2018_16:37:15 Exp 7326 20 male R 1 2 19 immoralSelf immoralSelf match m m 1 0.7759 
20-May-2018_16:37:18 Exp 7326 20 male R 1 2 20 moralOther moralOther match m m 1 0.5281 
20-May-2018_16:37:20 Exp 7326 20 male R 1 2 21 moralOther moralSelf mismatch n m 0 0.7042 
20-May-2018_16:37:23 Exp 7326 20 male R 1 2 22 immoralSelf moralSelf mismatch n n 1 0.9262 
20-May-2018_16:37:25 Exp 7326 20 male R 1 2 23 moralSelf moralOther mismatch n n 1 0.8165 
20-May-2018_16:37:27 Exp 7326 20 male R 1 2 24 moralSelf immoralOther mismatch n n 1 0.7606 
20-May-2018_16:37:30 Exp 7326 20 male R 1 3 1 moralOther moralOther match m m 1 0.5948 
20-May-2018_16:37:32 Exp 7326 20 male R 1 3 2 moralOther immoralOther mismatch n n 1 0.6789 
20-May-2018_16:37:34 Exp 7326 20 male R 1 3 3 immoralSelf immoralSelf match m m 1 0.7290 
20-May-2018_16:37:37 Exp 7326 20 male R 1 3 4 immoralSelf moralSelf mismatch n n 1 0.8011 
20-May-2018_16:37:39 Exp 7326 20 male R 1 3 5 moralSelf moralOther mismatch n m 0 0.9313 
20-May-2018_16:37:42 Exp 7326 20 male R 1 3 6 immoralOther immoralOther match m m 1 1.0034 
20-May-2018_16:37:44 Exp 7326 20 male R 1 3 7 immoralOther immoralSelf mismatch n n 1 0.7576 
20-May-2018_16:37:47 Exp 7326 20 male R 1 3 8 moralOther moralSelf mismatch n n 1 0.8638 
20-May-2018_16:37:49 Exp 7326 20 male R 1 3 9 immoralSelf immoralSelf match m m 1 0.8219 
20-May-2018_16:37:52 Exp 7326 20 male R 1 3 10 moralOther immoralOther mismatch n n 1 0.7240 
20-May-2018_16:37:54 Exp 7326 20 male R 1 3 11 moralSelf moralSelf match m m 1 0.6701 
20-May-2018_16:37:56 Exp 7326 20 male R 1 3 12 moralSelf immoralOther mismatch n n 1 0.6343 
20-May-2018_16:37:58 Exp 7326 20 male R 1 3 13 moralOther moralOther match m m 1 0.5184 
20-May-2018_16:38:00 Exp 7326 20 male R 1 3 14 immoralSelf moralSelf mismatch n m 0 0.6166 
20-May-2018_16:38:03 Exp 7326 20 male R 1 3 15 moralOther moralOther match m m 1 0.6006 
20-May-2018_16:38:05 Exp 7326 20 male R 1 3 16 immoralOther immoralOther match m m 1 0.7948 
20-May-2018_16:38:08 Exp 7326 20 male R 1 3 17 immoralSelf immoralSelf match m m 1 0.7590 
20-May-2018_16:38:10 Exp 7326 20 male R 1 3 18 immoralOther immoralOther match m m 1 0.8650 
20-May-2018_16:38:12 Exp 7326 20 male R 1 3 19 immoralOther moralOther mismatch n n 1 0.7031 
20-May-2018_16:38:15 Exp 7326 20 male R 1 3 20 moralSelf immoralOther mismatch n m 0 1.0213 
20-May-2018_16:38:17 Exp 7326 20 male R 1 3 21 immoralOther immoralSelf mismatch n n 1 0.6914 
20-May-2018_16:38:20 Exp 7326 20 male R 1 3 22 moralSelf moralSelf match m m 1 0.6917 
20-May-2018_16:38:22 Exp 7326 20 male R 1 3 23 moralSelf moralSelf match m m 1 0.6437 
20-May-2018_16:38:25 Exp 7326 20 male R 1 3 24 immoralSelf immoralOther mismatch n NA -1 1.0260 
20-May-2018_16:38:39 Exp 7326 20 male R 1 4 1 moralOther immoralOther mismatch n n 1 1.0226 
20-May-2018_16:38:42 Exp 7326 20 male R 1 4 2 immoralSelf moralSelf mismatch n n 1 0.8288 
20-May-2018_16:38:44 Exp 7326 20 male R 1 4 3 immoralSelf moralOther mismatch n m 0 0.6969 
20-May-2018_16:38:46 Exp 7326 20 male R 1 4 4 moralSelf moralSelf match m m 1 0.5831 
20-May-2018_16:38:48 Exp 7326 20 male R 1 4 5 moralOther immoralOther mismatch n n 1 0.6533 
20-May-2018_16:38:51 Exp 7326 20 male R 1 4 6 immoralOther moralSelf mismatch n n 1 0.8134 
20-May-2018_16:38:53 Exp 7326 20 male R 1 4 7 moralOther moralSelf mismatch n m 0 0.6135 
20-May-2018_16:38:56 Exp 7326 20 male R 1 4 8 immoralOther immoralSelf mismatch n n 1 0.9737 
20-May-2018_16:38:58 Exp 7326 20 male R 1 4 9 immoralOther immoralOther match m m 1 0.7658 
20-May-2018_16:39:01 Exp 7326 20 male R 1 4 10 immoralSelf immoralSelf match m m 1 0.8160 
20-May-2018_16:39:03 Exp 7326 20 male R 1 4 11 moralOther moralOther match m m 1 0.6640 
20-May-2018_16:39:05 Exp 7326 20 male R 1 4 12 immoralSelf immoralSelf match m m 1 0.8302 
20-May-2018_16:39:08 Exp 7326 20 male R 1 4 13 immoralSelf immoralSelf match m m 1 0.6343 
20-May-2018_16:39:10 Exp 7326 20 male R 1 4 14 moralSelf moralOther mismatch n m 0 0.7747 
20-May-2018_16:39:12 Exp 7326 20 male R 1 4 15 moralSelf immoralSelf mismatch n n 1 0.7105 
20-May-2018_16:39:14 Exp 7326 20 male R 1 4 16 moralOther moralOther match m m 1 0.5468 
20-May-2018_16:39:17 Exp 7326 20 male R 1 4 17 moralSelf moralOther mismatch n n 1 0.6968 
20-May-2018_16:39:19 Exp 7326 20 male R 1 4 18 moralSelf moralSelf match m m 1 0.8170 
20-May-2018_16:39:22 Exp 7326 20 male R 1 4 19 immoralOther immoralOther match m m 1 1.0091 
20-May-2018_16:39:24 Exp 7326 20 male R 1 4 20 immoralOther moralSelf mismatch n n 1 0.6493 
20-May-2018_16:39:26 Exp 7326 20 male R 1 4 21 moralSelf moralSelf match m m 1 0.6654 
20-May-2018_16:39:29 Exp 7326 20 male R 1 4 22 moralOther moralOther match m m 1 0.5598 
20-May-2018_16:39:31 Exp 7326 20 male R 1 4 23 immoralSelf moralOther mismatch n n 1 0.7616 
20-May-2018_16:39:33 Exp 7326 20 male R 1 4 24 immoralOther immoralOther match m m 1 0.8118 
20-May-2018_16:39:36 Exp 7326 20 male R 1 5 1 immoralSelf moralOther mismatch n n 1 0.6680 
20-May-2018_16:39:38 Exp 7326 20 male R 1 5 2 immoralSelf immoralSelf match m n 0 0.5681 
20-May-2018_16:39:40 Exp 7326 20 male R 1 5 3 moralOther moralOther match m m 1 0.5042 
20-May-2018_16:39:42 Exp 7326 20 male R 1 5 4 immoralOther moralSelf mismatch n n 1 0.6303 
20-May-2018_16:39:45 Exp 7326 20 male R 1 5 5 moralOther moralOther match m m 1 0.5864 
20-May-2018_16:39:47 Exp 7326 20 male R 1 5 6 immoralOther moralOther mismatch n n 1 0.9846 
20-May-2018_16:39:50 Exp 7326 20 male R 1 5 7 moralOther immoralSelf mismatch n n 1 0.8948 
20-May-2018_16:39:52 Exp 7326 20 male R 1 5 8 moralSelf moralSelf match m m 1 0.7028 
20-May-2018_16:39:54 Exp 7326 20 male R 1 5 9 immoralOther immoralOther match m m 1 0.7410 
20-May-2018_16:39:57 Exp 7326 20 male R 1 5 10 immoralOther immoralOther match m m 1 0.5472 
20-May-2018_16:39:59 Exp 7326 20 male R 1 5 11 moralSelf moralOther mismatch n m 0 0.7272 
20-May-2018_16:40:02 Exp 7326 20 male R 1 5 12 immoralSelf immoralOther mismatch n NA -1 1.0260 
20-May-2018_16:40:04 Exp 7326 20 male R 1 5 13 moralSelf moralOther mismatch n m 0 0.5255 
20-May-2018_16:40:06 Exp 7326 20 male R 1 5 14 moralOther immoralOther mismatch n n 1 0.5997 
20-May-2018_16:40:08 Exp 7326 20 male R 1 5 15 moralSelf moralSelf match m m 1 0.5618 
20-May-2018_16:40:11 Exp 7326 20 male R 1 5 16 moralOther immoralOther mismatch n n 1 0.8519 
20-May-2018_16:40:13 Exp 7326 20 male R 1 5 17 immoralOther moralOther mismatch n m 0 0.7801 
20-May-2018_16:40:15 Exp 7326 20 male R 1 5 18 moralSelf moralSelf match m m 1 0.5862 
20-May-2018_16:40:18 Exp 7326 20 male R 1 5 19 immoralSelf immoralOther mismatch n n 1 0.7523 
20-May-2018_16:40:20 Exp 7326 20 male R 1 5 20 moralOther moralOther match m m 1 0.8844 
20-May-2018_16:40:22 Exp 7326 20 male R 1 5 21 immoralSelf immoralSelf match m n 0 0.5666 
20-May-2018_16:40:25 Exp 7326 20 male R 1 5 22 moralSelf immoralOther mismatch n n 1 0.6727 
20-May-2018_16:40:27 Exp 7326 20 male R 1 5 23 immoralOther immoralOther match m m 1 0.6449 
20-May-2018_16:40:29 Exp 7326 20 male R 1 5 24 immoralSelf immoralSelf match m m 1 0.7990 
20-May-2018_16:40:35 Exp 7326 20 male R 2 1 1 immoralOther moralOther mismatch n NA -1 1.0260 
20-May-2018_16:40:38 Exp 7326 20 male R 2 1 2 moralOther moralSelf mismatch n NA -1 1.0260 
20-May-2018_16:40:40 Exp 7326 20 male R 2 1 3 immoralSelf immoralSelf match m m 1 0.7677 
20-May-2018_16:40:42 Exp 7326 20 male R 2 1 4 immoralSelf immoralOther mismatch n n 1 0.6637 
20-May-2018_16:40:45 Exp 7326 20 male R 2 1 5 immoralSelf immoralOther mismatch n m 0 0.7178 
20-May-2018_16:40:47 Exp 7326 20 male R 2 1 6 immoralSelf immoralSelf match m m 1 0.7360 
20-May-2018_16:40:49 Exp 7326 20 male R 2 1 7 immoralOther immoralOther match m m 1 0.8081 
20-May-2018_16:40:52 Exp 7326 20 male R 2 1 8 moralSelf immoralOther mismatch n n 1 0.6963 
20-May-2018_16:40:54 Exp 7326 20 male R 2 1 9 moralOther moralOther match m m 1 0.5285 
20-May-2018_16:40:56 Exp 7326 20 male R 2 1 10 moralSelf immoralOther mismatch n n 1 0.6646 
20-May-2018_16:40:59 Exp 7326 20 male R 2 1 11 moralOther immoralOther mismatch n n 1 0.6786 
20-May-2018_16:41:01 Exp 7326 20 male R 2 1 12 immoralOther immoralOther match m m 1 0.7128 
20-May-2018_16:41:03 Exp 7326 20 male R 2 1 13 moralSelf moralOther mismatch n n 1 0.9490 
20-May-2018_16:41:06 Exp 7326 20 male R 2 1 14 moralOther moralOther match m m 1 0.4811 
20-May-2018_16:41:08 Exp 7326 20 male R 2 1 15 immoralOther moralSelf mismatch n n 1 0.5791 
20-May-2018_16:41:10 Exp 7326 20 male R 2 1 16 moralSelf moralSelf match m m 1 0.5853 
20-May-2018_16:41:12 Exp 7326 20 male R 2 1 17 immoralSelf immoralSelf match m m 1 0.7835 
20-May-2018_16:41:15 Exp 7326 20 male R 2 1 18 moralOther moralOther match m m 1 0.4936 
20-May-2018_16:41:17 Exp 7326 20 male R 2 1 19 immoralOther immoralOther match m m 1 0.8697 
20-May-2018_16:41:20 Exp 7326 20 male R 2 1 20 immoralSelf moralSelf mismatch n n 1 0.9298 
20-May-2018_16:41:22 Exp 7326 20 male R 2 1 21 moralOther immoralSelf mismatch n n 1 0.8020 
20-May-2018_16:41:24 Exp 7326 20 male R 2 1 22 immoralOther moralSelf mismatch n n 1 0.7562 
20-May-2018_16:41:27 Exp 7326 20 male R 2 1 23 moralSelf moralSelf match m m 1 0.5922 
20-May-2018_16:41:29 Exp 7326 20 male R 2 1 24 moralSelf moralSelf match m m 1 0.5404 
20-May-2018_16:41:31 Exp 7326 20 male R 2 2 1 immoralOther moralSelf mismatch n NA -1 1.0260 
20-May-2018_16:41:34 Exp 7326 20 male R 2 2 2 immoralSelf immoralSelf match m NA -1 1.0260 
20-May-2018_16:41:36 Exp 7326 20 male R 2 2 3 immoralSelf moralSelf mismatch n n 1 0.7268 
20-May-2018_16:41:39 Exp 7326 20 male R 2 2 4 moralOther immoralSelf mismatch n n 1 0.6250 
20-May-2018_16:41:41 Exp 7326 20 male R 2 2 5 immoralSelf immoralSelf match m m 1 0.5351 
20-May-2018_16:41:43 Exp 7326 20 male R 2 2 6 moralSelf moralOther mismatch n m 0 0.5592 
20-May-2018_16:41:45 Exp 7326 20 male R 2 2 7 moralSelf immoralOther mismatch n n 1 0.6413 
20-May-2018_16:41:48 Exp 7326 20 male R 2 2 8 immoralOther immoralOther match m n 0 0.6034 
20-May-2018_16:41:50 Exp 7326 20 male R 2 2 9 moralSelf moralSelf match m m 1 0.5897 
20-May-2018_16:41:52 Exp 7326 20 male R 2 2 10 immoralOther immoralOther match m m 1 0.7857 
20-May-2018_16:41:54 Exp 7326 20 male R 2 2 11 moralOther moralOther match m m 1 0.5998 
20-May-2018_16:41:57 Exp 7326 20 male R 2 2 12 moralOther moralOther match m m 1 0.5779 
20-May-2018_16:41:59 Exp 7326 20 male R 2 2 13 immoralSelf immoralSelf match m m 1 0.7120 
20-May-2018_16:42:01 Exp 7326 20 male R 2 2 14 moralSelf moralSelf match m m 1 0.8363 
20-May-2018_16:42:04 Exp 7326 20 male R 2 2 15 immoralOther moralOther mismatch n n 1 0.7124 
20-May-2018_16:42:06 Exp 7326 20 male R 2 2 16 moralOther moralOther match m m 1 0.5485 
20-May-2018_16:42:08 Exp 7326 20 male R 2 2 17 immoralOther immoralOther match m n 0 0.6086 
20-May-2018_16:42:10 Exp 7326 20 male R 2 2 18 moralSelf moralOther mismatch n m 0 0.5687 
20-May-2018_16:42:13 Exp 7326 20 male R 2 2 19 immoralSelf moralSelf mismatch n n 1 0.7049 
20-May-2018_16:42:15 Exp 7326 20 male R 2 2 20 moralOther moralSelf mismatch n m 0 0.4710 
20-May-2018_16:42:17 Exp 7326 20 male R 2 2 21 moralSelf moralSelf match m m 1 0.7551 
20-May-2018_16:42:19 Exp 7326 20 male R 2 2 22 moralOther immoralOther mismatch n n 1 0.6793 
20-May-2018_16:42:22 Exp 7326 20 male R 2 2 23 immoralOther moralOther mismatch n n 1 0.6255 
20-May-2018_16:42:24 Exp 7326 20 male R 2 2 24 immoralSelf immoralOther mismatch n m 0 0.6555 
20-May-2018_16:42:26 Exp 7326 20 male R 2 3 1 immoralOther moralSelf mismatch n n 1 0.6957 
20-May-2018_16:42:29 Exp 7326 20 male R 2 3 2 moralSelf immoralOther mismatch n n 1 0.6879 
20-May-2018_16:42:31 Exp 7326 20 male R 2 3 3 moralSelf moralSelf match m m 1 0.5919 
20-May-2018_16:42:33 Exp 7326 20 male R 2 3 4 moralSelf moralOther mismatch n n 1 0.7240 
20-May-2018_16:42:35 Exp 7326 20 male R 2 3 5 moralOther moralOther match m m 1 0.5262 
20-May-2018_16:42:38 Exp 7326 20 male R 2 3 6 moralSelf moralSelf match m m 1 0.5844 
20-May-2018_16:42:40 Exp 7326 20 male R 2 3 7 moralOther immoralOther mismatch n n 1 0.6064 
20-May-2018_16:42:42 Exp 7326 20 male R 2 3 8 moralOther moralOther match m m 1 0.4404 
20-May-2018_16:42:44 Exp 7326 20 male R 2 3 9 immoralOther immoralOther match m n 0 0.6586 
20-May-2018_16:42:47 Exp 7326 20 male R 2 3 10 moralOther immoralSelf mismatch n NA -1 1.0260 
20-May-2018_16:42:49 Exp 7326 20 male R 2 3 11 immoralSelf immoralSelf match m n 0 0.6549 
20-May-2018_16:42:51 Exp 7326 20 male R 2 3 12 immoralSelf immoralSelf match m n 0 0.4631 
20-May-2018_16:42:54 Exp 7326 20 male R 2 3 13 moralSelf immoralOther mismatch n NA -1 1.0260 
20-May-2018_16:42:56 Exp 7326 20 male R 2 3 14 immoralOther moralOther mismatch n n 1 0.6194 
20-May-2018_16:42:58 Exp 7326 20 male R 2 3 15 immoralSelf immoralOther mismatch n n 1 0.4895 
20-May-2018_16:43:00 Exp 7326 20 male R 2 3 16 immoralSelf immoralOther mismatch n n 1 0.5057 
20-May-2018_16:43:02 Exp 7326 20 male R 2 3 17 moralOther immoralOther mismatch n m 0 0.4958 
20-May-2018_16:43:05 Exp 7326 20 male R 2 3 18 immoralSelf immoralSelf match m m 1 0.6558 
20-May-2018_16:43:07 Exp 7326 20 male R 2 3 19 moralOther moralOther match m m 1 0.5200 
20-May-2018_16:43:09 Exp 7326 20 male R 2 3 20 immoralOther moralSelf mismatch n n 1 0.6263 
20-May-2018_16:43:12 Exp 7326 20 male R 2 3 21 immoralSelf moralSelf mismatch n m 0 0.7282 
20-May-2018_16:43:14 Exp 7326 20 male R 2 3 22 immoralOther immoralOther match m n 0 0.6325 
20-May-2018_16:43:16 Exp 7326 20 male R 2 3 23 moralSelf moralSelf match m m 1 0.5806 
20-May-2018_16:43:18 Exp 7326 20 male R 2 3 24 immoralOther immoralOther match m n 0 0.5467 
20-May-2018_16:43:35 Exp 7326 20 male R 2 4 1 moralSelf moralOther mismatch n NA -1 1.0260 
20-May-2018_16:43:37 Exp 7326 20 male R 2 4 2 moralOther immoralOther mismatch n n 1 0.6479 
20-May-2018_16:43:40 Exp 7326 20 male R 2 4 3 immoralSelf moralOther mismatch n n 1 0.6638 
20-May-2018_16:43:42 Exp 7326 20 male R 2 4 4 immoralSelf immoralSelf match m m 1 0.8140 
20-May-2018_16:43:45 Exp 7326 20 male R 2 4 5 moralSelf moralSelf match m n 0 0.7981 
20-May-2018_16:43:47 Exp 7326 20 male R 2 4 6 moralOther moralSelf mismatch n n 1 0.7842 
20-May-2018_16:43:50 Exp 7326 20 male R 2 4 7 immoralOther immoralSelf mismatch n n 1 0.9904 
20-May-2018_16:43:52 Exp 7326 20 male R 2 4 8 immoralOther immoralSelf mismatch n n 1 0.7465 
20-May-2018_16:43:54 Exp 7326 20 male R 2 4 9 moralOther moralOther match m m 1 0.4807 
20-May-2018_16:43:56 Exp 7326 20 male R 2 4 10 immoralSelf immoralSelf match m m 1 0.6509 
20-May-2018_16:43:59 Exp 7326 20 male R 2 4 11 moralSelf immoralSelf mismatch n NA -1 1.0260 
20-May-2018_16:44:01 Exp 7326 20 male R 2 4 12 immoralOther moralOther mismatch n n 1 0.6971 
20-May-2018_16:44:04 Exp 7326 20 male R 2 4 13 immoralSelf immoralSelf match m m 1 0.7592 
20-May-2018_16:44:06 Exp 7326 20 male R 2 4 14 immoralOther immoralOther match m m 1 0.5054 
20-May-2018_16:44:08 Exp 7326 20 male R 2 4 15 moralSelf immoralOther mismatch n n 1 0.6235 
20-May-2018_16:44:10 Exp 7326 20 male R 2 4 16 immoralSelf moralSelf mismatch n m 0 0.6536 
20-May-2018_16:44:13 Exp 7326 20 male R 2 4 17 immoralOther immoralOther match m m 1 0.7339 
20-May-2018_16:44:15 Exp 7326 20 male R 2 4 18 moralOther moralOther match m m 1 0.8779 
20-May-2018_16:44:18 Exp 7326 20 male R 2 4 19 immoralSelf moralSelf mismatch n n 1 0.7120 
20-May-2018_16:44:20 Exp 7326 20 male R 2 4 20 immoralOther immoralOther match m m 1 0.6521 
20-May-2018_16:44:22 Exp 7326 20 male R 2 4 21 moralOther moralOther match m m 1 0.4843 
20-May-2018_16:44:24 Exp 7326 20 male R 2 4 22 moralOther moralSelf mismatch n n 1 0.7425 
20-May-2018_16:44:27 Exp 7326 20 male R 2 4 23 moralSelf moralSelf match m m 1 0.8445 
20-May-2018_16:44:29 Exp 7326 20 male R 2 4 24 moralSelf moralSelf match m m 1 0.5427 
20-May-2018_16:44:31 Exp 7326 20 male R 2 5 1 immoralOther moralSelf mismatch n n 1 0.5408 
20-May-2018_16:44:33 Exp 7326 20 male R 2 5 2 moralSelf moralSelf match m m 1 0.4909 
20-May-2018_16:44:36 Exp 7326 20 male R 2 5 3 immoralSelf moralOther mismatch n n 1 0.6670 
20-May-2018_16:44:38 Exp 7326 20 male R 2 5 4 moralSelf moralOther mismatch n m 0 0.4732 
20-May-2018_16:44:40 Exp 7326 20 male R 2 5 5 moralOther immoralOther mismatch n n 1 0.5733 
20-May-2018_16:44:42 Exp 7326 20 male R 2 5 6 immoralSelf immoralSelf match m n 0 0.5414 
20-May-2018_16:44:44 Exp 7326 20 male R 2 5 7 moralSelf moralSelf match m m 1 0.5715 
20-May-2018_16:44:46 Exp 7326 20 male R 2 5 8 moralOther moralOther match m m 1 0.5316 
20-May-2018_16:44:49 Exp 7326 20 male R 2 5 9 immoralOther immoralSelf mismatch n n 1 0.6758 
20-May-2018_16:44:51 Exp 7326 20 male R 2 5 10 immoralSelf moralSelf mismatch n n 1 0.9359 
20-May-2018_16:44:54 Exp 7326 20 male R 2 5 11 moralSelf immoralSelf mismatch n n 1 0.6880 
20-May-2018_16:44:56 Exp 7326 20 male R 2 5 12 immoralSelf moralOther mismatch n n 1 0.6882 
20-May-2018_16:44:58 Exp 7326 20 male R 2 5 13 immoralOther immoralOther match m m 1 0.7123 
20-May-2018_16:45:00 Exp 7326 20 male R 2 5 14 immoralOther immoralOther match m m 1 0.5804 
20-May-2018_16:45:03 Exp 7326 20 male R 2 5 15 moralOther moralOther match m m 1 0.5305 
20-May-2018_16:45:05 Exp 7326 20 male R 2 5 16 moralSelf moralSelf match m m 1 0.6827 
20-May-2018_16:45:07 Exp 7326 20 male R 2 5 17 immoralOther immoralOther match m m 1 0.8363 
20-May-2018_16:45:10 Exp 7326 20 male R 2 5 18 immoralSelf immoralSelf match m m 1 0.7690 
20-May-2018_16:45:12 Exp 7326 20 male R 2 5 19 moralOther moralSelf mismatch n NA -1 1.0260 
20-May-2018_16:45:15 Exp 7326 20 male R 2 5 20 moralOther moralOther match m m 1 0.4712 
20-May-2018_16:45:17 Exp 7326 20 male R 2 5 21 immoralOther immoralSelf mismatch n NA -1 1.0260 
20-May-2018_16:45:20 Exp 7326 20 male R 2 5 22 moralSelf immoralSelf mismatch n NA -1 1.0260 
20-May-2018_16:45:22 Exp 7326 20 male R 2 5 23 immoralSelf immoralSelf match m m 1 0.7836 
20-May-2018_16:45:24 Exp 7326 20 male R 2 5 24 moralOther immoralOther mismatch n n 1 0.6298 
20-May-2018_16:45:30 Exp 7326 20 male R 3 1 1 immoralSelf immoralOther mismatch n NA -1 1.0260 
20-May-2018_16:45:32 Exp 7326 20 male R 3 1 2 immoralSelf immoralSelf match m m 1 0.6103 
20-May-2018_16:45:35 Exp 7326 20 male R 3 1 3 moralSelf moralOther mismatch n n 1 0.7385 
20-May-2018_16:45:37 Exp 7326 20 male R 3 1 4 moralOther immoralOther mismatch n n 1 0.7765 
20-May-2018_16:45:40 Exp 7326 20 male R 3 1 5 immoralSelf immoralSelf match m m 1 0.7047 
20-May-2018_16:45:42 Exp 7326 20 male R 3 1 6 immoralSelf moralSelf mismatch n n 1 0.8228 
20-May-2018_16:45:44 Exp 7326 20 male R 3 1 7 moralOther moralSelf mismatch n n 1 0.7810 
20-May-2018_16:45:47 Exp 7326 20 male R 3 1 8 immoralSelf moralSelf mismatch n n 1 0.8431 
20-May-2018_16:45:49 Exp 7326 20 male R 3 1 9 moralSelf immoralOther mismatch n n 1 0.6933 
20-May-2018_16:45:52 Exp 7326 20 male R 3 1 10 moralSelf immoralSelf mismatch n n 1 0.7494 
20-May-2018_16:45:54 Exp 7326 20 male R 3 1 11 moralOther moralOther match m m 1 0.5695 
20-May-2018_16:45:56 Exp 7326 20 male R 3 1 12 immoralOther immoralOther match m m 1 0.7456 
20-May-2018_16:45:58 Exp 7326 20 male R 3 1 13 immoralOther immoralOther match m m 1 0.7277 
20-May-2018_16:46:01 Exp 7326 20 male R 3 1 14 immoralOther moralSelf mismatch n n 1 0.8079 
20-May-2018_16:46:04 Exp 7326 20 male R 3 1 15 moralOther moralSelf mismatch n NA -1 1.0260 
20-May-2018_16:46:06 Exp 7326 20 male R 3 1 16 moralOther moralOther match m m 1 0.5902 
20-May-2018_16:46:08 Exp 7326 20 male R 3 1 17 moralOther moralOther match m NA -1 1.0260 
20-May-2018_16:46:11 Exp 7326 20 male R 3 1 18 moralSelf moralSelf match m m 1 0.6325 
20-May-2018_16:46:13 Exp 7326 20 male R 3 1 19 moralSelf moralSelf match m m 1 0.5006 
20-May-2018_16:46:15 Exp 7326 20 male R 3 1 20 moralSelf moralSelf match m m 1 0.4350 
20-May-2018_16:46:17 Exp 7326 20 male R 3 1 21 immoralSelf immoralSelf match m m 1 0.8307 
20-May-2018_16:46:20 Exp 7326 20 male R 3 1 22 immoralOther immoralOther match m m 1 0.7630 
20-May-2018_16:46:22 Exp 7326 20 male R 3 1 23 immoralOther moralOther mismatch n n 1 0.7811 
20-May-2018_16:46:24 Exp 7326 20 male R 3 1 24 immoralOther moralOther mismatch n n 1 0.6352 
20-May-2018_16:46:27 Exp 7326 20 male R 3 2 1 moralOther moralOther match m n 0 0.6314 
20-May-2018_16:46:29 Exp 7326 20 male R 3 2 2 moralSelf moralOther mismatch n m 0 0.7475 
20-May-2018_16:46:31 Exp 7326 20 male R 3 2 3 immoralSelf immoralSelf match m m 1 0.6956 
20-May-2018_16:46:34 Exp 7326 20 male R 3 2 4 immoralOther moralSelf mismatch n n 1 0.6477 
20-May-2018_16:46:36 Exp 7326 20 male R 3 2 5 moralSelf moralSelf match m m 1 0.7679 
20-May-2018_16:46:38 Exp 7326 20 male R 3 2 6 immoralSelf immoralSelf match m m 1 0.7921 
20-May-2018_16:46:41 Exp 7326 20 male R 3 2 7 moralSelf immoralOther mismatch n NA -1 1.0260 
20-May-2018_16:46:44 Exp 7326 20 male R 3 2 8 immoralSelf immoralSelf match m n 0 0.7784 
20-May-2018_16:46:46 Exp 7326 20 male R 3 2 9 immoralSelf moralSelf mismatch n n 1 1.0004 
20-May-2018_16:46:48 Exp 7326 20 male R 3 2 10 moralSelf immoralSelf mismatch n n 1 0.6026 
20-May-2018_16:46:50 Exp 7326 20 male R 3 2 11 moralOther moralOther match m m 1 0.4847 
20-May-2018_16:46:53 Exp 7326 20 male R 3 2 12 immoralOther immoralOther match m m 1 0.7989 
20-May-2018_16:46:55 Exp 7326 20 male R 3 2 13 moralOther immoralSelf mismatch n n 1 0.7849 
20-May-2018_16:46:58 Exp 7326 20 male R 3 2 14 immoralOther moralSelf mismatch n n 1 0.6791 
20-May-2018_16:47:00 Exp 7326 20 male R 3 2 15 immoralOther immoralOther match m m 1 0.7613 
20-May-2018_16:47:02 Exp 7326 20 male R 3 2 16 moralSelf moralSelf match m n 0 0.7954 
20-May-2018_16:47:05 Exp 7326 20 male R 3 2 17 immoralSelf moralOther mismatch n n 1 0.6475 
20-May-2018_16:47:07 Exp 7326 20 male R 3 2 18 immoralOther immoralOther match m m 1 0.6157 
20-May-2018_16:47:09 Exp 7326 20 male R 3 2 19 moralOther moralOther match m m 1 0.6799 
20-May-2018_16:47:12 Exp 7326 20 male R 3 2 20 immoralSelf moralOther mismatch n n 1 0.7060 
20-May-2018_16:47:14 Exp 7326 20 male R 3 2 21 immoralOther immoralSelf mismatch n n 1 0.5280 
20-May-2018_16:47:16 Exp 7326 20 male R 3 2 22 moralSelf moralSelf match m m 1 0.6002 
20-May-2018_16:47:19 Exp 7326 20 male R 3 2 23 moralOther immoralSelf mismatch n n 1 0.9303 
20-May-2018_16:47:21 Exp 7326 20 male R 3 2 24 moralOther immoralSelf mismatch n n 1 0.6665 
20-May-2018_16:47:23 Exp 7326 20 male R 3 3 1 moralSelf immoralOther mismatch n m 0 0.7606 
20-May-2018_16:47:25 Exp 7326 20 male R 3 3 2 moralSelf immoralOther mismatch n n 1 0.5868 
20-May-2018_16:47:28 Exp 7326 20 male R 3 3 3 immoralSelf moralSelf mismatch n n 1 0.9448 
20-May-2018_16:47:31 Exp 7326 20 male R 3 3 4 moralSelf immoralOther mismatch n NA -1 1.0260 
20-May-2018_16:47:33 Exp 7326 20 male R 3 3 5 immoralOther immoralOther match m NA -1 1.0260 
20-May-2018_16:47:35 Exp 7326 20 male R 3 3 6 moralOther moralOther match m m 1 0.4838 
20-May-2018_16:47:38 Exp 7326 20 male R 3 3 7 immoralOther immoralOther match m n 0 0.5494 
20-May-2018_16:47:40 Exp 7326 20 male R 3 3 8 immoralSelf immoralSelf match m n 0 0.6815 
20-May-2018_16:47:42 Exp 7326 20 male R 3 3 9 moralOther moralSelf mismatch n m 0 0.6277 
20-May-2018_16:47:45 Exp 7326 20 male R 3 3 10 immoralSelf immoralSelf match m n 0 0.7438 
20-May-2018_16:47:47 Exp 7326 20 male R 3 3 11 moralOther immoralSelf mismatch n NA -1 1.0260 
20-May-2018_16:47:49 Exp 7326 20 male R 3 3 12 immoralOther moralSelf mismatch n n 1 0.6521 
20-May-2018_16:47:52 Exp 7326 20 male R 3 3 13 immoralOther moralSelf mismatch n n 1 0.6122 
20-May-2018_16:47:54 Exp 7326 20 male R 3 3 14 moralSelf moralSelf match m m 1 0.7644 
20-May-2018_16:47:56 Exp 7326 20 male R 3 3 15 moralOther moralOther match m m 1 0.5585 
20-May-2018_16:47:59 Exp 7326 20 male R 3 3 16 moralSelf moralSelf match m m 1 0.6327 
20-May-2018_16:48:01 Exp 7326 20 male R 3 3 17 immoralSelf immoralOther mismatch n n 1 0.6527 
20-May-2018_16:48:03 Exp 7326 20 male R 3 3 18 moralOther moralSelf mismatch n m 0 0.5255 
20-May-2018_16:48:05 Exp 7326 20 male R 3 3 19 moralSelf moralSelf match m m 1 0.5670 
20-May-2018_16:48:08 Exp 7326 20 male R 3 3 20 immoralOther moralOther mismatch n n 1 0.6971 
20-May-2018_16:48:10 Exp 7326 20 male R 3 3 21 immoralOther immoralOther match m m 1 0.8472 
20-May-2018_16:48:13 Exp 7326 20 male R 3 3 22 immoralSelf immoralOther mismatch n n 1 0.9274 
20-May-2018_16:48:15 Exp 7326 20 male R 3 3 23 moralOther moralOther match m m 1 0.5195 
20-May-2018_16:48:17 Exp 7326 20 male R 3 3 24 immoralSelf immoralSelf match m m 1 0.6577 
20-May-2018_16:49:01 Exp 7326 20 male R 3 4 1 immoralSelf moralOther mismatch n n 1 0.6982 
20-May-2018_16:49:04 Exp 7326 20 male R 3 4 2 moralOther moralOther match m m 1 0.5604 
20-May-2018_16:49:06 Exp 7326 20 male R 3 4 3 moralSelf immoralSelf mismatch n n 1 0.7464 
20-May-2018_16:49:08 Exp 7326 20 male R 3 4 4 immoralOther immoralOther match m m 1 0.6405 
20-May-2018_16:49:10 Exp 7326 20 male R 3 4 5 immoralOther immoralOther match m m 1 0.6747 
20-May-2018_16:49:13 Exp 7326 20 male R 3 4 6 moralSelf moralSelf match m m 1 0.5429 
20-May-2018_16:49:15 Exp 7326 20 male R 3 4 7 immoralSelf immoralOther mismatch n n 1 0.9249 
20-May-2018_16:49:18 Exp 7326 20 male R 3 4 8 moralOther moralSelf mismatch n n 1 0.8311 
20-May-2018_16:49:20 Exp 7326 20 male R 3 4 9 immoralOther moralOther mismatch n m 0 0.4912 
20-May-2018_16:49:22 Exp 7326 20 male R 3 4 10 moralOther moralOther match m m 1 0.5234 
20-May-2018_16:49:24 Exp 7326 20 male R 3 4 11 moralOther moralOther match m n 0 0.6535 
20-May-2018_16:49:26 Exp 7326 20 male R 3 4 12 immoralSelf moralOther mismatch n n 1 0.5417 
20-May-2018_16:49:29 Exp 7326 20 male R 3 4 13 moralOther immoralSelf mismatch n n 1 0.6917 
20-May-2018_16:49:31 Exp 7326 20 male R 3 4 14 immoralOther immoralOther match m m 1 0.8039 
20-May-2018_16:49:34 Exp 7326 20 male R 3 4 15 moralOther moralSelf mismatch n n 1 0.8140 
20-May-2018_16:49:36 Exp 7326 20 male R 3 4 16 moralSelf moralOther mismatch n m 0 0.6782 
20-May-2018_16:49:38 Exp 7326 20 male R 3 4 17 immoralSelf immoralSelf match m m 1 0.8242 
20-May-2018_16:49:41 Exp 7326 20 male R 3 4 18 moralSelf moralSelf match m m 1 0.7024 
20-May-2018_16:49:43 Exp 7326 20 male R 3 4 19 immoralSelf immoralSelf match m m 1 0.6445 
20-May-2018_16:49:45 Exp 7326 20 male R 3 4 20 moralSelf moralOther mismatch n m 0 0.5666 
20-May-2018_16:49:48 Exp 7326 20 male R 3 4 21 immoralOther immoralSelf mismatch n NA -1 1.0260 
20-May-2018_16:49:50 Exp 7326 20 male R 3 4 22 moralSelf moralSelf match m m 1 0.5829 
20-May-2018_16:49:53 Exp 7326 20 male R 3 4 23 immoralOther immoralSelf mismatch n NA -1 1.0260 
20-May-2018_16:49:55 Exp 7326 20 male R 3 4 24 immoralSelf immoralSelf match m m 1 0.7476 
20-May-2018_16:49:57 Exp 7326 20 male R 3 5 1 immoralSelf immoralSelf match m m 1 0.6554 
20-May-2018_16:49:59 Exp 7326 20 male R 3 5 2 immoralSelf immoralSelf match m m 1 0.4795 
20-May-2018_16:50:02 Exp 7326 20 male R 3 5 3 immoralOther moralSelf mismatch n n 1 0.7376 
20-May-2018_16:50:04 Exp 7326 20 male R 3 5 4 moralOther immoralOther mismatch n n 1 1.0158 
20-May-2018_16:50:07 Exp 7326 20 male R 3 5 5 immoralSelf moralOther mismatch n n 1 0.7679 
20-May-2018_16:50:09 Exp 7326 20 male R 3 5 6 immoralOther immoralOther match m m 1 0.6881 
20-May-2018_16:50:11 Exp 7326 20 male R 3 5 7 moralSelf moralSelf match m m 1 0.5690 
20-May-2018_16:50:14 Exp 7326 20 male R 3 5 8 moralOther immoralOther mismatch n n 1 0.6243 
20-May-2018_16:50:16 Exp 7326 20 male R 3 5 9 immoralOther moralOther mismatch n n 1 0.7584 
20-May-2018_16:50:18 Exp 7326 20 male R 3 5 10 moralOther moralOther match m m 1 0.5206 
20-May-2018_16:50:20 Exp 7326 20 male R 3 5 11 immoralOther moralOther mismatch n m 0 0.5467 
20-May-2018_16:50:23 Exp 7326 20 male R 3 5 12 immoralOther immoralOther match m m 1 0.7048 
20-May-2018_16:50:25 Exp 7326 20 male R 3 5 13 immoralOther immoralOther match m m 1 0.5270 
20-May-2018_16:50:27 Exp 7326 20 male R 3 5 14 immoralSelf immoralSelf match m m 1 0.7031 
20-May-2018_16:50:30 Exp 7326 20 male R 3 5 15 moralSelf immoralOther mismatch n n 1 0.7972 
20-May-2018_16:50:32 Exp 7326 20 male R 3 5 16 immoralSelf moralOther mismatch n n 1 0.7355 
20-May-2018_16:50:34 Exp 7326 20 male R 3 5 17 moralSelf moralOther mismatch n m 0 0.5835 
20-May-2018_16:50:36 Exp 7326 20 male R 3 5 18 moralOther immoralSelf mismatch n n 1 0.7015 
20-May-2018_16:50:39 Exp 7326 20 male R 3 5 19 moralOther moralOther match m m 1 1.0117 
20-May-2018_16:50:41 Exp 7326 20 male R 3 5 20 moralOther moralOther match m m 1 0.6118 
20-May-2018_16:50:44 Exp 7326 20 male R 3 5 21 moralSelf moralSelf match m m 1 0.6440 
20-May-2018_16:50:46 Exp 7326 20 male R 3 5 22 moralSelf moralOther mismatch n n 1 0.8701 
20-May-2018_16:50:49 Exp 7326 20 male R 3 5 23 immoralSelf moralSelf mismatch n n 1 0.9703 
20-May-2018_16:50:51 Exp 7326 20 male R 3 5 24 moralSelf moralSelf match m m 1 0.6984 
Date Prac Sub Age Sex Hand Block Bin Trial Shape Label Match CorrResp Resp ACC RT
20-May-2018_16:57:27 Exp 7326 20 male R 1 1 1 moralSelf moralSelf match m m 1 0.5490 
20-May-2018_16:57:30 Exp 7326 20 male R 1 1 2 immoralSelf immoralSelf match m m 1 0.6892 
20-May-2018_16:57:32 Exp 7326 20 male R 1 1 3 moralSelf moralSelf match m m 1 0.5533 
20-May-2018_16:57:34 Exp 7326 20 male R 1 1 4 immoralOther moralSelf mismatch n n 1 0.7734 
20-May-2018_16:57:37 Exp 7326 20 male R 1 1 5 immoralSelf moralOther mismatch n m 0 0.6935 
20-May-2018_16:57:39 Exp 7326 20 male R 1 1 6 moralSelf moralSelf match m m 1 0.5420 
20-May-2018_16:57:41 Exp 7326 20 male R 1 1 7 moralOther moralOther match m m 1 0.6118 
20-May-2018_16:57:43 Exp 7326 20 male R 1 1 8 immoralSelf immoralSelf match m m 1 0.6361 
20-May-2018_16:57:46 Exp 7326 20 male R 1 1 9 moralSelf immoralOther mismatch n n 1 0.8082 
20-May-2018_16:57:48 Exp 7326 20 male R 1 1 10 immoralOther moralSelf mismatch n n 1 0.7042 
20-May-2018_16:57:50 Exp 7326 20 male R 1 1 11 immoralOther immoralOther match m m 1 0.7344 
20-May-2018_16:57:53 Exp 7326 20 male R 1 1 12 moralOther moralSelf mismatch n n 1 0.8626 
20-May-2018_16:57:55 Exp 7326 20 male R 1 1 13 moralOther moralSelf mismatch n n 1 0.7167 
20-May-2018_16:57:58 Exp 7326 20 male R 1 1 14 immoralSelf moralOther mismatch n n 1 0.9448 
20-May-2018_16:58:00 Exp 7326 20 male R 1 1 15 moralSelf immoralOther mismatch n n 1 0.9269 
20-May-2018_16:58:02 Exp 7326 20 male R 1 1 16 moralOther moralOther match m m 1 0.5771 
20-May-2018_16:58:05 Exp 7326 20 male R 1 1 17 moralOther moralOther match m m 1 0.6391 
20-May-2018_16:58:07 Exp 7326 20 male R 1 1 18 moralSelf moralOther mismatch n n 1 0.6254 
20-May-2018_16:58:09 Exp 7326 20 male R 1 1 19 immoralOther immoralOther match m m 1 0.7274 
20-May-2018_16:58:12 Exp 7326 20 male R 1 1 20 immoralOther immoralOther match m m 1 0.7435 
20-May-2018_16:58:14 Exp 7326 20 male R 1 1 21 immoralOther moralOther mismatch n n 1 0.6537 
20-May-2018_16:58:16 Exp 7326 20 male R 1 1 22 immoralSelf immoralSelf match m m 1 0.6379 
20-May-2018_16:58:19 Exp 7326 20 male R 1 1 23 moralOther moralSelf mismatch n m 0 0.7360 
20-May-2018_16:58:21 Exp 7326 20 male R 1 1 24 immoralSelf moralOther mismatch n n 1 0.7841 
20-May-2018_16:58:23 Exp 7326 20 male R 1 2 1 immoralOther immoralOther match m m 1 0.6062 
20-May-2018_16:58:26 Exp 7326 20 male R 1 2 2 moralOther moralOther match m m 1 0.8486 
20-May-2018_16:58:28 Exp 7326 20 male R 1 2 3 moralOther immoralSelf mismatch n n 1 0.7526 
20-May-2018_16:58:31 Exp 7326 20 male R 1 2 4 moralOther immoralSelf mismatch n n 1 0.8367 
20-May-2018_16:58:33 Exp 7326 20 male R 1 2 5 immoralOther moralSelf mismatch n n 1 0.6248 
20-May-2018_16:58:35 Exp 7326 20 male R 1 2 6 immoralSelf immoralOther mismatch n n 1 0.8389 
20-May-2018_16:58:38 Exp 7326 20 male R 1 2 7 moralSelf moralSelf match m m 1 0.6571 
20-May-2018_16:58:40 Exp 7326 20 male R 1 2 8 immoralOther immoralSelf mismatch n n 1 1.0252 
20-May-2018_16:58:43 Exp 7326 20 male R 1 2 9 immoralOther immoralOther match m m 1 0.6473 
20-May-2018_16:58:45 Exp 7326 20 male R 1 2 10 moralSelf immoralOther mismatch n n 1 0.5914 
20-May-2018_16:58:47 Exp 7326 20 male R 1 2 11 immoralSelf immoralSelf match m m 1 0.5636 
20-May-2018_16:58:50 Exp 7326 20 male R 1 2 12 moralSelf moralSelf match m NA -1 1.0260 
20-May-2018_16:58:52 Exp 7326 20 male R 1 2 13 immoralSelf immoralSelf match m m 1 1.0198 
20-May-2018_16:58:55 Exp 7326 20 male R 1 2 14 moralSelf immoralSelf mismatch n m 0 0.7940 
20-May-2018_16:58:57 Exp 7326 20 male R 1 2 15 moralOther moralOther match m m 1 0.5502 
20-May-2018_16:58:59 Exp 7326 20 male R 1 2 16 immoralSelf immoralSelf match m m 1 0.5703 
20-May-2018_16:59:01 Exp 7326 20 male R 1 2 17 immoralOther immoralOther match m m 1 0.7543 
20-May-2018_16:59:04 Exp 7326 20 male R 1 2 18 moralOther moralSelf mismatch n n 1 0.6465 
20-May-2018_16:59:06 Exp 7326 20 male R 1 2 19 immoralSelf immoralOther mismatch n m 0 0.7927 
20-May-2018_16:59:08 Exp 7326 20 male R 1 2 20 moralSelf moralSelf match m m 1 0.5888 
20-May-2018_16:59:11 Exp 7326 20 male R 1 2 21 immoralOther moralSelf mismatch n n 1 0.7449 
20-May-2018_16:59:13 Exp 7326 20 male R 1 2 22 moralSelf immoralOther mismatch n n 1 0.7831 
20-May-2018_16:59:15 Exp 7326 20 male R 1 2 23 moralOther moralOther match m m 1 0.5812 
20-May-2018_16:59:18 Exp 7326 20 male R 1 2 24 immoralSelf moralOther mismatch n n 1 0.6513 
Date Prac Sub Age Sex Hand Block Bin Trial Shape Label Match CorrResp Resp ACC RT
20-May-2018_17:05:56 Exp 7326 20 male R 1 1 1 immoralOther immoralOther match m m 1 0.6521 
20-May-2018_17:05:59 Exp 7326 20 male R 1 1 2 moralOther immoralOther mismatch n n 1 0.8601 
20-May-2018_17:06:01 Exp 7326 20 male R 1 1 3 immoralSelf immoralSelf match m m 1 0.6343 
20-May-2018_17:06:04 Exp 7326 20 male R 1 1 4 immoralOther immoralSelf mismatch n n 1 0.7984 
20-May-2018_17:06:06 Exp 7326 20 male R 1 1 5 immoralSelf moralOther mismatch n n 1 0.8006 
20-May-2018_17:06:08 Exp 7326 20 male R 1 1 6 immoralOther immoralOther match m m 1 0.6187 
20-May-2018_17:06:11 Exp 7326 20 male R 1 1 7 moralSelf moralSelf match m m 1 0.7526 
20-May-2018_17:06:13 Exp 7326 20 male R 1 1 8 moralOther immoralOther mismatch n m 0 0.6050 
20-May-2018_17:06:15 Exp 7326 20 male R 1 1 9 moralOther immoralOther mismatch n n 1 0.6552 
20-May-2018_17:06:17 Exp 7326 20 male R 1 1 10 moralSelf moralSelf match m m 1 0.4953 
20-May-2018_17:06:19 Exp 7326 20 male R 1 1 11 immoralOther immoralOther match m m 1 0.6314 
20-May-2018_17:06:22 Exp 7326 20 male R 1 1 12 moralOther moralOther match m m 1 0.6835 
20-May-2018_17:06:24 Exp 7326 20 male R 1 1 13 moralOther moralOther match m m 1 0.7097 
20-May-2018_17:06:26 Exp 7326 20 male R 1 1 14 immoralSelf immoralSelf match m m 1 0.6658 
20-May-2018_17:06:29 Exp 7326 20 male R 1 1 15 moralOther moralOther match m m 1 0.5119 
20-May-2018_17:06:31 Exp 7326 20 male R 1 1 16 immoralOther immoralSelf mismatch n n 1 0.7721 
20-May-2018_17:06:33 Exp 7326 20 male R 1 1 17 immoralSelf immoralSelf match m m 1 0.5641 
20-May-2018_17:06:35 Exp 7326 20 male R 1 1 18 immoralOther moralSelf mismatch n n 1 0.6864 
20-May-2018_17:06:38 Exp 7326 20 male R 1 1 19 moralSelf immoralOther mismatch n n 1 0.6404 
20-May-2018_17:06:40 Exp 7326 20 male R 1 1 20 moralSelf moralSelf match m m 1 0.6027 
20-May-2018_17:06:42 Exp 7326 20 male R 1 1 21 immoralSelf immoralOther mismatch n n 1 0.6607 
20-May-2018_17:06:45 Exp 7326 20 male R 1 1 22 immoralSelf moralSelf mismatch n m 0 0.6271 
20-May-2018_17:06:47 Exp 7326 20 male R 1 1 23 moralSelf immoralSelf mismatch n n 1 0.6091 
20-May-2018_17:06:49 Exp 7326 20 male R 1 1 24 moralSelf immoralOther mismatch n n 1 0.6090 
20-May-2018_17:06:51 Exp 7326 20 male R 1 2 1 moralOther moralOther match m m 1 0.5213 
20-May-2018_17:06:53 Exp 7326 20 male R 1 2 2 moralOther immoralOther mismatch n n 1 0.5874 
20-May-2018_17:06:56 Exp 7326 20 male R 1 2 3 immoralOther immoralOther match m m 1 0.5674 
20-May-2018_17:06:58 Exp 7326 20 male R 1 2 4 moralSelf moralSelf match m m 1 0.5916 
20-May-2018_17:07:00 Exp 7326 20 male R 1 2 5 immoralOther immoralOther match m m 1 0.6837 
20-May-2018_17:07:02 Exp 7326 20 male R 1 2 6 moralSelf moralSelf match m m 1 0.7738 
20-May-2018_17:07:05 Exp 7326 20 male R 1 2 7 immoralOther moralSelf mismatch n n 1 0.6061 
20-May-2018_17:07:07 Exp 7326 20 male R 1 2 8 immoralSelf immoralSelf match m m 1 0.6962 
20-May-2018_17:07:09 Exp 7326 20 male R 1 2 9 immoralSelf immoralSelf match m m 1 0.7122 
20-May-2018_17:07:12 Exp 7326 20 male R 1 2 10 moralSelf immoralSelf mismatch n n 1 0.7244 
20-May-2018_17:07:14 Exp 7326 20 male R 1 2 11 immoralOther immoralOther match m m 1 0.6386 
20-May-2018_17:07:16 Exp 7326 20 male R 1 2 12 moralOther moralOther match m m 1 0.6246 
20-May-2018_17:07:19 Exp 7326 20 male R 1 2 13 moralOther moralSelf mismatch n NA -1 1.0260 
20-May-2018_17:07:21 Exp 7326 20 male R 1 2 14 immoralSelf moralSelf mismatch n m 0 0.5329 
20-May-2018_17:07:23 Exp 7326 20 male R 1 2 15 immoralOther moralOther mismatch n n 1 0.6290 
20-May-2018_17:07:26 Exp 7326 20 male R 1 2 16 immoralSelf immoralSelf match m m 1 0.5851 
20-May-2018_17:07:28 Exp 7326 20 male R 1 2 17 moralSelf moralOther mismatch n m 0 0.5913 
20-May-2018_17:07:30 Exp 7326 20 male R 1 2 18 immoralOther immoralSelf mismatch n n 1 0.6434 
20-May-2018_17:07:32 Exp 7326 20 male R 1 2 19 moralOther moralOther match m m 1 0.5418 
20-May-2018_17:07:35 Exp 7326 20 male R 1 2 20 immoralSelf moralSelf mismatch n n 1 0.8197 
20-May-2018_17:07:37 Exp 7326 20 male R 1 2 21 immoralSelf moralOther mismatch n n 1 0.7377 
20-May-2018_17:07:39 Exp 7326 20 male R 1 2 22 moralOther moralSelf mismatch n n 1 0.7119 
20-May-2018_17:07:42 Exp 7326 20 male R 1 2 23 moralSelf moralSelf match m m 1 0.6121 
20-May-2018_17:07:44 Exp 7326 20 male R 1 2 24 moralSelf immoralSelf mismatch n n 1 0.6359 
Date Prac Sub Age Sex Hand Block Bin Trial Shape Label Match CorrResp Resp ACC RT
20-May-2018_17:13:23 Exp 7326 20 male R 1 1 1 moralSelf immoralOther mismatch n m 0 0.5675 
20-May-2018_17:13:25 Exp 7326 20 male R 1 1 2 immoralOther moralSelf mismatch n m 0 0.8156 
20-May-2018_17:13:28 Exp 7326 20 male R 1 1 3 moralOther immoralOther mismatch n NA -1 1.0260 
20-May-2018_17:13:30 Exp 7326 20 male R 1 1 4 immoralOther moralOther mismatch n n 1 0.6618 
20-May-2018_17:13:33 Exp 7326 20 male R 1 1 5 moralSelf immoralOther mismatch n n 1 0.7880 
20-May-2018_17:13:35 Exp 7326 20 male R 1 1 6 immoralSelf moralOther mismatch n n 1 0.7362 
20-May-2018_17:13:37 Exp 7326 20 male R 1 1 7 immoralSelf immoralOther mismatch n n 1 0.5763 
20-May-2018_17:13:39 Exp 7326 20 male R 1 1 8 immoralOther immoralOther match m n 0 0.6086 
20-May-2018_17:13:42 Exp 7326 20 male R 1 1 9 immoralOther moralSelf mismatch n n 1 0.6323 
20-May-2018_17:13:44 Exp 7326 20 male R 1 1 10 moralSelf moralSelf match m m 1 0.6928 
20-May-2018_17:13:46 Exp 7326 20 male R 1 1 11 immoralOther immoralOther match m m 1 0.6688 
20-May-2018_17:13:49 Exp 7326 20 male R 1 1 12 moralSelf moralSelf match m m 1 0.5771 
20-May-2018_17:13:51 Exp 7326 20 male R 1 1 13 immoralSelf immoralOther mismatch n n 1 0.6491 
20-May-2018_17:13:53 Exp 7326 20 male R 1 1 14 immoralSelf immoralSelf match m m 1 0.7852 
20-May-2018_17:13:55 Exp 7326 20 male R 1 1 15 moralOther moralOther match m m 1 0.5034 
20-May-2018_17:13:58 Exp 7326 20 male R 1 1 16 moralOther immoralSelf mismatch n n 1 0.6056 
20-May-2018_17:14:00 Exp 7326 20 male R 1 1 17 moralOther moralOther match m m 1 0.7596 
20-May-2018_17:14:02 Exp 7326 20 male R 1 1 18 moralOther moralOther match m m 1 0.6418 
20-May-2018_17:14:04 Exp 7326 20 male R 1 1 19 immoralSelf immoralSelf match m m 1 0.6119 
20-May-2018_17:14:07 Exp 7326 20 male R 1 1 20 moralOther moralSelf mismatch n m 0 0.8360 
20-May-2018_17:14:09 Exp 7326 20 male R 1 1 21 immoralOther immoralOther match m m 1 0.6322 
20-May-2018_17:14:11 Exp 7326 20 male R 1 1 22 immoralSelf immoralSelf match m m 1 0.6124 
20-May-2018_17:14:14 Exp 7326 20 male R 1 1 23 moralSelf immoralSelf mismatch n n 1 0.6525 
20-May-2018_17:14:16 Exp 7326 20 male R 1 1 24 moralSelf moralSelf match m n 0 0.6364 
20-May-2018_17:14:18 Exp 7326 20 male R 1 2 1 immoralOther immoralSelf mismatch n n 1 0.7207 
20-May-2018_17:14:21 Exp 7326 20 male R 1 2 2 moralSelf moralSelf match m m 1 0.5708 
20-May-2018_17:14:23 Exp 7326 20 male R 1 2 3 moralOther moralOther match m m 1 0.5229 
20-May-2018_17:14:25 Exp 7326 20 male R 1 2 4 moralOther moralSelf mismatch n m 0 0.7971 
20-May-2018_17:14:27 Exp 7326 20 male R 1 2 5 immoralOther immoralOther match m m 1 0.6012 
20-May-2018_17:14:30 Exp 7326 20 male R 1 2 6 immoralOther immoralSelf mismatch n n 1 0.6434 
20-May-2018_17:14:32 Exp 7326 20 male R 1 2 7 moralOther immoralOther mismatch n n 1 0.7494 
20-May-2018_17:14:35 Exp 7326 20 male R 1 2 8 immoralOther immoralOther match m m 1 0.9296 
20-May-2018_17:14:37 Exp 7326 20 male R 1 2 9 moralOther moralOther match m m 1 0.8977 
20-May-2018_17:14:39 Exp 7326 20 male R 1 2 10 immoralSelf immoralSelf match m m 1 0.7038 
20-May-2018_17:14:42 Exp 7326 20 male R 1 2 11 moralSelf immoralOther mismatch n n 1 0.6620 
20-May-2018_17:14:44 Exp 7326 20 male R 1 2 12 immoralOther immoralOther match m m 1 0.6761 
20-May-2018_17:14:46 Exp 7326 20 male R 1 2 13 moralSelf moralOther mismatch n n 1 0.7843 
20-May-2018_17:14:49 Exp 7326 20 male R 1 2 14 moralSelf immoralOther mismatch n n 1 0.7904 
20-May-2018_17:14:51 Exp 7326 20 male R 1 2 15 moralSelf moralSelf match m m 1 0.5785 
20-May-2018_17:14:53 Exp 7326 20 male R 1 2 16 immoralOther moralSelf mismatch n n 1 0.6647 
20-May-2018_17:14:56 Exp 7326 20 male R 1 2 17 immoralSelf moralOther mismatch n n 1 0.7508 
20-May-2018_17:14:58 Exp 7326 20 male R 1 2 18 immoralSelf moralSelf mismatch n n 1 0.7869 
20-May-2018_17:15:01 Exp 7326 20 male R 1 2 19 immoralSelf immoralSelf match m m 1 0.8091 
20-May-2018_17:15:03 Exp 7326 20 male R 1 2 20 immoralSelf immoralSelf match m m 1 0.5533 
20-May-2018_17:15:05 Exp 7326 20 male R 1 2 21 moralOther moralSelf mismatch n n 1 0.7654 
20-May-2018_17:15:08 Exp 7326 20 male R 1 2 22 immoralSelf moralOther mismatch n n 1 0.8055 
20-May-2018_17:15:10 Exp 7326 20 male R 1 2 23 moralOther moralOther match m m 1 0.6556 
20-May-2018_17:15:12 Exp 7326 20 male R 1 2 24 moralSelf moralSelf match m m 1 0.8318 
Date Prac Sub Age Sex Hand Block Bin Trial Shape Label Match CorrResp Resp ACC RT
20-May-2018_17:27:09 Exp 7326 20 male R 1 1 1 moralOther moralSelf mismatch n m 0 0.5507 
20-May-2018_17:27:12 Exp 7326 20 male R 1 1 2 immoralSelf immoralSelf match m m 1 0.7308 
20-May-2018_17:27:14 Exp 7326 20 male R 1 1 3 moralOther moralOther match m m 1 0.4830 
20-May-2018_17:27:16 Exp 7326 20 male R 1 1 4 immoralOther moralOther mismatch n n 1 0.6051 
20-May-2018_17:27:19 Exp 7326 20 male R 1 1 5 immoralOther immoralOther match m m 1 0.7271 
20-May-2018_17:27:21 Exp 7326 20 male R 1 1 6 moralOther moralOther match m m 1 0.5033 
20-May-2018_17:27:23 Exp 7326 20 male R 1 1 7 moralSelf moralSelf match m m 1 0.5094 
20-May-2018_17:27:25 Exp 7326 20 male R 1 1 8 moralSelf moralSelf match m m 1 0.4895 
20-May-2018_17:27:27 Exp 7326 20 male R 1 1 9 moralSelf immoralSelf mismatch n n 1 0.5697 
20-May-2018_17:27:29 Exp 7326 20 male R 1 1 10 moralSelf immoralSelf mismatch n n 1 0.6898 
20-May-2018_17:27:32 Exp 7326 20 male R 1 1 11 moralOther moralOther match m m 1 0.5380 
20-May-2018_17:27:34 Exp 7326 20 male R 1 1 12 immoralOther immoralOther match m m 1 0.6321 
20-May-2018_17:27:36 Exp 7326 20 male R 1 1 13 moralSelf moralOther mismatch n n 1 0.8361 
20-May-2018_17:27:39 Exp 7326 20 male R 1 1 14 immoralSelf immoralSelf match m m 1 0.6562 
20-May-2018_17:27:41 Exp 7326 20 male R 1 1 15 moralOther immoralSelf mismatch n n 1 0.6245 
20-May-2018_17:27:43 Exp 7326 20 male R 1 1 16 immoralOther moralSelf mismatch n n 1 0.7585 
20-May-2018_17:27:46 Exp 7326 20 male R 1 1 17 immoralSelf moralSelf mismatch n n 1 0.8167 
20-May-2018_17:27:48 Exp 7326 20 male R 1 1 18 immoralSelf immoralSelf match m m 1 0.7289 
20-May-2018_17:27:50 Exp 7326 20 male R 1 1 19 immoralSelf moralOther mismatch n n 1 0.6410 
20-May-2018_17:27:53 Exp 7326 20 male R 1 1 20 moralSelf moralSelf match m n 0 0.6831 
20-May-2018_17:27:55 Exp 7326 20 male R 1 1 21 immoralOther immoralOther match m m 1 0.7252 
20-May-2018_17:27:57 Exp 7326 20 male R 1 1 22 moralOther immoralOther mismatch n n 1 0.6553 
20-May-2018_17:28:00 Exp 7326 20 male R 1 1 23 immoralOther moralSelf mismatch n n 1 0.7355 
20-May-2018_17:28:02 Exp 7326 20 male R 1 1 24 immoralSelf immoralOther mismatch n n 1 0.7916 
20-May-2018_17:28:05 Exp 7326 20 male R 1 2 1 moralOther moralSelf mismatch n n 1 0.9558 
20-May-2018_17:28:07 Exp 7326 20 male R 1 2 2 moralSelf moralOther mismatch n n 1 0.9840 
20-May-2018_17:28:10 Exp 7326 20 male R 1 2 3 moralOther moralSelf mismatch n n 1 0.7580 
20-May-2018_17:28:12 Exp 7326 20 male R 1 2 4 immoralOther moralOther mismatch n n 1 0.8081 
20-May-2018_17:28:14 Exp 7326 20 male R 1 2 5 moralSelf moralSelf match m m 1 0.6963 
20-May-2018_17:28:17 Exp 7326 20 male R 1 2 6 immoralSelf immoralOther mismatch n n 1 0.7124 
20-May-2018_17:28:19 Exp 7326 20 male R 1 2 7 immoralSelf immoralSelf match m m 1 0.6286 
20-May-2018_17:28:21 Exp 7326 20 male R 1 2 8 moralOther moralOther match m m 1 0.5767 
20-May-2018_17:28:23 Exp 7326 20 male R 1 2 9 immoralOther immoralOther match m n 0 0.6568 
20-May-2018_17:28:26 Exp 7326 20 male R 1 2 10 immoralOther immoralOther match m m 1 0.7210 
20-May-2018_17:28:28 Exp 7326 20 male R 1 2 11 immoralOther moralOther mismatch n n 1 0.7631 
20-May-2018_17:28:31 Exp 7326 20 male R 1 2 12 immoralSelf moralSelf mismatch n n 1 0.7892 
20-May-2018_17:28:33 Exp 7326 20 male R 1 2 13 immoralSelf immoralOther mismatch n n 1 0.7054 
20-May-2018_17:28:35 Exp 7326 20 male R 1 2 14 immoralSelf immoralSelf match m m 1 0.6475 
20-May-2018_17:28:37 Exp 7326 20 male R 1 2 15 moralSelf moralOther mismatch n m 0 0.6076 
20-May-2018_17:28:40 Exp 7326 20 male R 1 2 16 moralSelf immoralOther mismatch n n 1 0.6398 
20-May-2018_17:28:42 Exp 7326 20 male R 1 2 17 moralSelf moralSelf match m m 1 0.6099 
20-May-2018_17:28:44 Exp 7326 20 male R 1 2 18 immoralOther moralOther mismatch n n 1 0.8020 
20-May-2018_17:28:47 Exp 7326 20 male R 1 2 19 moralOther moralSelf mismatch n m 0 0.7162 
20-May-2018_17:28:49 Exp 7326 20 male R 1 2 20 moralOther moralOther match m m 1 0.5763 
20-May-2018_17:28:51 Exp 7326 20 male R 1 2 21 immoralSelf immoralSelf match m m 1 0.7685 
20-May-2018_17:28:54 Exp 7326 20 male R 1 2 22 immoralOther immoralOther match m m 1 0.7605 
20-May-2018_17:28:56 Exp 7326 20 male R 1 2 23 moralOther moralOther match m m 1 0.6667 
20-May-2018_17:28:58 Exp 7326 20 male R 1 2 24 moralSelf moralSelf match m m 1 0.6328 
Date Prac Sub Age Sex Hand Block Bin Trial Shape Label Match CorrResp Resp ACC RT
20-May-2018_17:35:07 Exp 7326 20 male R 1 1 1 moralOther moralOther match m m 1 0.5579 
20-May-2018_17:35:09 Exp 7326 20 male R 1 1 2 immoralOther moralSelf mismatch n n 1 0.6401 
20-May-2018_17:35:12 Exp 7326 20 male R 1 1 3 moralOther moralSelf mismatch n n 1 0.8021 
20-May-2018_17:35:14 Exp 7326 20 male R 1 1 4 immoralSelf immoralSelf match m m 1 0.7243 
20-May-2018_17:35:17 Exp 7326 20 male R 1 1 5 moralSelf immoralOther mismatch n n 1 0.6784 
20-May-2018_17:35:19 Exp 7326 20 male R 1 1 6 moralSelf immoralOther mismatch n n 1 0.6725 
20-May-2018_17:35:21 Exp 7326 20 male R 1 1 7 immoralOther immoralOther match m m 1 0.6926 
20-May-2018_17:35:23 Exp 7326 20 male R 1 1 8 immoralOther immoralSelf mismatch n n 1 0.6528 
20-May-2018_17:35:26 Exp 7326 20 male R 1 1 9 immoralSelf moralSelf mismatch n n 1 0.7329 
20-May-2018_17:35:28 Exp 7326 20 male R 1 1 10 moralOther moralOther match m m 1 0.5170 
20-May-2018_17:35:30 Exp 7326 20 male R 1 1 11 moralSelf moralSelf match m n 0 0.7852 
20-May-2018_17:35:33 Exp 7326 20 male R 1 1 12 moralOther moralSelf mismatch n n 1 0.7433 
20-May-2018_17:35:35 Exp 7326 20 male R 1 1 13 moralSelf moralSelf match m m 1 0.6614 
20-May-2018_17:35:37 Exp 7326 20 male R 1 1 14 immoralSelf moralOther mismatch n n 1 0.6835 
20-May-2018_17:35:40 Exp 7326 20 male R 1 1 15 immoralOther immoralOther match m m 1 0.6618 
20-May-2018_17:35:42 Exp 7326 20 male R 1 1 16 immoralSelf immoralSelf match m m 1 0.6758 
20-May-2018_17:35:44 Exp 7326 20 male R 1 1 17 immoralSelf immoralSelf match m m 1 0.6000 
20-May-2018_17:35:46 Exp 7326 20 male R 1 1 18 moralOther moralOther match m m 1 0.5621 
20-May-2018_17:35:49 Exp 7326 20 male R 1 1 19 moralSelf moralOther mismatch n n 1 0.7402 
20-May-2018_17:35:51 Exp 7326 20 male R 1 1 20 immoralOther immoralOther match m m 1 0.7703 
20-May-2018_17:35:53 Exp 7326 20 male R 1 1 21 immoralSelf moralSelf mismatch n n 1 0.6744 
20-May-2018_17:35:56 Exp 7326 20 male R 1 1 22 moralOther immoralOther mismatch n n 1 0.8306 
20-May-2018_17:35:58 Exp 7326 20 male R 1 1 23 moralSelf moralSelf match m m 1 0.5709 
20-May-2018_17:36:00 Exp 7326 20 male R 1 1 24 immoralOther moralSelf mismatch n n 1 0.5869 
20-May-2018_17:36:03 Exp 7326 20 male R 1 2 1 immoralOther immoralOther match m m 1 0.6970 
20-May-2018_17:36:05 Exp 7326 20 male R 1 2 2 moralOther immoralOther mismatch n n 1 0.6491 
20-May-2018_17:36:07 Exp 7326 20 male R 1 2 3 moralOther immoralOther mismatch n n 1 0.9132 
20-May-2018_17:36:10 Exp 7326 20 male R 1 2 4 immoralSelf immoralSelf match m m 1 0.5654 
20-May-2018_17:36:12 Exp 7326 20 male R 1 2 5 moralOther moralOther match m m 1 0.8155 
20-May-2018_17:36:14 Exp 7326 20 male R 1 2 6 moralSelf moralOther mismatch n n 1 0.5677 
20-May-2018_17:36:17 Exp 7326 20 male R 1 2 7 immoralSelf immoralOther mismatch n n 1 0.8318 
20-May-2018_17:36:19 Exp 7326 20 male R 1 2 8 immoralOther moralOther mismatch n n 1 0.6200 
20-May-2018_17:36:21 Exp 7326 20 male R 1 2 9 immoralOther immoralSelf mismatch n n 1 0.7541 
20-May-2018_17:36:24 Exp 7326 20 male R 1 2 10 moralSelf immoralSelf mismatch n n 1 0.7182 
20-May-2018_17:36:26 Exp 7326 20 male R 1 2 11 moralSelf moralOther mismatch n n 1 0.8883 
20-May-2018_17:36:29 Exp 7326 20 male R 1 2 12 moralOther moralSelf mismatch n n 1 0.8085 
20-May-2018_17:36:31 Exp 7326 20 male R 1 2 13 immoralSelf immoralSelf match m m 1 0.6807 
20-May-2018_17:36:33 Exp 7326 20 male R 1 2 14 immoralOther immoralOther match m m 1 0.6508 
20-May-2018_17:36:36 Exp 7326 20 male R 1 2 15 immoralSelf moralSelf mismatch n n 1 0.8429 
20-May-2018_17:36:38 Exp 7326 20 male R 1 2 16 immoralOther moralOther mismatch n n 1 0.7650 
20-May-2018_17:36:40 Exp 7326 20 male R 1 2 17 immoralOther immoralOther match m m 1 0.7031 
20-May-2018_17:36:43 Exp 7326 20 male R 1 2 18 immoralSelf immoralSelf match m m 1 0.6453 
20-May-2018_17:36:45 Exp 7326 20 male R 1 2 19 moralSelf moralSelf match m m 1 0.6634 
20-May-2018_17:36:47 Exp 7326 20 male R 1 2 20 moralSelf moralSelf match m m 1 0.6455 
20-May-2018_17:36:50 Exp 7326 20 male R 1 2 21 immoralSelf moralSelf mismatch n n 1 0.6957 
20-May-2018_17:36:52 Exp 7326 20 male R 1 2 22 moralOther moralOther match m m 1 0.7278 
20-May-2018_17:36:54 Exp 7326 20 male R 1 2 23 moralSelf moralSelf match m m 1 0.5839 
20-May-2018_17:36:57 Exp 7326 20 male R 1 2 24 moralOther moralOther match m m 1 0.8140 
