Date Prac Sub Age Sex Hand Block Bin Trial Shape Label Match CorrResp Resp ACC RT
Date Prac Sub Age Sex Hand Block Bin Trial Shape Label Match CorrResp Resp ACC RT
17-May-2018_15:53:03 Exp 7320 19 male L 1 1 1 immoralSelf immoralSelf match n n 1 0.6247 
17-May-2018_15:53:05 Exp 7320 19 male L 1 1 2 moralOther immoralOther mismatch m n 0 0.7488 
17-May-2018_15:53:07 Exp 7320 19 male L 1 1 3 immoralSelf immoralSelf match n n 1 0.6152 
17-May-2018_15:53:09 Exp 7320 19 male L 1 1 4 immoralSelf immoralOther mismatch m m 1 0.5251 
17-May-2018_15:53:11 Exp 7320 19 male L 1 1 5 immoralSelf moralOther mismatch m m 1 0.6532 
17-May-2018_15:53:14 Exp 7320 19 male L 1 1 6 immoralOther immoralSelf mismatch m n 0 0.8113 
17-May-2018_15:53:16 Exp 7320 19 male L 1 1 7 moralSelf moralOther mismatch m m 1 0.6415 
17-May-2018_15:53:18 Exp 7320 19 male L 1 1 8 immoralOther immoralOther match n n 1 0.7696 
17-May-2018_15:53:20 Exp 7320 19 male L 1 1 9 moralSelf immoralSelf mismatch m n 0 0.7437 
17-May-2018_15:53:22 Exp 7320 19 male L 1 1 10 moralOther moralOther match n n 1 0.6438 
17-May-2018_15:53:24 Exp 7320 19 male L 1 1 11 moralSelf moralSelf match n m 0 0.5240 
17-May-2018_15:53:26 Exp 7320 19 male L 1 1 12 immoralOther immoralOther match n n 1 0.6522 
17-May-2018_15:53:29 Exp 7320 19 male L 1 1 13 immoralSelf immoralOther mismatch m m 1 0.5702 
17-May-2018_15:53:31 Exp 7320 19 male L 1 1 14 immoralOther moralSelf mismatch m m 1 0.7043 
17-May-2018_15:53:33 Exp 7320 19 male L 1 1 15 moralSelf immoralSelf mismatch m n 0 0.4925 
17-May-2018_15:53:35 Exp 7320 19 male L 1 1 16 immoralOther immoralSelf mismatch m m 1 0.7146 
17-May-2018_15:53:37 Exp 7320 19 male L 1 1 17 moralOther moralSelf mismatch m n 0 0.6687 
17-May-2018_15:53:39 Exp 7320 19 male L 1 1 18 immoralSelf immoralSelf match n n 1 0.5028 
17-May-2018_15:53:41 Exp 7320 19 male L 1 1 19 moralSelf moralSelf match n n 1 0.5710 
17-May-2018_15:53:43 Exp 7320 19 male L 1 1 20 immoralOther immoralOther match n m 0 0.4890 
17-May-2018_15:53:45 Exp 7320 19 male L 1 1 21 moralOther immoralSelf mismatch m m 1 0.7991 
17-May-2018_15:53:47 Exp 7320 19 male L 1 1 22 moralOther moralOther match n m 0 0.6873 
17-May-2018_15:53:50 Exp 7320 19 male L 1 1 23 moralSelf moralSelf match n n 1 0.6214 
17-May-2018_15:53:52 Exp 7320 19 male L 1 1 24 moralOther moralOther match n n 1 0.6335 
17-May-2018_15:53:54 Exp 7320 19 male L 1 2 1 immoralOther moralSelf mismatch m m 1 0.5156 
17-May-2018_15:53:56 Exp 7320 19 male L 1 2 2 immoralOther moralSelf mismatch m m 1 0.4538 
17-May-2018_15:53:58 Exp 7320 19 male L 1 2 3 moralSelf immoralSelf mismatch m k 0 0.7719 
17-May-2018_15:54:00 Exp 7320 19 male L 1 2 4 moralSelf moralSelf match n n 1 0.6180 
17-May-2018_15:54:02 Exp 7320 19 male L 1 2 5 moralOther moralSelf mismatch m n 0 0.6541 
17-May-2018_15:54:04 Exp 7320 19 male L 1 2 6 immoralOther moralOther mismatch m m 1 0.6042 
17-May-2018_15:54:06 Exp 7320 19 male L 1 2 7 immoralOther immoralOther match n m 0 0.5400 
17-May-2018_15:54:08 Exp 7320 19 male L 1 2 8 moralSelf moralSelf match n n 1 0.5205 
17-May-2018_15:54:10 Exp 7320 19 male L 1 2 9 moralOther moralOther match n n 1 0.7206 
17-May-2018_15:54:12 Exp 7320 19 male L 1 2 10 immoralSelf immoralOther mismatch m n 0 0.6167 
17-May-2018_15:54:14 Exp 7320 19 male L 1 2 11 immoralSelf immoralSelf match n n 1 0.5188 
17-May-2018_15:54:17 Exp 7320 19 male L 1 2 12 immoralOther immoralOther match n n 1 0.6150 
17-May-2018_15:54:19 Exp 7320 19 male L 1 2 13 immoralOther immoralOther match n n 1 0.5410 
17-May-2018_15:54:21 Exp 7320 19 male L 1 2 14 moralOther immoralSelf mismatch m m 1 0.6651 
17-May-2018_15:54:23 Exp 7320 19 male L 1 2 15 moralSelf immoralOther mismatch m n 0 0.7413 
17-May-2018_15:54:25 Exp 7320 19 male L 1 2 16 moralOther moralOther match n n 1 0.6574 
17-May-2018_15:54:27 Exp 7320 19 male L 1 2 17 immoralSelf moralSelf mismatch m n 0 0.4616 
17-May-2018_15:54:29 Exp 7320 19 male L 1 2 18 immoralSelf immoralOther mismatch m n 0 0.6497 
17-May-2018_15:54:31 Exp 7320 19 male L 1 2 19 moralOther moralOther match n n 1 0.6797 
17-May-2018_15:54:33 Exp 7320 19 male L 1 2 20 immoralSelf immoralSelf match n m 0 0.4879 
17-May-2018_15:54:35 Exp 7320 19 male L 1 2 21 moralOther immoralSelf mismatch m n 0 0.2219 
17-May-2018_15:54:37 Exp 7320 19 male L 1 2 22 immoralSelf immoralSelf match n n 1 0.7621 
17-May-2018_15:54:40 Exp 7320 19 male L 1 2 23 moralSelf immoralSelf mismatch m n 0 1.0102 
17-May-2018_15:54:42 Exp 7320 19 male L 1 2 24 moralSelf moralSelf match n n 1 0.5764 
17-May-2018_15:54:44 Exp 7320 19 male L 1 3 1 immoralSelf immoralSelf match n m 0 0.9585 
17-May-2018_15:54:46 Exp 7320 19 male L 1 3 2 moralSelf immoralOther mismatch m m 1 0.6786 
17-May-2018_15:54:49 Exp 7320 19 male L 1 3 3 moralSelf moralSelf match n n 1 0.7428 
17-May-2018_15:54:51 Exp 7320 19 male L 1 3 4 immoralOther immoralOther match n n 1 0.6589 
17-May-2018_15:54:53 Exp 7320 19 male L 1 3 5 moralOther moralOther match n n 1 0.7350 
17-May-2018_15:54:55 Exp 7320 19 male L 1 3 6 moralSelf moralSelf match n n 1 0.6372 
17-May-2018_15:54:57 Exp 7320 19 male L 1 3 7 immoralSelf moralSelf mismatch m n 0 0.5093 
17-May-2018_15:54:59 Exp 7320 19 male L 1 3 8 immoralSelf immoralSelf match n n 1 0.6074 
17-May-2018_15:55:01 Exp 7320 19 male L 1 3 9 immoralOther immoralSelf mismatch m m 1 0.7334 
17-May-2018_15:55:03 Exp 7320 19 male L 1 3 10 moralOther moralSelf mismatch m n 0 0.5876 
17-May-2018_15:55:06 Exp 7320 19 male L 1 3 11 moralOther immoralSelf mismatch m n 0 0.7418 
17-May-2018_15:55:08 Exp 7320 19 male L 1 3 12 moralOther moralSelf mismatch m m 1 0.8578 
17-May-2018_15:55:10 Exp 7320 19 male L 1 3 13 immoralSelf moralSelf mismatch m m 1 0.9180 
17-May-2018_15:55:13 Exp 7320 19 male L 1 3 14 immoralSelf immoralSelf match n n 1 0.7341 
17-May-2018_15:55:15 Exp 7320 19 male L 1 3 15 immoralOther immoralOther match n n 1 0.7562 
17-May-2018_15:55:17 Exp 7320 19 male L 1 3 16 moralSelf moralSelf match n n 1 0.9503 
17-May-2018_15:55:20 Exp 7320 19 male L 1 3 17 moralSelf immoralOther mismatch m m 1 1.0005 
17-May-2018_15:55:22 Exp 7320 19 male L 1 3 18 immoralOther immoralOther match n n 1 0.6167 
17-May-2018_15:55:24 Exp 7320 19 male L 1 3 19 moralOther moralOther match n m 0 0.7187 
17-May-2018_15:55:26 Exp 7320 19 male L 1 3 20 moralSelf immoralOther mismatch m m 1 0.7668 
17-May-2018_15:55:29 Exp 7320 19 male L 1 3 21 immoralOther immoralSelf mismatch m m 1 0.7910 
17-May-2018_15:55:31 Exp 7320 19 male L 1 3 22 immoralSelf moralOther mismatch m m 1 0.8651 
17-May-2018_15:55:33 Exp 7320 19 male L 1 3 23 immoralOther immoralSelf mismatch m m 1 0.9333 
17-May-2018_15:55:35 Exp 7320 19 male L 1 3 24 moralOther moralOther match n n 1 0.6274 
17-May-2018_15:56:22 Exp 7320 19 male L 1 4 1 immoralOther immoralOther match n n 1 0.6080 
17-May-2018_15:56:24 Exp 7320 19 male L 1 4 2 moralOther moralSelf mismatch m n 0 0.5662 
17-May-2018_15:56:26 Exp 7320 19 male L 1 4 3 immoralSelf immoralOther mismatch m m 1 0.7103 
17-May-2018_15:56:28 Exp 7320 19 male L 1 4 4 moralOther moralOther match n n 1 0.7044 
17-May-2018_15:56:30 Exp 7320 19 male L 1 4 5 immoralOther moralSelf mismatch m m 1 0.7085 
17-May-2018_15:56:33 Exp 7320 19 male L 1 4 6 immoralSelf immoralOther mismatch m m 1 0.7186 
17-May-2018_15:56:35 Exp 7320 19 male L 1 4 7 moralSelf immoralSelf mismatch m m 1 0.6228 
17-May-2018_15:56:37 Exp 7320 19 male L 1 4 8 immoralSelf immoralSelf match n n 1 0.7308 
17-May-2018_15:56:39 Exp 7320 19 male L 1 4 9 moralSelf immoralOther mismatch m m 1 0.5611 
17-May-2018_15:56:41 Exp 7320 19 male L 1 4 10 moralSelf moralSelf match n n 1 0.4731 
17-May-2018_15:56:43 Exp 7320 19 male L 1 4 11 immoralSelf immoralOther mismatch m m 1 0.6592 
17-May-2018_15:56:45 Exp 7320 19 male L 1 4 12 immoralSelf immoralSelf match n n 1 0.6074 
17-May-2018_15:56:47 Exp 7320 19 male L 1 4 13 moralOther moralSelf mismatch m n 0 0.8534 
17-May-2018_15:56:50 Exp 7320 19 male L 1 4 14 immoralOther immoralOther match n n 1 0.7075 
17-May-2018_15:56:52 Exp 7320 19 male L 1 4 15 moralSelf immoralSelf mismatch m m 1 0.5738 
17-May-2018_15:56:54 Exp 7320 19 male L 1 4 16 immoralSelf immoralSelf match n n 1 0.6119 
17-May-2018_15:56:56 Exp 7320 19 male L 1 4 17 moralOther moralOther match n n 1 0.8180 
17-May-2018_15:56:58 Exp 7320 19 male L 1 4 18 moralSelf moralSelf match n n 1 0.7581 
17-May-2018_15:57:00 Exp 7320 19 male L 1 4 19 immoralOther moralSelf mismatch m m 1 0.6382 
17-May-2018_15:57:02 Exp 7320 19 male L 1 4 20 immoralOther immoralOther match n n 1 0.5664 
17-May-2018_15:57:05 Exp 7320 19 male L 1 4 21 immoralOther moralOther mismatch m m 1 0.7264 
17-May-2018_15:57:07 Exp 7320 19 male L 1 4 22 moralOther moralOther match n n 1 0.8866 
17-May-2018_15:57:09 Exp 7320 19 male L 1 4 23 moralOther immoralSelf mismatch m m 1 0.7107 
17-May-2018_15:57:11 Exp 7320 19 male L 1 4 24 moralSelf moralSelf match n n 1 0.5529 
17-May-2018_15:57:13 Exp 7320 19 male L 1 5 1 immoralSelf immoralSelf match n m 0 0.5229 
17-May-2018_15:57:15 Exp 7320 19 male L 1 5 2 immoralOther immoralOther match n m 0 0.6911 
17-May-2018_15:57:17 Exp 7320 19 male L 1 5 3 moralSelf moralSelf match n n 1 0.4411 
17-May-2018_15:57:19 Exp 7320 19 male L 1 5 4 moralSelf immoralOther mismatch m m 1 0.6495 
17-May-2018_15:57:22 Exp 7320 19 male L 1 5 5 moralSelf moralSelf match n n 1 0.6715 
17-May-2018_15:57:24 Exp 7320 19 male L 1 5 6 immoralOther moralSelf mismatch m m 1 0.7136 
17-May-2018_15:57:26 Exp 7320 19 male L 1 5 7 moralSelf immoralSelf mismatch m m 1 0.6997 
17-May-2018_15:57:28 Exp 7320 19 male L 1 5 8 immoralSelf immoralSelf match n n 1 0.6398 
17-May-2018_15:57:30 Exp 7320 19 male L 1 5 9 immoralOther immoralOther match n n 1 0.7359 
17-May-2018_15:57:32 Exp 7320 19 male L 1 5 10 immoralSelf immoralSelf match n m 0 0.5340 
17-May-2018_15:57:34 Exp 7320 19 male L 1 5 11 immoralSelf moralSelf mismatch m n 0 0.5242 
17-May-2018_15:57:36 Exp 7320 19 male L 1 5 12 immoralSelf moralSelf mismatch m n 0 0.5243 
17-May-2018_15:57:38 Exp 7320 19 male L 1 5 13 moralOther moralOther match n n 1 0.6524 
17-May-2018_15:57:41 Exp 7320 19 male L 1 5 14 moralSelf immoralSelf mismatch m m 1 0.7705 
17-May-2018_15:57:43 Exp 7320 19 male L 1 5 15 moralOther moralOther match n n 1 0.6647 
17-May-2018_15:57:45 Exp 7320 19 male L 1 5 16 moralOther moralOther match n n 1 0.7407 
17-May-2018_15:57:47 Exp 7320 19 male L 1 5 17 immoralSelf immoralOther mismatch m m 1 0.8409 
17-May-2018_15:57:50 Exp 7320 19 male L 1 5 18 immoralOther moralOther mismatch m m 1 0.9131 
17-May-2018_15:57:52 Exp 7320 19 male L 1 5 19 immoralOther immoralSelf mismatch m m 1 0.8351 
17-May-2018_15:57:54 Exp 7320 19 male L 1 5 20 immoralOther immoralOther match n n 1 0.7093 
17-May-2018_15:57:57 Exp 7320 19 male L 1 5 21 moralOther moralSelf mismatch m n 0 0.7754 
17-May-2018_15:57:58 Exp 7320 19 male L 1 5 22 moralSelf moralSelf match n n 1 0.4535 
17-May-2018_15:58:01 Exp 7320 19 male L 1 5 23 moralOther immoralSelf mismatch m m 1 0.8676 
17-May-2018_15:58:03 Exp 7320 19 male L 1 5 24 moralOther immoralOther mismatch m n 0 0.7577 
17-May-2018_15:58:09 Exp 7320 19 male L 2 1 1 moralSelf moralOther mismatch m NA -1 1.0170 
17-May-2018_15:58:10 Exp 7320 19 male L 2 1 2 moralSelf moralSelf match n n 1 0.3662 
17-May-2018_15:58:13 Exp 7320 19 male L 2 1 3 immoralOther moralOther mismatch m m 1 0.7422 
17-May-2018_15:58:15 Exp 7320 19 male L 2 1 4 moralOther immoralSelf mismatch m m 1 0.7304 
17-May-2018_15:58:17 Exp 7320 19 male L 2 1 5 immoralSelf immoralSelf match n m 0 0.7926 
17-May-2018_15:58:19 Exp 7320 19 male L 2 1 6 immoralSelf immoralSelf match n n 1 0.6748 
17-May-2018_15:58:22 Exp 7320 19 male L 2 1 7 moralOther moralSelf mismatch m m 1 0.8048 
17-May-2018_15:58:24 Exp 7320 19 male L 2 1 8 immoralOther immoralSelf mismatch m m 1 0.5809 
17-May-2018_15:58:26 Exp 7320 19 male L 2 1 9 moralOther immoralSelf mismatch m n 0 0.4970 
17-May-2018_15:58:28 Exp 7320 19 male L 2 1 10 moralSelf moralOther mismatch m m 1 0.8631 
17-May-2018_15:58:30 Exp 7320 19 male L 2 1 11 immoralOther immoralOther match n n 1 0.7477 
17-May-2018_15:58:32 Exp 7320 19 male L 2 1 12 immoralOther immoralOther match n n 1 0.5734 
17-May-2018_15:58:34 Exp 7320 19 male L 2 1 13 moralSelf moralSelf match n n 1 0.5955 
17-May-2018_15:58:36 Exp 7320 19 male L 2 1 14 immoralSelf immoralOther mismatch m n 0 0.7177 
17-May-2018_15:58:38 Exp 7320 19 male L 2 1 15 moralSelf moralSelf match n n 1 0.5498 
17-May-2018_15:58:41 Exp 7320 19 male L 2 1 16 moralOther moralOther match n n 1 0.8559 
17-May-2018_15:58:43 Exp 7320 19 male L 2 1 17 moralOther moralOther match n n 1 0.5501 
17-May-2018_15:58:45 Exp 7320 19 male L 2 1 18 immoralSelf immoralOther mismatch m m 1 0.6561 
17-May-2018_15:58:47 Exp 7320 19 male L 2 1 19 immoralSelf moralSelf mismatch m n 0 0.5823 
17-May-2018_15:58:49 Exp 7320 19 male L 2 1 20 immoralSelf immoralSelf match n n 1 0.5384 
17-May-2018_15:58:51 Exp 7320 19 male L 2 1 21 moralOther moralOther match n n 1 0.5665 
17-May-2018_15:58:53 Exp 7320 19 male L 2 1 22 immoralOther moralOther mismatch m n 0 0.8145 
17-May-2018_15:58:56 Exp 7320 19 male L 2 1 23 immoralOther immoralOther match n n 1 0.6688 
17-May-2018_15:58:58 Exp 7320 19 male L 2 1 24 moralSelf immoralOther mismatch m m 1 0.6389 
17-May-2018_15:59:00 Exp 7320 19 male L 2 2 1 moralSelf moralSelf match n n 1 0.7350 
17-May-2018_15:59:02 Exp 7320 19 male L 2 2 2 immoralOther immoralOther match n n 1 0.7172 
17-May-2018_15:59:04 Exp 7320 19 male L 2 2 3 moralSelf moralSelf match n n 1 0.6532 
17-May-2018_15:59:07 Exp 7320 19 male L 2 2 4 moralOther immoralSelf mismatch m m 1 0.9393 
17-May-2018_15:59:09 Exp 7320 19 male L 2 2 5 immoralSelf immoralSelf match n n 1 0.7514 
17-May-2018_15:59:11 Exp 7320 19 male L 2 2 6 immoralOther immoralOther match n n 1 0.9616 
17-May-2018_15:59:13 Exp 7320 19 male L 2 2 7 moralOther moralSelf mismatch m n 0 0.6979 
17-May-2018_15:59:16 Exp 7320 19 male L 2 2 8 immoralSelf immoralOther mismatch m m 1 0.7579 
17-May-2018_15:59:18 Exp 7320 19 male L 2 2 9 moralOther moralOther match n n 1 0.9100 
17-May-2018_15:59:20 Exp 7320 19 male L 2 2 10 moralOther immoralSelf mismatch m m 1 0.6721 
17-May-2018_15:59:22 Exp 7320 19 male L 2 2 11 moralSelf moralSelf match n n 1 0.6743 
17-May-2018_15:59:25 Exp 7320 19 male L 2 2 12 moralSelf moralOther mismatch m m 1 0.7164 
17-May-2018_15:59:27 Exp 7320 19 male L 2 2 13 moralOther moralOther match n n 1 0.7425 
17-May-2018_15:59:29 Exp 7320 19 male L 2 2 14 immoralSelf moralSelf mismatch m m 1 0.7546 
17-May-2018_15:59:32 Exp 7320 19 male L 2 2 15 moralSelf immoralSelf mismatch m NA -1 1.0170 
17-May-2018_15:59:34 Exp 7320 19 male L 2 2 16 immoralOther moralSelf mismatch m m 1 0.6588 
17-May-2018_15:59:36 Exp 7320 19 male L 2 2 17 moralOther moralOther match n n 1 0.7271 
17-May-2018_15:59:38 Exp 7320 19 male L 2 2 18 immoralSelf immoralSelf match n m 0 0.5592 
17-May-2018_15:59:40 Exp 7320 19 male L 2 2 19 immoralSelf moralOther mismatch m m 1 0.6394 
17-May-2018_15:59:42 Exp 7320 19 male L 2 2 20 immoralSelf immoralSelf match n n 1 0.4314 
17-May-2018_15:59:44 Exp 7320 19 male L 2 2 21 moralSelf immoralOther mismatch m m 1 0.6975 
17-May-2018_15:59:46 Exp 7320 19 male L 2 2 22 immoralOther moralOther mismatch m n 0 0.6216 
17-May-2018_15:59:48 Exp 7320 19 male L 2 2 23 immoralOther moralOther mismatch m m 1 0.6977 
17-May-2018_15:59:50 Exp 7320 19 male L 2 2 24 immoralOther immoralOther match n n 1 0.5579 
17-May-2018_15:59:53 Exp 7320 19 male L 2 3 1 immoralSelf immoralSelf match n m 0 0.6060 
17-May-2018_15:59:55 Exp 7320 19 male L 2 3 2 moralSelf moralSelf match n n 1 0.7181 
17-May-2018_15:59:57 Exp 7320 19 male L 2 3 3 moralOther moralOther match n n 1 0.6862 
17-May-2018_15:59:59 Exp 7320 19 male L 2 3 4 immoralOther moralSelf mismatch m m 1 0.7824 
17-May-2018_16:00:02 Exp 7320 19 male L 2 3 5 immoralOther immoralSelf mismatch m m 1 0.9304 
17-May-2018_16:00:04 Exp 7320 19 male L 2 3 6 immoralOther immoralOther match n n 1 0.7046 
17-May-2018_16:00:06 Exp 7320 19 male L 2 3 7 immoralOther immoralOther match n n 1 0.6607 
17-May-2018_16:00:08 Exp 7320 19 male L 2 3 8 moralOther immoralSelf mismatch m m 1 0.6728 
17-May-2018_16:00:10 Exp 7320 19 male L 2 3 9 moralOther immoralSelf mismatch m m 1 0.7950 
17-May-2018_16:00:12 Exp 7320 19 male L 2 3 10 immoralOther immoralOther match n n 1 0.7330 
17-May-2018_16:00:15 Exp 7320 19 male L 2 3 11 moralSelf immoralOther mismatch m m 1 0.6592 
17-May-2018_16:00:17 Exp 7320 19 male L 2 3 12 immoralSelf immoralSelf match n n 1 0.6713 
17-May-2018_16:00:19 Exp 7320 19 male L 2 3 13 immoralSelf immoralOther mismatch m m 1 0.8814 
17-May-2018_16:00:21 Exp 7320 19 male L 2 3 14 moralOther moralOther match n n 1 0.6495 
17-May-2018_16:00:23 Exp 7320 19 male L 2 3 15 immoralSelf immoralSelf match n n 1 0.7437 
17-May-2018_16:00:26 Exp 7320 19 male L 2 3 16 moralSelf moralSelf match n m 0 0.6999 
17-May-2018_16:00:28 Exp 7320 19 male L 2 3 17 immoralOther immoralSelf mismatch m m 1 0.8400 
17-May-2018_16:00:30 Exp 7320 19 male L 2 3 18 immoralSelf immoralOther mismatch m n 0 0.6481 
17-May-2018_16:00:32 Exp 7320 19 male L 2 3 19 moralOther moralOther match n m 0 0.7102 
17-May-2018_16:00:35 Exp 7320 19 male L 2 3 20 moralSelf immoralSelf mismatch m m 1 0.7763 
17-May-2018_16:00:37 Exp 7320 19 male L 2 3 21 moralSelf moralSelf match n n 1 0.8384 
17-May-2018_16:00:39 Exp 7320 19 male L 2 3 22 moralSelf immoralSelf mismatch m m 1 0.6306 
17-May-2018_16:00:41 Exp 7320 19 male L 2 3 23 immoralSelf immoralOther mismatch m m 1 0.9047 
17-May-2018_16:00:44 Exp 7320 19 male L 2 3 24 moralOther moralSelf mismatch m n 0 0.7169 
17-May-2018_16:01:14 Exp 7320 19 male L 2 4 1 moralOther immoralOther mismatch m n 0 0.6086 
17-May-2018_16:01:16 Exp 7320 19 male L 2 4 2 moralOther moralOther match n n 1 0.5986 
17-May-2018_16:01:18 Exp 7320 19 male L 2 4 3 moralSelf moralSelf match n n 1 0.6788 
17-May-2018_16:01:20 Exp 7320 19 male L 2 4 4 moralSelf immoralSelf mismatch m m 1 0.8070 
17-May-2018_16:01:22 Exp 7320 19 male L 2 4 5 immoralSelf immoralOther mismatch m m 1 0.6390 
17-May-2018_16:01:25 Exp 7320 19 male L 2 4 6 immoralOther moralSelf mismatch m m 1 0.6952 
17-May-2018_16:01:27 Exp 7320 19 male L 2 4 7 immoralOther immoralSelf mismatch m m 1 0.7813 
17-May-2018_16:01:29 Exp 7320 19 male L 2 4 8 immoralOther immoralOther match n n 1 0.6254 
17-May-2018_16:01:31 Exp 7320 19 male L 2 4 9 immoralOther immoralOther match n n 1 0.7095 
17-May-2018_16:01:33 Exp 7320 19 male L 2 4 10 moralOther immoralSelf mismatch m m 1 0.6236 
17-May-2018_16:01:35 Exp 7320 19 male L 2 4 11 immoralSelf immoralSelf match n n 1 0.7637 
17-May-2018_16:01:38 Exp 7320 19 male L 2 4 12 moralOther moralOther match n n 1 0.7319 
17-May-2018_16:01:40 Exp 7320 19 male L 2 4 13 moralSelf moralSelf match n n 1 0.7380 
17-May-2018_16:01:42 Exp 7320 19 male L 2 4 14 moralSelf immoralSelf mismatch m m 1 0.7341 
17-May-2018_16:01:44 Exp 7320 19 male L 2 4 15 immoralOther moralSelf mismatch m m 1 0.6923 
17-May-2018_16:01:47 Exp 7320 19 male L 2 4 16 immoralOther immoralOther match n n 1 0.8024 
17-May-2018_16:01:49 Exp 7320 19 male L 2 4 17 moralSelf moralSelf match n n 1 0.6825 
17-May-2018_16:01:51 Exp 7320 19 male L 2 4 18 moralOther moralOther match n n 1 0.6587 
17-May-2018_16:01:53 Exp 7320 19 male L 2 4 19 immoralSelf immoralSelf match n n 1 0.7907 
17-May-2018_16:01:55 Exp 7320 19 male L 2 4 20 immoralSelf immoralOther mismatch m n 0 0.8170 
17-May-2018_16:01:58 Exp 7320 19 male L 2 4 21 moralOther immoralSelf mismatch m n 0 0.7270 
17-May-2018_16:02:00 Exp 7320 19 male L 2 4 22 moralSelf immoralSelf mismatch m n 0 0.6772 
17-May-2018_16:02:02 Exp 7320 19 male L 2 4 23 immoralSelf immoralSelf match n n 1 0.8132 
17-May-2018_16:02:04 Exp 7320 19 male L 2 4 24 immoralSelf moralOther mismatch m m 1 0.9075 
17-May-2018_16:02:07 Exp 7320 19 male L 2 5 1 moralSelf moralSelf match n n 1 0.7015 
17-May-2018_16:02:09 Exp 7320 19 male L 2 5 2 moralSelf immoralOther mismatch m m 1 0.9616 
17-May-2018_16:02:11 Exp 7320 19 male L 2 5 3 immoralOther moralOther mismatch m n 0 0.6818 
17-May-2018_16:02:13 Exp 7320 19 male L 2 5 4 immoralOther moralSelf mismatch m m 1 0.6182 
17-May-2018_16:02:15 Exp 7320 19 male L 2 5 5 moralOther moralSelf mismatch m n 0 0.7100 
17-May-2018_16:02:18 Exp 7320 19 male L 2 5 6 moralOther immoralSelf mismatch m m 1 0.8482 
17-May-2018_16:02:20 Exp 7320 19 male L 2 5 7 immoralSelf moralOther mismatch m m 1 0.6943 
17-May-2018_16:02:22 Exp 7320 19 male L 2 5 8 immoralSelf immoralSelf match n n 1 0.9645 
17-May-2018_16:02:25 Exp 7320 19 male L 2 5 9 moralOther moralOther match n n 1 0.6686 
17-May-2018_16:02:27 Exp 7320 19 male L 2 5 10 immoralSelf immoralOther mismatch m m 1 0.6788 
17-May-2018_16:02:29 Exp 7320 19 male L 2 5 11 moralSelf immoralSelf mismatch m m 1 0.7108 
17-May-2018_16:02:31 Exp 7320 19 male L 2 5 12 moralOther moralOther match n n 1 0.6570 
17-May-2018_16:02:33 Exp 7320 19 male L 2 5 13 moralSelf moralSelf match n n 1 0.8070 
17-May-2018_16:02:35 Exp 7320 19 male L 2 5 14 immoralOther immoralOther match n n 1 0.6232 
17-May-2018_16:02:38 Exp 7320 19 male L 2 5 15 moralSelf moralOther mismatch m n 0 0.5953 
17-May-2018_16:02:40 Exp 7320 19 male L 2 5 16 immoralOther immoralOther match n n 1 0.6374 
17-May-2018_16:02:42 Exp 7320 19 male L 2 5 17 moralSelf moralSelf match n n 1 0.7975 
17-May-2018_16:02:44 Exp 7320 19 male L 2 5 18 immoralOther moralOther mismatch m n 0 0.7017 
17-May-2018_16:02:46 Exp 7320 19 male L 2 5 19 immoralSelf immoralSelf match n n 1 0.6818 
17-May-2018_16:02:48 Exp 7320 19 male L 2 5 20 immoralOther immoralOther match n n 1 0.7140 
17-May-2018_16:02:51 Exp 7320 19 male L 2 5 21 moralOther immoralOther mismatch m m 1 0.8280 
17-May-2018_16:02:53 Exp 7320 19 male L 2 5 22 immoralSelf immoralSelf match n m 0 0.6782 
17-May-2018_16:02:55 Exp 7320 19 male L 2 5 23 immoralSelf moralSelf mismatch m m 1 0.7663 
17-May-2018_16:02:57 Exp 7320 19 male L 2 5 24 moralOther moralOther match n n 1 0.6465 
17-May-2018_16:03:02 Exp 7320 19 male L 3 1 1 moralSelf moralSelf match n n 1 0.6187 
17-May-2018_16:03:05 Exp 7320 19 male L 3 1 2 immoralOther immoralOther match n n 1 0.6468 
17-May-2018_16:03:07 Exp 7320 19 male L 3 1 3 moralOther moralSelf mismatch m m 1 0.7350 
17-May-2018_16:03:09 Exp 7320 19 male L 3 1 4 moralSelf moralSelf match n n 1 0.6052 
17-May-2018_16:03:11 Exp 7320 19 male L 3 1 5 moralSelf moralOther mismatch m m 1 0.6211 
17-May-2018_16:03:13 Exp 7320 19 male L 3 1 6 moralOther moralOther match n n 1 0.6333 
17-May-2018_16:03:15 Exp 7320 19 male L 3 1 7 immoralSelf immoralOther mismatch m m 1 0.6515 
17-May-2018_16:03:17 Exp 7320 19 male L 3 1 8 immoralSelf immoralSelf match n n 1 0.7615 
17-May-2018_16:03:20 Exp 7320 19 male L 3 1 9 immoralOther moralOther mismatch m n 0 0.7776 
17-May-2018_16:03:22 Exp 7320 19 male L 3 1 10 immoralSelf immoralOther mismatch m m 1 0.8058 
17-May-2018_16:03:24 Exp 7320 19 male L 3 1 11 immoralOther immoralSelf mismatch m m 1 0.6620 
17-May-2018_16:03:26 Exp 7320 19 male L 3 1 12 moralSelf moralSelf match n n 1 0.5300 
17-May-2018_16:03:28 Exp 7320 19 male L 3 1 13 immoralOther immoralOther match n m 0 0.6882 
17-May-2018_16:03:30 Exp 7320 19 male L 3 1 14 immoralOther immoralOther match n n 1 0.4623 
17-May-2018_16:03:32 Exp 7320 19 male L 3 1 15 moralOther immoralOther mismatch m m 1 0.6344 
17-May-2018_16:03:34 Exp 7320 19 male L 3 1 16 immoralOther immoralSelf mismatch m m 1 0.7085 
17-May-2018_16:03:37 Exp 7320 19 male L 3 1 17 moralOther moralOther match n n 1 0.6627 
17-May-2018_16:03:39 Exp 7320 19 male L 3 1 18 immoralSelf moralSelf mismatch m m 1 0.6428 
17-May-2018_16:03:41 Exp 7320 19 male L 3 1 19 immoralSelf immoralSelf match n n 1 0.5069 
17-May-2018_16:03:43 Exp 7320 19 male L 3 1 20 moralOther moralOther match n n 1 0.6390 
17-May-2018_16:03:45 Exp 7320 19 male L 3 1 21 moralOther immoralSelf mismatch m m 1 0.5111 
17-May-2018_16:03:47 Exp 7320 19 male L 3 1 22 immoralSelf immoralSelf match n n 1 0.5692 
17-May-2018_16:03:49 Exp 7320 19 male L 3 1 23 moralSelf immoralOther mismatch m m 1 0.6233 
17-May-2018_16:03:51 Exp 7320 19 male L 3 1 24 moralSelf immoralSelf mismatch m m 1 0.6114 
17-May-2018_16:03:54 Exp 7320 19 male L 3 2 1 immoralSelf moralSelf mismatch m NA -1 1.0170 
17-May-2018_16:03:56 Exp 7320 19 male L 3 2 2 immoralOther immoralOther match n n 1 0.5037 
17-May-2018_16:03:58 Exp 7320 19 male L 3 2 3 moralSelf moralSelf match n m 0 0.5478 
17-May-2018_16:04:00 Exp 7320 19 male L 3 2 4 immoralSelf immoralOther mismatch m m 1 0.7260 
17-May-2018_16:04:02 Exp 7320 19 male L 3 2 5 immoralSelf immoralSelf match n n 1 0.5821 
17-May-2018_16:04:04 Exp 7320 19 male L 3 2 6 moralOther immoralSelf mismatch m m 1 0.6822 
17-May-2018_16:04:06 Exp 7320 19 male L 3 2 7 moralSelf moralOther mismatch m m 1 0.7703 
17-May-2018_16:04:08 Exp 7320 19 male L 3 2 8 moralOther immoralSelf mismatch m n 0 0.7204 
17-May-2018_16:04:11 Exp 7320 19 male L 3 2 9 immoralSelf moralOther mismatch m m 1 0.7286 
17-May-2018_16:04:13 Exp 7320 19 male L 3 2 10 immoralOther moralOther mismatch m n 0 0.6788 
17-May-2018_16:04:15 Exp 7320 19 male L 3 2 11 moralOther moralOther match n m 0 0.8548 
17-May-2018_16:04:17 Exp 7320 19 male L 3 2 12 immoralOther moralSelf mismatch m m 1 0.6289 
17-May-2018_16:04:19 Exp 7320 19 male L 3 2 13 immoralOther immoralOther match n n 1 0.4871 
17-May-2018_16:04:21 Exp 7320 19 male L 3 2 14 moralSelf immoralOther mismatch m m 1 0.5992 
17-May-2018_16:04:24 Exp 7320 19 male L 3 2 15 moralSelf immoralOther mismatch m m 1 0.8872 
17-May-2018_16:04:26 Exp 7320 19 male L 3 2 16 moralOther moralOther match n n 1 0.5575 
17-May-2018_16:04:28 Exp 7320 19 male L 3 2 17 moralOther moralOther match n n 1 0.8696 
17-May-2018_16:04:30 Exp 7320 19 male L 3 2 18 immoralSelf immoralSelf match n n 1 0.8715 
17-May-2018_16:04:33 Exp 7320 19 male L 3 2 19 immoralOther immoralOther match n n 1 0.7138 
17-May-2018_16:04:35 Exp 7320 19 male L 3 2 20 immoralOther immoralSelf mismatch m m 1 0.6039 
17-May-2018_16:04:37 Exp 7320 19 male L 3 2 21 immoralSelf immoralSelf match n n 1 0.7400 
17-May-2018_16:04:39 Exp 7320 19 male L 3 2 22 moralOther immoralOther mismatch m n 0 0.7203 
17-May-2018_16:04:41 Exp 7320 19 male L 3 2 23 moralSelf moralSelf match n n 1 0.6963 
17-May-2018_16:04:43 Exp 7320 19 male L 3 2 24 moralSelf moralSelf match n n 1 0.6784 
17-May-2018_16:04:46 Exp 7320 19 male L 3 3 1 immoralOther immoralOther match n n 1 0.6306 
17-May-2018_16:04:48 Exp 7320 19 male L 3 3 2 moralOther moralOther match n n 1 0.6646 
17-May-2018_16:04:50 Exp 7320 19 male L 3 3 3 moralSelf moralSelf match n n 1 0.6607 
17-May-2018_16:04:52 Exp 7320 19 male L 3 3 4 immoralSelf immoralSelf match n n 1 0.8169 
17-May-2018_16:04:54 Exp 7320 19 male L 3 3 5 immoralOther moralSelf mismatch m m 1 0.6770 
17-May-2018_16:04:57 Exp 7320 19 male L 3 3 6 moralSelf immoralSelf mismatch m m 1 0.9031 
17-May-2018_16:04:59 Exp 7320 19 male L 3 3 7 moralOther immoralSelf mismatch m m 1 0.7153 
17-May-2018_16:05:01 Exp 7320 19 male L 3 3 8 moralOther immoralOther mismatch m n 0 0.5974 
17-May-2018_16:05:03 Exp 7320 19 male L 3 3 9 moralSelf moralOther mismatch m n 0 0.6055 
17-May-2018_16:05:05 Exp 7320 19 male L 3 3 10 moralOther moralOther match n n 1 0.6137 
17-May-2018_16:05:07 Exp 7320 19 male L 3 3 11 moralOther moralOther match n m 0 0.7637 
17-May-2018_16:05:10 Exp 7320 19 male L 3 3 12 immoralSelf immoralSelf match n n 1 0.7238 
17-May-2018_16:05:12 Exp 7320 19 male L 3 3 13 moralSelf moralOther mismatch m m 1 0.7400 
17-May-2018_16:05:14 Exp 7320 19 male L 3 3 14 immoralOther immoralOther match n n 1 0.7601 
17-May-2018_16:05:16 Exp 7320 19 male L 3 3 15 moralSelf moralSelf match n n 1 0.7043 
17-May-2018_16:05:18 Exp 7320 19 male L 3 3 16 immoralOther immoralOther match n n 1 0.6764 
17-May-2018_16:05:20 Exp 7320 19 male L 3 3 17 moralSelf moralSelf match n n 1 0.6386 
17-May-2018_16:05:23 Exp 7320 19 male L 3 3 18 immoralSelf moralSelf mismatch m m 1 0.7667 
17-May-2018_16:05:25 Exp 7320 19 male L 3 3 19 immoralSelf moralOther mismatch m m 1 0.8228 
17-May-2018_16:05:27 Exp 7320 19 male L 3 3 20 immoralOther moralSelf mismatch m m 1 0.7309 
17-May-2018_16:05:29 Exp 7320 19 male L 3 3 21 moralOther immoralSelf mismatch m m 1 0.8170 
17-May-2018_16:05:32 Exp 7320 19 male L 3 3 22 immoralSelf immoralSelf match n n 1 0.7032 
17-May-2018_16:05:34 Exp 7320 19 male L 3 3 23 immoralSelf moralOther mismatch m m 1 0.6032 
17-May-2018_16:05:36 Exp 7320 19 male L 3 3 24 immoralOther immoralSelf mismatch m n 0 0.6755 
17-May-2018_16:08:50 Exp 7320 19 male L 3 4 1 immoralSelf immoralSelf match n n 1 0.6983 
17-May-2018_16:08:53 Exp 7320 19 male L 3 4 2 immoralSelf immoralOther mismatch m m 1 0.6305 
17-May-2018_16:08:54 Exp 7320 19 male L 3 4 3 moralOther moralOther match n n 1 0.4967 
17-May-2018_16:08:57 Exp 7320 19 male L 3 4 4 moralSelf immoralOther mismatch m m 1 0.9348 
17-May-2018_16:08:59 Exp 7320 19 male L 3 4 5 immoralSelf moralOther mismatch m m 1 0.7249 
17-May-2018_16:09:01 Exp 7320 19 male L 3 4 6 moralOther immoralOther mismatch m m 1 0.7330 
17-May-2018_16:09:04 Exp 7320 19 male L 3 4 7 moralSelf moralOther mismatch m m 1 0.9391 
17-May-2018_16:09:06 Exp 7320 19 male L 3 4 8 moralSelf moralSelf match n n 1 0.5433 
17-May-2018_16:09:08 Exp 7320 19 male L 3 4 9 immoralOther moralSelf mismatch m m 1 0.6675 
17-May-2018_16:09:10 Exp 7320 19 male L 3 4 10 immoralOther moralSelf mismatch m m 1 0.5895 
17-May-2018_16:09:12 Exp 7320 19 male L 3 4 11 immoralSelf immoralSelf match n n 1 0.6158 
17-May-2018_16:09:14 Exp 7320 19 male L 3 4 12 moralSelf moralSelf match n n 1 0.5577 
17-May-2018_16:09:16 Exp 7320 19 male L 3 4 13 moralOther moralSelf mismatch m m 1 0.5978 
17-May-2018_16:09:19 Exp 7320 19 male L 3 4 14 immoralSelf moralOther mismatch m NA -1 1.0170 
17-May-2018_16:09:21 Exp 7320 19 male L 3 4 15 immoralOther moralOther mismatch m m 1 0.7641 
17-May-2018_16:09:23 Exp 7320 19 male L 3 4 16 moralOther immoralOther mismatch m m 1 0.7642 
17-May-2018_16:09:25 Exp 7320 19 male L 3 4 17 moralSelf immoralSelf mismatch m m 1 0.7084 
17-May-2018_16:09:27 Exp 7320 19 male L 3 4 18 immoralOther immoralOther match n n 1 0.6146 
17-May-2018_16:09:30 Exp 7320 19 male L 3 4 19 moralSelf moralSelf match n n 1 0.7726 
17-May-2018_16:09:32 Exp 7320 19 male L 3 4 20 moralOther moralOther match n m 0 0.7147 
17-May-2018_16:09:34 Exp 7320 19 male L 3 4 21 immoralSelf immoralSelf match n n 1 0.6289 
17-May-2018_16:09:36 Exp 7320 19 male L 3 4 22 immoralOther immoralOther match n n 1 0.5830 
17-May-2018_16:09:38 Exp 7320 19 male L 3 4 23 immoralOther immoralOther match n m 0 0.5472 
17-May-2018_16:09:40 Exp 7320 19 male L 3 4 24 moralOther moralOther match n m 0 0.6372 
17-May-2018_16:09:42 Exp 7320 19 male L 3 5 1 moralOther moralOther match n n 1 0.6073 
17-May-2018_16:09:44 Exp 7320 19 male L 3 5 2 immoralOther moralSelf mismatch m m 1 0.6295 
17-May-2018_16:09:47 Exp 7320 19 male L 3 5 3 moralSelf moralOther mismatch m m 1 0.6955 
17-May-2018_16:09:49 Exp 7320 19 male L 3 5 4 moralSelf moralSelf match n n 1 0.6538 
17-May-2018_16:09:51 Exp 7320 19 male L 3 5 5 moralOther moralOther match n n 1 0.6278 
17-May-2018_16:09:53 Exp 7320 19 male L 3 5 6 moralSelf moralSelf match n n 1 0.6779 
17-May-2018_16:09:55 Exp 7320 19 male L 3 5 7 moralSelf immoralSelf mismatch m m 1 0.7341 
17-May-2018_16:09:57 Exp 7320 19 male L 3 5 8 immoralSelf immoralSelf match n n 1 0.7322 
17-May-2018_16:09:59 Exp 7320 19 male L 3 5 9 immoralOther immoralOther match n n 1 0.6503 
17-May-2018_16:10:02 Exp 7320 19 male L 3 5 10 moralOther immoralSelf mismatch m m 1 0.7685 
17-May-2018_16:10:04 Exp 7320 19 male L 3 5 11 immoralOther moralOther mismatch m m 1 0.7985 
17-May-2018_16:10:06 Exp 7320 19 male L 3 5 12 immoralSelf immoralOther mismatch m m 1 0.6468 
17-May-2018_16:10:08 Exp 7320 19 male L 3 5 13 immoralOther immoralOther match n n 1 0.6628 
17-May-2018_16:10:10 Exp 7320 19 male L 3 5 14 immoralOther moralSelf mismatch m m 1 0.6669 
17-May-2018_16:10:13 Exp 7320 19 male L 3 5 15 immoralSelf moralSelf mismatch m m 1 0.7911 
17-May-2018_16:10:15 Exp 7320 19 male L 3 5 16 moralSelf immoralOther mismatch m m 1 0.6651 
17-May-2018_16:10:17 Exp 7320 19 male L 3 5 17 moralSelf moralSelf match n n 1 0.7493 
17-May-2018_16:10:19 Exp 7320 19 male L 3 5 18 immoralSelf immoralOther mismatch m m 1 0.6794 
17-May-2018_16:10:21 Exp 7320 19 male L 3 5 19 immoralOther immoralOther match n n 1 0.6475 
17-May-2018_16:10:24 Exp 7320 19 male L 3 5 20 moralOther immoralOther mismatch m m 1 0.8617 
17-May-2018_16:10:26 Exp 7320 19 male L 3 5 21 immoralSelf immoralSelf match n n 1 0.7058 
17-May-2018_16:10:28 Exp 7320 19 male L 3 5 22 moralOther moralOther match n n 1 0.6699 
17-May-2018_16:10:30 Exp 7320 19 male L 3 5 23 moralOther moralSelf mismatch m m 1 0.5839 
17-May-2018_16:10:32 Exp 7320 19 male L 3 5 24 immoralSelf immoralSelf match n n 1 0.6202 
Date Prac Sub Age Sex Hand Block Bin Trial Shape Label Match CorrResp Resp ACC RT
17-May-2018_16:16:00 Exp 7320 19 male L 1 1 1 moralOther immoralOther mismatch m n 0 0.6907 
17-May-2018_16:16:02 Exp 7320 19 male L 1 1 2 moralSelf immoralSelf mismatch m m 1 0.6568 
17-May-2018_16:16:05 Exp 7320 19 male L 1 1 3 immoralSelf immoralSelf match n n 1 0.7589 
17-May-2018_16:16:07 Exp 7320 19 male L 1 1 4 moralSelf immoralSelf mismatch m m 1 0.5991 
17-May-2018_16:16:09 Exp 7320 19 male L 1 1 5 immoralOther moralSelf mismatch m m 1 0.6952 
17-May-2018_16:16:11 Exp 7320 19 male L 1 1 6 immoralSelf moralSelf mismatch m m 1 0.6853 
17-May-2018_16:16:13 Exp 7320 19 male L 1 1 7 immoralOther immoralOther match n n 1 0.5814 
17-May-2018_16:16:15 Exp 7320 19 male L 1 1 8 immoralOther immoralOther match n n 1 0.5779 
17-May-2018_16:16:17 Exp 7320 19 male L 1 1 9 moralSelf moralSelf match n m 0 0.7097 
17-May-2018_16:16:19 Exp 7320 19 male L 1 1 10 moralSelf moralSelf match n n 1 0.5918 
17-May-2018_16:16:21 Exp 7320 19 male L 1 1 11 immoralSelf moralOther mismatch m m 1 0.5939 
17-May-2018_16:16:24 Exp 7320 19 male L 1 1 12 immoralSelf moralOther mismatch m m 1 0.6520 
17-May-2018_16:16:26 Exp 7320 19 male L 1 1 13 moralOther immoralSelf mismatch m m 1 0.8022 
17-May-2018_16:16:28 Exp 7320 19 male L 1 1 14 moralSelf moralSelf match n n 1 0.7063 
17-May-2018_16:16:30 Exp 7320 19 male L 1 1 15 moralSelf immoralOther mismatch m m 1 0.6384 
17-May-2018_16:16:32 Exp 7320 19 male L 1 1 16 moralOther moralOther match n n 1 0.8465 
17-May-2018_16:16:35 Exp 7320 19 male L 1 1 17 moralOther moralSelf mismatch m m 1 0.6706 
17-May-2018_16:16:37 Exp 7320 19 male L 1 1 18 immoralOther moralSelf mismatch m m 1 0.6408 
17-May-2018_16:16:39 Exp 7320 19 male L 1 1 19 moralOther moralOther match n n 1 0.7129 
17-May-2018_16:16:41 Exp 7320 19 male L 1 1 20 immoralOther immoralSelf mismatch m m 1 0.5710 
17-May-2018_16:16:43 Exp 7320 19 male L 1 1 21 moralOther moralOther match n n 1 0.6171 
17-May-2018_16:16:45 Exp 7320 19 male L 1 1 22 immoralSelf immoralSelf match n m 0 0.4554 
17-May-2018_16:16:47 Exp 7320 19 male L 1 1 23 immoralOther immoralOther match n m 0 0.8373 
17-May-2018_16:16:49 Exp 7320 19 male L 1 1 24 immoralSelf immoralSelf match n n 1 0.5896 
17-May-2018_16:16:52 Exp 7320 19 male L 1 2 1 immoralOther moralSelf mismatch m m 1 0.6796 
17-May-2018_16:16:54 Exp 7320 19 male L 1 2 2 immoralOther immoralSelf mismatch m m 1 0.5918 
17-May-2018_16:16:56 Exp 7320 19 male L 1 2 3 moralOther moralSelf mismatch m n 0 0.5299 
17-May-2018_16:16:58 Exp 7320 19 male L 1 2 4 immoralSelf immoralSelf match n n 1 0.5839 
17-May-2018_16:17:00 Exp 7320 19 male L 1 2 5 moralOther moralOther match n n 1 0.5482 
17-May-2018_16:17:02 Exp 7320 19 male L 1 2 6 immoralOther immoralOther match n n 1 0.6942 
17-May-2018_16:17:04 Exp 7320 19 male L 1 2 7 immoralOther immoralOther match n n 1 0.5564 
17-May-2018_16:17:06 Exp 7320 19 male L 1 2 8 immoralOther immoralOther match n n 1 0.5505 
17-May-2018_16:17:08 Exp 7320 19 male L 1 2 9 moralSelf immoralOther mismatch m m 1 0.6166 
17-May-2018_16:17:10 Exp 7320 19 male L 1 2 10 immoralSelf moralOther mismatch m m 1 0.6867 
17-May-2018_16:17:12 Exp 7320 19 male L 1 2 11 moralOther immoralSelf mismatch m m 1 0.6228 
17-May-2018_16:17:14 Exp 7320 19 male L 1 2 12 immoralSelf immoralSelf match n n 1 0.6909 
17-May-2018_16:17:17 Exp 7320 19 male L 1 2 13 moralOther moralOther match n n 1 0.5690 
17-May-2018_16:17:19 Exp 7320 19 male L 1 2 14 moralSelf immoralOther mismatch m m 1 0.6552 
17-May-2018_16:17:21 Exp 7320 19 male L 1 2 15 immoralOther moralSelf mismatch m m 1 0.7093 
17-May-2018_16:17:23 Exp 7320 19 male L 1 2 16 moralSelf moralSelf match n n 1 0.5914 
17-May-2018_16:17:25 Exp 7320 19 male L 1 2 17 immoralSelf immoralSelf match n n 1 0.6415 
17-May-2018_16:17:27 Exp 7320 19 male L 1 2 18 immoralSelf moralSelf mismatch m n 0 0.6577 
17-May-2018_16:17:29 Exp 7320 19 male L 1 2 19 moralOther moralOther match n n 1 0.4777 
17-May-2018_16:17:31 Exp 7320 19 male L 1 2 20 immoralSelf moralOther mismatch m m 1 0.6138 
17-May-2018_16:17:33 Exp 7320 19 male L 1 2 21 moralSelf moralOther mismatch m n 0 0.6040 
17-May-2018_16:17:35 Exp 7320 19 male L 1 2 22 moralOther immoralOther mismatch m n 0 0.6761 
17-May-2018_16:17:37 Exp 7320 19 male L 1 2 23 moralSelf moralSelf match n n 1 0.5502 
17-May-2018_16:17:40 Exp 7320 19 male L 1 2 24 moralSelf moralSelf match n n 1 0.8562 
Date Prac Sub Age Sex Hand Block Bin Trial Shape Label Match CorrResp Resp ACC RT
17-May-2018_16:21:58 Exp 7320 19 male L 1 1 1 immoralOther immoralSelf mismatch m m 1 0.6210 
17-May-2018_16:22:00 Exp 7320 19 male L 1 1 2 moralOther immoralSelf mismatch m m 1 0.5530 
17-May-2018_16:22:02 Exp 7320 19 male L 1 1 3 immoralOther immoralSelf mismatch m n 0 0.6592 
17-May-2018_16:22:04 Exp 7320 19 male L 1 1 4 moralOther moralSelf mismatch m m 1 0.9513 
17-May-2018_16:22:06 Exp 7320 19 male L 1 1 5 immoralSelf immoralOther mismatch m m 1 0.7695 
17-May-2018_16:22:08 Exp 7320 19 male L 1 1 6 immoralSelf immoralSelf match n n 1 0.5276 
17-May-2018_16:22:11 Exp 7320 19 male L 1 1 7 immoralOther immoralOther match n n 1 0.7416 
17-May-2018_16:22:13 Exp 7320 19 male L 1 1 8 immoralOther immoralOther match n n 1 0.5538 
17-May-2018_16:22:15 Exp 7320 19 male L 1 1 9 moralSelf moralOther mismatch m m 1 0.5879 
17-May-2018_16:22:17 Exp 7320 19 male L 1 1 10 moralSelf moralSelf match n n 1 0.3981 
17-May-2018_16:22:19 Exp 7320 19 male L 1 1 11 moralOther moralOther match n m 0 0.6782 
17-May-2018_16:22:21 Exp 7320 19 male L 1 1 12 moralSelf moralSelf match n n 1 0.6224 
17-May-2018_16:22:23 Exp 7320 19 male L 1 1 13 immoralOther moralSelf mismatch m m 1 0.6583 
17-May-2018_16:22:25 Exp 7320 19 male L 1 1 14 moralOther immoralOther mismatch m m 1 0.7265 
17-May-2018_16:22:27 Exp 7320 19 male L 1 1 15 moralSelf immoralSelf mismatch m n 0 0.5426 
17-May-2018_16:22:29 Exp 7320 19 male L 1 1 16 immoralSelf immoralSelf match n n 1 0.5948 
17-May-2018_16:22:32 Exp 7320 19 male L 1 1 17 moralOther moralOther match n n 1 0.7329 
17-May-2018_16:22:34 Exp 7320 19 male L 1 1 18 immoralSelf immoralSelf match n n 1 0.7629 
17-May-2018_16:22:36 Exp 7320 19 male L 1 1 19 moralSelf immoralSelf mismatch m m 1 0.7151 
17-May-2018_16:22:38 Exp 7320 19 male L 1 1 20 immoralSelf immoralOther mismatch m m 1 0.6453 
17-May-2018_16:22:40 Exp 7320 19 male L 1 1 21 moralOther moralOther match n n 1 0.6454 
17-May-2018_16:22:42 Exp 7320 19 male L 1 1 22 immoralOther immoralOther match n n 1 0.7255 
17-May-2018_16:22:44 Exp 7320 19 male L 1 1 23 immoralSelf moralOther mismatch m m 1 0.5336 
17-May-2018_16:22:47 Exp 7320 19 male L 1 1 24 moralSelf moralSelf match n n 1 0.6197 
17-May-2018_16:22:49 Exp 7320 19 male L 1 2 1 immoralOther moralOther mismatch m m 1 0.6479 
17-May-2018_16:22:51 Exp 7320 19 male L 1 2 2 moralSelf immoralOther mismatch m m 1 0.6540 
17-May-2018_16:22:53 Exp 7320 19 male L 1 2 3 immoralOther immoralOther match n n 1 0.5400 
17-May-2018_16:22:55 Exp 7320 19 male L 1 2 4 immoralOther immoralOther match n m 0 0.4642 
17-May-2018_16:22:57 Exp 7320 19 male L 1 2 5 moralSelf immoralOther mismatch m n 0 0.6602 
17-May-2018_16:22:59 Exp 7320 19 male L 1 2 6 moralOther moralOther match n n 1 0.2805 
17-May-2018_16:23:01 Exp 7320 19 male L 1 2 7 immoralOther immoralSelf mismatch m m 1 0.5686 
17-May-2018_16:23:03 Exp 7320 19 male L 1 2 8 moralSelf immoralSelf mismatch m n 0 0.4866 
17-May-2018_16:23:05 Exp 7320 19 male L 1 2 9 moralOther moralSelf mismatch m m 1 0.6307 
17-May-2018_16:23:07 Exp 7320 19 male L 1 2 10 immoralSelf immoralSelf match n n 1 0.4568 
17-May-2018_16:23:09 Exp 7320 19 male L 1 2 11 moralOther immoralOther mismatch m n 0 0.5429 
17-May-2018_16:23:11 Exp 7320 19 male L 1 2 12 moralSelf moralSelf match n n 1 0.6031 
17-May-2018_16:23:13 Exp 7320 19 male L 1 2 13 moralSelf moralSelf match n m 0 0.6752 
17-May-2018_16:23:15 Exp 7320 19 male L 1 2 14 immoralSelf moralOther mismatch m m 1 0.7253 
17-May-2018_16:23:17 Exp 7320 19 male L 1 2 15 immoralOther moralOther mismatch m m 1 0.7015 
17-May-2018_16:23:20 Exp 7320 19 male L 1 2 16 immoralOther immoralOther match n n 1 0.7775 
17-May-2018_16:23:22 Exp 7320 19 male L 1 2 17 moralOther moralOther match n m 0 0.7897 
17-May-2018_16:23:24 Exp 7320 19 male L 1 2 18 moralOther moralSelf mismatch m m 1 0.8398 
17-May-2018_16:23:26 Exp 7320 19 male L 1 2 19 immoralSelf immoralOther mismatch m m 1 0.6319 
17-May-2018_16:23:28 Exp 7320 19 male L 1 2 20 moralSelf moralSelf match n n 1 0.6341 
17-May-2018_16:23:31 Exp 7320 19 male L 1 2 21 immoralSelf immoralSelf match n n 1 0.7722 
17-May-2018_16:23:33 Exp 7320 19 male L 1 2 22 immoralSelf immoralOther mismatch m m 1 0.7143 
17-May-2018_16:23:35 Exp 7320 19 male L 1 2 23 moralOther moralOther match n n 1 0.6124 
17-May-2018_16:23:37 Exp 7320 19 male L 1 2 24 immoralSelf immoralSelf match n n 1 0.6905 
Date Prac Sub Age Sex Hand Block Bin Trial Shape Label Match CorrResp Resp ACC RT
17-May-2018_16:27:49 Exp 7320 19 male L 1 1 1 immoralOther immoralOther match n n 1 0.7028 
17-May-2018_16:27:50 Exp 7320 19 male L 1 1 2 immoralOther immoralOther match n n 1 0.4910 
17-May-2018_16:27:53 Exp 7320 19 male L 1 1 3 moralOther moralOther match n n 1 0.6331 
17-May-2018_16:27:55 Exp 7320 19 male L 1 1 4 immoralOther moralOther mismatch m n 0 0.7712 
17-May-2018_16:27:57 Exp 7320 19 male L 1 1 5 immoralSelf immoralSelf match n n 1 0.6333 
17-May-2018_16:27:59 Exp 7320 19 male L 1 1 6 moralSelf immoralSelf mismatch m m 1 0.6754 
17-May-2018_16:28:01 Exp 7320 19 male L 1 1 7 moralSelf moralSelf match n n 1 0.5575 
17-May-2018_16:28:03 Exp 7320 19 male L 1 1 8 moralOther immoralOther mismatch m m 1 0.6857 
17-May-2018_16:28:06 Exp 7320 19 male L 1 1 9 immoralOther immoralSelf mismatch m m 1 0.8057 
17-May-2018_16:28:08 Exp 7320 19 male L 1 1 10 immoralSelf immoralOther mismatch m m 1 0.7579 
17-May-2018_16:28:10 Exp 7320 19 male L 1 1 11 immoralSelf moralSelf mismatch m m 1 0.8940 
17-May-2018_16:28:12 Exp 7320 19 male L 1 1 12 moralSelf moralSelf match n n 1 0.6282 
17-May-2018_16:28:14 Exp 7320 19 male L 1 1 13 moralSelf moralSelf match n n 1 0.6623 
17-May-2018_16:28:17 Exp 7320 19 male L 1 1 14 moralOther moralOther match n n 1 0.6744 
17-May-2018_16:28:19 Exp 7320 19 male L 1 1 15 immoralSelf immoralSelf match n m 0 0.6125 
17-May-2018_16:28:21 Exp 7320 19 male L 1 1 16 immoralOther immoralOther match n n 1 0.7066 
17-May-2018_16:28:23 Exp 7320 19 male L 1 1 17 immoralOther immoralSelf mismatch m m 1 0.7427 
17-May-2018_16:28:26 Exp 7320 19 male L 1 1 18 moralOther immoralSelf mismatch m NA -1 1.0170 
17-May-2018_16:28:28 Exp 7320 19 male L 1 1 19 immoralSelf immoralOther mismatch m m 1 0.6651 
17-May-2018_16:28:30 Exp 7320 19 male L 1 1 20 moralOther immoralOther mismatch m m 1 0.9172 
17-May-2018_16:28:32 Exp 7320 19 male L 1 1 21 moralOther moralOther match n n 1 0.7974 
17-May-2018_16:28:34 Exp 7320 19 male L 1 1 22 immoralSelf immoralSelf match n m 0 0.6295 
17-May-2018_16:28:36 Exp 7320 19 male L 1 1 23 moralSelf immoralSelf mismatch m n 0 0.1355 
17-May-2018_16:28:38 Exp 7320 19 male L 1 1 24 moralSelf immoralOther mismatch m m 1 0.5896 
17-May-2018_16:28:40 Exp 7320 19 male L 1 2 1 immoralOther immoralSelf mismatch m m 1 0.6077 
17-May-2018_16:28:42 Exp 7320 19 male L 1 2 2 immoralOther immoralOther match n n 1 0.7019 
17-May-2018_16:28:44 Exp 7320 19 male L 1 2 3 moralSelf immoralOther mismatch m m 1 0.5860 
17-May-2018_16:28:47 Exp 7320 19 male L 1 2 4 moralOther immoralOther mismatch m n 0 0.5982 
17-May-2018_16:28:49 Exp 7320 19 male L 1 2 5 moralSelf moralOther mismatch m n 0 0.5742 
17-May-2018_16:28:51 Exp 7320 19 male L 1 2 6 moralSelf moralSelf match n m 0 0.5084 
17-May-2018_16:28:53 Exp 7320 19 male L 1 2 7 immoralSelf immoralSelf match n n 1 0.6384 
17-May-2018_16:28:55 Exp 7320 19 male L 1 2 8 moralOther moralOther match n n 1 0.6466 
17-May-2018_16:28:57 Exp 7320 19 male L 1 2 9 immoralOther moralOther mismatch m m 1 0.5907 
17-May-2018_16:28:59 Exp 7320 19 male L 1 2 10 moralSelf immoralSelf mismatch m m 1 0.6408 
17-May-2018_16:29:01 Exp 7320 19 male L 1 2 11 moralSelf moralSelf match n n 1 0.6170 
17-May-2018_16:29:03 Exp 7320 19 male L 1 2 12 immoralSelf immoralSelf match n m 0 0.5191 
17-May-2018_16:29:05 Exp 7320 19 male L 1 2 13 immoralOther immoralOther match n n 1 0.8151 
17-May-2018_16:29:08 Exp 7320 19 male L 1 2 14 moralSelf moralSelf match n n 1 0.6213 
17-May-2018_16:29:10 Exp 7320 19 male L 1 2 15 moralOther immoralSelf mismatch m m 1 0.6103 
17-May-2018_16:29:12 Exp 7320 19 male L 1 2 16 immoralSelf moralSelf mismatch m m 1 0.5996 
17-May-2018_16:29:14 Exp 7320 19 male L 1 2 17 immoralSelf moralOther mismatch m m 1 0.6797 
17-May-2018_16:29:16 Exp 7320 19 male L 1 2 18 immoralSelf immoralSelf match n n 1 0.6077 
17-May-2018_16:29:18 Exp 7320 19 male L 1 2 19 immoralOther moralOther mismatch m m 1 0.6138 
17-May-2018_16:29:20 Exp 7320 19 male L 1 2 20 moralOther moralOther match n n 1 0.5880 
17-May-2018_16:29:22 Exp 7320 19 male L 1 2 21 immoralSelf moralOther mismatch m m 1 0.5741 
17-May-2018_16:29:24 Exp 7320 19 male L 1 2 22 moralOther moralOther match n n 1 0.5242 
17-May-2018_16:29:26 Exp 7320 19 male L 1 2 23 moralOther immoralSelf mismatch m m 1 0.4364 
17-May-2018_16:29:28 Exp 7320 19 male L 1 2 24 immoralOther immoralOther match n n 1 0.4944 
Date Prac Sub Age Sex Hand Block Bin Trial Shape Label Match CorrResp Resp ACC RT
17-May-2018_16:34:16 Exp 7320 19 male L 1 1 1 moralOther moralSelf mismatch m m 1 0.6389 
17-May-2018_16:34:18 Exp 7320 19 male L 1 1 2 moralOther moralOther match n n 1 0.4949 
17-May-2018_16:34:20 Exp 7320 19 male L 1 1 3 immoralOther immoralSelf mismatch m m 1 0.5251 
17-May-2018_16:34:22 Exp 7320 19 male L 1 1 4 moralSelf moralSelf match n n 1 0.5095 
17-May-2018_16:34:25 Exp 7320 19 male L 1 1 5 immoralSelf immoralSelf match n m 0 0.6713 
17-May-2018_16:34:27 Exp 7320 19 male L 1 1 6 moralOther moralOther match n n 1 0.5935 
17-May-2018_16:34:29 Exp 7320 19 male L 1 1 7 moralSelf moralSelf match n n 1 0.5875 
17-May-2018_16:34:31 Exp 7320 19 male L 1 1 8 immoralOther immoralOther match n m 0 0.6137 
17-May-2018_16:34:33 Exp 7320 19 male L 1 1 9 immoralSelf moralSelf mismatch m m 1 0.7717 
17-May-2018_16:34:35 Exp 7320 19 male L 1 1 10 immoralSelf immoralSelf match n n 1 0.5938 
17-May-2018_16:34:37 Exp 7320 19 male L 1 1 11 moralSelf immoralSelf mismatch m m 1 0.6520 
17-May-2018_16:34:39 Exp 7320 19 male L 1 1 12 moralOther immoralOther mismatch m n 0 0.6101 
17-May-2018_16:34:41 Exp 7320 19 male L 1 1 13 moralSelf immoralSelf mismatch m m 1 0.6642 
17-May-2018_16:34:44 Exp 7320 19 male L 1 1 14 immoralOther moralOther mismatch m n 0 0.6043 
17-May-2018_16:34:46 Exp 7320 19 male L 1 1 15 immoralSelf moralOther mismatch m m 1 0.7085 
17-May-2018_16:34:48 Exp 7320 19 male L 1 1 16 immoralSelf immoralOther mismatch m NA -1 1.0170 
17-May-2018_16:34:50 Exp 7320 19 male L 1 1 17 moralSelf immoralSelf mismatch m m 1 0.6527 
17-May-2018_16:34:52 Exp 7320 19 male L 1 1 18 immoralOther immoralOther match n n 1 0.5948 
17-May-2018_16:34:55 Exp 7320 19 male L 1 1 19 immoralOther immoralSelf mismatch m m 1 0.8133 
17-May-2018_16:34:57 Exp 7320 19 male L 1 1 20 moralOther immoralOther mismatch m m 1 0.7791 
17-May-2018_16:34:59 Exp 7320 19 male L 1 1 21 immoralSelf immoralSelf match n m 0 0.8393 
17-May-2018_16:35:01 Exp 7320 19 male L 1 1 22 moralSelf moralSelf match n n 1 0.6634 
17-May-2018_16:35:04 Exp 7320 19 male L 1 1 23 moralOther moralOther match n n 1 0.7073 
17-May-2018_16:35:06 Exp 7320 19 male L 1 1 24 immoralOther immoralOther match n n 1 0.6536 
17-May-2018_16:35:08 Exp 7320 19 male L 1 2 1 moralOther moralOther match n n 1 0.7397 
17-May-2018_16:35:10 Exp 7320 19 male L 1 2 2 moralSelf moralSelf match n n 1 0.7119 
17-May-2018_16:35:12 Exp 7320 19 male L 1 2 3 moralOther immoralSelf mismatch m m 1 0.7780 
17-May-2018_16:35:15 Exp 7320 19 male L 1 2 4 moralSelf immoralSelf mismatch m m 1 0.8301 
17-May-2018_16:35:17 Exp 7320 19 male L 1 2 5 immoralOther immoralOther match n n 1 0.6082 
17-May-2018_16:35:19 Exp 7320 19 male L 1 2 6 moralOther moralOther match n m 0 0.6304 
17-May-2018_16:35:21 Exp 7320 19 male L 1 2 7 moralSelf moralSelf match n n 1 0.5765 
17-May-2018_16:35:23 Exp 7320 19 male L 1 2 8 immoralSelf immoralSelf match n m 0 0.8546 
17-May-2018_16:35:25 Exp 7320 19 male L 1 2 9 moralOther immoralSelf mismatch m n 0 0.6848 
17-May-2018_16:35:27 Exp 7320 19 male L 1 2 10 immoralOther immoralOther match n n 1 0.5649 
17-May-2018_16:35:30 Exp 7320 19 male L 1 2 11 immoralOther moralSelf mismatch m m 1 0.6530 
17-May-2018_16:35:32 Exp 7320 19 male L 1 2 12 immoralOther moralSelf mismatch m m 1 0.6751 
17-May-2018_16:35:34 Exp 7320 19 male L 1 2 13 immoralOther moralSelf mismatch m m 1 0.6851 
17-May-2018_16:35:36 Exp 7320 19 male L 1 2 14 moralSelf moralSelf match n n 1 0.6533 
17-May-2018_16:35:38 Exp 7320 19 male L 1 2 15 immoralOther immoralOther match n m 0 0.6274 
17-May-2018_16:35:40 Exp 7320 19 male L 1 2 16 moralSelf immoralOther mismatch m m 1 0.6136 
17-May-2018_16:35:42 Exp 7320 19 male L 1 2 17 moralOther moralOther match n n 1 0.5637 
17-May-2018_16:35:44 Exp 7320 19 male L 1 2 18 immoralSelf moralOther mismatch m m 1 0.6278 
17-May-2018_16:35:47 Exp 7320 19 male L 1 2 19 moralSelf immoralSelf mismatch m n 0 0.6379 
17-May-2018_16:35:49 Exp 7320 19 male L 1 2 20 immoralSelf moralSelf mismatch m m 1 0.8461 
17-May-2018_16:35:51 Exp 7320 19 male L 1 2 21 immoralSelf immoralSelf match n n 1 1.0141 
17-May-2018_16:35:54 Exp 7320 19 male L 1 2 22 moralOther moralSelf mismatch m n 0 0.8603 
17-May-2018_16:35:56 Exp 7320 19 male L 1 2 23 immoralSelf immoralSelf match n n 1 0.7046 
17-May-2018_16:35:58 Exp 7320 19 male L 1 2 24 immoralSelf moralOther mismatch m m 1 0.7806 
Date Prac Sub Age Sex Hand Block Bin Trial Shape Label Match CorrResp Resp ACC RT
17-May-2018_16:40:00 Exp 7320 19 male L 1 1 1 moralSelf moralOther mismatch m m 1 0.6523 
17-May-2018_16:40:02 Exp 7320 19 male L 1 1 2 immoralSelf immoralSelf match n n 1 0.5704 
17-May-2018_16:40:04 Exp 7320 19 male L 1 1 3 moralSelf immoralSelf mismatch m m 1 0.5685 
17-May-2018_16:40:07 Exp 7320 19 male L 1 1 4 moralOther moralSelf mismatch m m 1 0.7427 
17-May-2018_16:40:09 Exp 7320 19 male L 1 1 5 immoralOther immoralSelf mismatch m m 1 0.7388 
17-May-2018_16:40:11 Exp 7320 19 male L 1 1 6 moralOther moralSelf mismatch m m 1 0.8149 
17-May-2018_16:40:13 Exp 7320 19 male L 1 1 7 immoralSelf moralSelf mismatch m m 1 0.6690 
17-May-2018_16:40:15 Exp 7320 19 male L 1 1 8 moralOther moralSelf mismatch m m 1 0.7432 
17-May-2018_16:40:18 Exp 7320 19 male L 1 1 9 immoralSelf immoralSelf match n n 1 0.6754 
17-May-2018_16:40:20 Exp 7320 19 male L 1 1 10 immoralOther immoralSelf mismatch m m 1 0.7574 
17-May-2018_16:40:22 Exp 7320 19 male L 1 1 11 immoralOther immoralOther match n n 1 0.6294 
17-May-2018_16:40:24 Exp 7320 19 male L 1 1 12 immoralSelf moralOther mismatch m m 1 0.7196 
17-May-2018_16:40:26 Exp 7320 19 male L 1 1 13 immoralOther moralSelf mismatch m m 1 0.6558 
17-May-2018_16:40:28 Exp 7320 19 male L 1 1 14 moralOther moralOther match n m 0 0.6779 
17-May-2018_16:40:31 Exp 7320 19 male L 1 1 15 immoralSelf immoralSelf match n n 1 0.7100 
17-May-2018_16:40:33 Exp 7320 19 male L 1 1 16 moralSelf immoralOther mismatch m m 1 0.6562 
17-May-2018_16:40:35 Exp 7320 19 male L 1 1 17 immoralOther immoralOther match n n 1 0.6062 
17-May-2018_16:40:37 Exp 7320 19 male L 1 1 18 immoralSelf moralSelf mismatch m n 0 0.7583 
17-May-2018_16:40:39 Exp 7320 19 male L 1 1 19 moralSelf moralSelf match n n 1 0.7345 
17-May-2018_16:40:41 Exp 7320 19 male L 1 1 20 immoralOther immoralOther match n n 1 0.7007 
17-May-2018_16:40:44 Exp 7320 19 male L 1 1 21 moralSelf moralSelf match n n 1 0.6088 
17-May-2018_16:40:46 Exp 7320 19 male L 1 1 22 moralOther moralOther match n n 1 0.8149 
17-May-2018_16:40:48 Exp 7320 19 male L 1 1 23 moralOther moralOther match n n 1 0.5490 
17-May-2018_16:40:50 Exp 7320 19 male L 1 1 24 moralSelf moralSelf match n n 1 0.6071 
17-May-2018_16:40:52 Exp 7320 19 male L 1 2 1 moralSelf moralSelf match n n 1 0.5113 
17-May-2018_16:40:54 Exp 7320 19 male L 1 2 2 moralOther moralSelf mismatch m m 1 0.6493 
17-May-2018_16:40:56 Exp 7320 19 male L 1 2 3 immoralOther immoralOther match n n 1 0.5275 
17-May-2018_16:40:58 Exp 7320 19 male L 1 2 4 immoralSelf immoralOther mismatch m m 1 0.6216 
17-May-2018_16:41:00 Exp 7320 19 male L 1 2 5 moralSelf immoralOther mismatch m m 1 0.6657 
17-May-2018_16:41:02 Exp 7320 19 male L 1 2 6 moralSelf moralSelf match n m 0 0.6059 
17-May-2018_16:41:04 Exp 7320 19 male L 1 2 7 moralOther moralOther match n n 1 0.4300 
17-May-2018_16:41:06 Exp 7320 19 male L 1 2 8 immoralOther immoralOther match n n 1 0.6241 
17-May-2018_16:41:08 Exp 7320 19 male L 1 2 9 moralSelf moralSelf match n n 1 0.5082 
17-May-2018_16:41:11 Exp 7320 19 male L 1 2 10 immoralSelf immoralSelf match n n 1 0.6942 
17-May-2018_16:41:13 Exp 7320 19 male L 1 2 11 immoralSelf immoralSelf match n n 1 0.6445 
17-May-2018_16:41:15 Exp 7320 19 male L 1 2 12 immoralOther moralOther mismatch m m 1 0.8444 
17-May-2018_16:41:17 Exp 7320 19 male L 1 2 13 moralOther moralOther match n n 1 0.5806 
17-May-2018_16:41:19 Exp 7320 19 male L 1 2 14 moralSelf immoralOther mismatch m n 0 0.7528 
17-May-2018_16:41:21 Exp 7320 19 male L 1 2 15 immoralSelf immoralSelf match n n 1 0.6189 
17-May-2018_16:41:24 Exp 7320 19 male L 1 2 16 immoralOther immoralSelf mismatch m m 1 0.6470 
17-May-2018_16:41:26 Exp 7320 19 male L 1 2 17 immoralOther immoralOther match n n 1 0.6151 
17-May-2018_16:41:28 Exp 7320 19 male L 1 2 18 moralOther immoralSelf mismatch m m 1 0.6452 
17-May-2018_16:41:30 Exp 7320 19 male L 1 2 19 moralOther immoralOther mismatch m n 0 0.5654 
17-May-2018_16:41:32 Exp 7320 19 male L 1 2 20 immoralSelf immoralOther mismatch m m 1 0.7575 
17-May-2018_16:41:34 Exp 7320 19 male L 1 2 21 immoralSelf moralSelf mismatch m m 1 0.7816 
17-May-2018_16:41:36 Exp 7320 19 male L 1 2 22 moralSelf moralOther mismatch m m 1 0.7057 
17-May-2018_16:41:39 Exp 7320 19 male L 1 2 23 moralOther moralOther match n n 1 0.7899 
17-May-2018_16:41:41 Exp 7320 19 male L 1 2 24 immoralOther moralSelf mismatch m m 1 0.6880 
