Date Prac Sub Age Sex Hand Block Bin Trial Shape Label Match CorrResp Resp ACC RT
05-Jun-2018_15:35:22 Exp 7342 18 female R 1 1 1 immoralSelf immoralSelf match m m 1 0.7922 
05-Jun-2018_15:35:24 Exp 7342 18 female R 1 1 2 immoralOther immoralSelf mismatch n n 1 0.6827 
05-Jun-2018_15:35:26 Exp 7342 18 female R 1 1 3 immoralSelf immoralOther mismatch n m 0 0.7191 
05-Jun-2018_15:35:29 Exp 7342 18 female R 1 1 4 immoralOther moralOther mismatch n NA -1 1.0731 
05-Jun-2018_15:35:31 Exp 7342 18 female R 1 1 5 moralSelf immoralOther mismatch n n 1 0.7602 
05-Jun-2018_15:35:34 Exp 7342 18 female R 1 1 6 immoralSelf moralOther mismatch n n 1 0.7419 
05-Jun-2018_15:35:36 Exp 7342 18 female R 1 1 7 moralSelf immoralOther mismatch n n 1 0.7274 
05-Jun-2018_15:35:38 Exp 7342 18 female R 1 1 8 immoralOther immoralOther match m m 1 0.7967 
05-Jun-2018_15:35:40 Exp 7342 18 female R 1 1 9 moralSelf moralSelf match m n 0 0.6151 
05-Jun-2018_15:35:42 Exp 7342 18 female R 1 1 10 immoralOther immoralSelf mismatch n n 1 0.5540 
05-Jun-2018_15:35:45 Exp 7342 18 female R 1 1 11 immoralSelf immoralSelf match m m 1 0.7198 
05-Jun-2018_15:35:47 Exp 7342 18 female R 1 1 12 moralOther moralOther match m m 1 0.5369 
05-Jun-2018_15:35:49 Exp 7342 18 female R 1 1 13 moralOther immoralSelf mismatch n n 1 0.4461 
05-Jun-2018_15:35:51 Exp 7342 18 female R 1 1 14 moralOther moralOther match m m 1 0.5097 
05-Jun-2018_15:35:53 Exp 7342 18 female R 1 1 15 moralOther moralOther match m m 1 0.5705 
05-Jun-2018_15:35:55 Exp 7342 18 female R 1 1 16 immoralSelf moralSelf mismatch n n 1 0.4686 
05-Jun-2018_15:35:57 Exp 7342 18 female R 1 1 17 moralOther moralSelf mismatch n m 0 0.4606 
05-Jun-2018_15:35:59 Exp 7342 18 female R 1 1 18 immoralSelf immoralSelf match m n 0 0.6644 
05-Jun-2018_15:36:01 Exp 7342 18 female R 1 1 19 moralSelf moralSelf match m m 1 0.5323 
05-Jun-2018_15:36:03 Exp 7342 18 female R 1 1 20 moralOther moralSelf mismatch n m 0 0.4976 
05-Jun-2018_15:36:05 Exp 7342 18 female R 1 1 21 immoralOther immoralOther match m m 1 0.7621 
05-Jun-2018_15:36:08 Exp 7342 18 female R 1 1 22 moralSelf moralSelf match m n 0 0.7081 
05-Jun-2018_15:36:10 Exp 7342 18 female R 1 1 23 moralSelf moralOther mismatch n m 0 0.5048 
05-Jun-2018_15:36:12 Exp 7342 18 female R 1 1 24 immoralOther immoralOther match m m 1 0.8776 
05-Jun-2018_15:36:14 Exp 7342 18 female R 1 2 1 moralSelf moralOther mismatch n m 0 0.6217 
05-Jun-2018_15:36:16 Exp 7342 18 female R 1 2 2 moralOther immoralSelf mismatch n m 0 0.2929 
05-Jun-2018_15:36:18 Exp 7342 18 female R 1 2 3 immoralOther moralOther mismatch n m 0 0.6535 
05-Jun-2018_15:36:20 Exp 7342 18 female R 1 2 4 moralSelf moralSelf match m m 1 0.5650 
05-Jun-2018_15:36:22 Exp 7342 18 female R 1 2 5 immoralOther moralSelf mismatch n n 1 0.4711 
05-Jun-2018_15:36:24 Exp 7342 18 female R 1 2 6 immoralSelf immoralOther mismatch n m 0 0.5592 
05-Jun-2018_15:36:27 Exp 7342 18 female R 1 2 7 moralSelf moralSelf match m m 1 0.8048 
05-Jun-2018_15:36:29 Exp 7342 18 female R 1 2 8 immoralOther immoralOther match m n 0 0.4755 
05-Jun-2018_15:36:31 Exp 7342 18 female R 1 2 9 immoralSelf immoralSelf match m n 0 0.5556 
05-Jun-2018_15:36:33 Exp 7342 18 female R 1 2 10 immoralSelf immoralSelf match m m 1 0.3854 
05-Jun-2018_15:36:35 Exp 7342 18 female R 1 2 11 moralOther moralOther match m m 1 0.3958 
05-Jun-2018_15:36:37 Exp 7342 18 female R 1 2 12 immoralOther immoralSelf mismatch n n 1 0.5822 
05-Jun-2018_15:36:39 Exp 7342 18 female R 1 2 13 immoralOther immoralOther match m n 0 0.5564 
05-Jun-2018_15:36:41 Exp 7342 18 female R 1 2 14 moralSelf moralOther mismatch n m 0 0.5702 
05-Jun-2018_15:36:43 Exp 7342 18 female R 1 2 15 immoralSelf moralOther mismatch n n 1 0.5321 
05-Jun-2018_15:36:45 Exp 7342 18 female R 1 2 16 moralOther immoralOther mismatch n n 1 0.5774 
05-Jun-2018_15:36:47 Exp 7342 18 female R 1 2 17 immoralOther immoralOther match m n 0 0.4236 
05-Jun-2018_15:36:49 Exp 7342 18 female R 1 2 18 moralSelf moralSelf match m m 1 0.5987 
05-Jun-2018_15:36:51 Exp 7342 18 female R 1 2 19 moralOther moralOther match m m 1 0.5014 
05-Jun-2018_15:36:53 Exp 7342 18 female R 1 2 20 moralOther immoralOther mismatch n n 1 0.5020 
05-Jun-2018_15:36:55 Exp 7342 18 female R 1 2 21 immoralSelf immoralSelf match m m 1 0.7266 
05-Jun-2018_15:36:57 Exp 7342 18 female R 1 2 22 immoralSelf immoralOther mismatch n m 0 0.4438 
05-Jun-2018_15:36:59 Exp 7342 18 female R 1 2 23 moralSelf immoralSelf mismatch n m 0 0.5592 
05-Jun-2018_15:37:02 Exp 7342 18 female R 1 2 24 moralOther moralOther match m m 1 0.6049 
05-Jun-2018_15:37:04 Exp 7342 18 female R 1 3 1 immoralSelf immoralOther mismatch n n 1 0.5236 
05-Jun-2018_15:37:06 Exp 7342 18 female R 1 3 2 immoralOther moralOther mismatch n n 1 0.7086 
05-Jun-2018_15:37:08 Exp 7342 18 female R 1 3 3 moralOther moralOther match m m 1 0.5294 
05-Jun-2018_15:37:10 Exp 7342 18 female R 1 3 4 moralSelf moralSelf match m m 1 0.5987 
05-Jun-2018_15:37:12 Exp 7342 18 female R 1 3 5 moralOther moralOther match m m 1 0.5014 
05-Jun-2018_15:37:14 Exp 7342 18 female R 1 3 6 immoralSelf immoralSelf match m n 0 0.4779 
05-Jun-2018_15:37:16 Exp 7342 18 female R 1 3 7 immoralSelf immoralSelf match m m 1 0.5100 
05-Jun-2018_15:37:18 Exp 7342 18 female R 1 3 8 moralSelf moralSelf match m m 1 0.5627 
05-Jun-2018_15:37:20 Exp 7342 18 female R 1 3 9 immoralOther immoralOther match m n 0 0.6607 
05-Jun-2018_15:37:22 Exp 7342 18 female R 1 3 10 moralSelf moralSelf match m m 1 0.5366 
05-Jun-2018_15:37:24 Exp 7342 18 female R 1 3 11 moralOther immoralOther mismatch n n 1 0.4859 
05-Jun-2018_15:37:27 Exp 7342 18 female R 1 3 12 immoralOther immoralOther match m m 1 0.6502 
05-Jun-2018_15:37:29 Exp 7342 18 female R 1 3 13 immoralSelf immoralSelf match m m 1 0.8179 
05-Jun-2018_15:37:31 Exp 7342 18 female R 1 3 14 moralOther moralSelf mismatch n m 0 0.5327 
05-Jun-2018_15:37:33 Exp 7342 18 female R 1 3 15 immoralOther immoralOther match m m 1 0.7299 
05-Jun-2018_15:37:36 Exp 7342 18 female R 1 3 16 moralSelf immoralSelf mismatch n n 1 0.7592 
05-Jun-2018_15:37:38 Exp 7342 18 female R 1 3 17 immoralSelf moralSelf mismatch n m 0 0.7650 
05-Jun-2018_15:37:40 Exp 7342 18 female R 1 3 18 moralOther moralOther match m m 1 0.5510 
05-Jun-2018_15:37:42 Exp 7342 18 female R 1 3 19 immoralOther moralSelf mismatch n n 1 0.7087 
05-Jun-2018_15:37:44 Exp 7342 18 female R 1 3 20 immoralOther moralSelf mismatch n n 1 0.7215 
05-Jun-2018_15:37:46 Exp 7342 18 female R 1 3 21 moralSelf moralOther mismatch n m 0 0.5145 
05-Jun-2018_15:37:49 Exp 7342 18 female R 1 3 22 immoralSelf immoralOther mismatch n m 0 0.5673 
05-Jun-2018_15:37:50 Exp 7342 18 female R 1 3 23 moralSelf immoralSelf mismatch n n 1 0.3773 
05-Jun-2018_15:37:53 Exp 7342 18 female R 1 3 24 moralOther immoralOther mismatch n m 0 0.5195 
05-Jun-2018_15:38:12 Exp 7342 18 female R 1 4 1 immoralOther moralSelf mismatch n NA -1 1.0731 
05-Jun-2018_15:38:14 Exp 7342 18 female R 1 4 2 moralOther moralSelf mismatch n m 0 0.5782 
05-Jun-2018_15:38:16 Exp 7342 18 female R 1 4 3 immoralSelf immoralOther mismatch n n 1 0.8884 
05-Jun-2018_15:38:19 Exp 7342 18 female R 1 4 4 moralOther moralOther match m m 1 0.5648 
05-Jun-2018_15:38:21 Exp 7342 18 female R 1 4 5 immoralOther immoralOther match m n 0 0.4948 
05-Jun-2018_15:38:23 Exp 7342 18 female R 1 4 6 immoralSelf immoralSelf match m m 1 0.6488 
05-Jun-2018_15:38:25 Exp 7342 18 female R 1 4 7 moralSelf immoralSelf mismatch n n 1 0.6404 
05-Jun-2018_15:38:27 Exp 7342 18 female R 1 4 8 moralOther moralSelf mismatch n m 0 0.5238 
05-Jun-2018_15:38:29 Exp 7342 18 female R 1 4 9 moralOther moralSelf mismatch n n 1 0.6609 
05-Jun-2018_15:38:32 Exp 7342 18 female R 1 4 10 moralSelf immoralOther mismatch n n 1 0.8248 
05-Jun-2018_15:38:34 Exp 7342 18 female R 1 4 11 immoralSelf immoralSelf match m m 1 1.0318 
05-Jun-2018_15:38:36 Exp 7342 18 female R 1 4 12 immoralSelf immoralSelf match m m 1 0.6069 
05-Jun-2018_15:38:38 Exp 7342 18 female R 1 4 13 immoralOther moralSelf mismatch n n 1 0.6376 
05-Jun-2018_15:38:41 Exp 7342 18 female R 1 4 14 immoralOther immoralOther match m m 1 0.7051 
05-Jun-2018_15:38:43 Exp 7342 18 female R 1 4 15 immoralSelf moralSelf mismatch n n 1 0.6138 
05-Jun-2018_15:38:45 Exp 7342 18 female R 1 4 16 moralSelf moralSelf match m m 1 0.5767 
05-Jun-2018_15:38:47 Exp 7342 18 female R 1 4 17 moralSelf immoralSelf mismatch n n 1 0.6710 
05-Jun-2018_15:38:49 Exp 7342 18 female R 1 4 18 moralSelf moralSelf match m n 0 0.5670 
05-Jun-2018_15:38:52 Exp 7342 18 female R 1 4 19 immoralSelf immoralOther mismatch n NA -1 1.0731 
05-Jun-2018_15:38:54 Exp 7342 18 female R 1 4 20 immoralOther moralSelf mismatch n n 1 0.6571 
05-Jun-2018_15:38:56 Exp 7342 18 female R 1 4 21 moralOther moralOther match m m 1 0.6130 
05-Jun-2018_15:38:58 Exp 7342 18 female R 1 4 22 moralSelf moralSelf match m m 1 0.7840 
05-Jun-2018_15:39:01 Exp 7342 18 female R 1 4 23 immoralOther immoralOther match m m 1 0.7581 
05-Jun-2018_15:39:03 Exp 7342 18 female R 1 4 24 moralOther moralOther match m m 1 0.6998 
05-Jun-2018_15:39:05 Exp 7342 18 female R 1 5 1 immoralOther immoralSelf mismatch n m 0 0.9004 
05-Jun-2018_15:39:07 Exp 7342 18 female R 1 5 2 moralSelf moralSelf match m m 1 0.5250 
05-Jun-2018_15:39:10 Exp 7342 18 female R 1 5 3 moralSelf immoralSelf mismatch n n 1 0.7100 
05-Jun-2018_15:39:12 Exp 7342 18 female R 1 5 4 moralOther moralOther match m m 1 0.5468 
05-Jun-2018_15:39:14 Exp 7342 18 female R 1 5 5 moralOther immoralSelf mismatch n n 1 0.5883 
05-Jun-2018_15:39:16 Exp 7342 18 female R 1 5 6 moralOther immoralSelf mismatch n n 1 0.5668 
05-Jun-2018_15:39:18 Exp 7342 18 female R 1 5 7 moralSelf immoralOther mismatch n n 1 0.7286 
05-Jun-2018_15:39:21 Exp 7342 18 female R 1 5 8 immoralSelf immoralSelf match m m 1 0.9980 
05-Jun-2018_15:39:23 Exp 7342 18 female R 1 5 9 immoralSelf moralOther mismatch n n 1 0.7087 
05-Jun-2018_15:39:25 Exp 7342 18 female R 1 5 10 immoralOther immoralSelf mismatch n m 0 0.7854 
05-Jun-2018_15:39:27 Exp 7342 18 female R 1 5 11 moralOther moralOther match m m 1 0.5239 
05-Jun-2018_15:39:30 Exp 7342 18 female R 1 5 12 immoralOther immoralOther match m m 1 0.7729 
05-Jun-2018_15:39:32 Exp 7342 18 female R 1 5 13 immoralSelf immoralOther mismatch n n 1 0.6789 
05-Jun-2018_15:39:34 Exp 7342 18 female R 1 5 14 moralOther moralOther match m m 1 0.5751 
05-Jun-2018_15:39:36 Exp 7342 18 female R 1 5 15 immoralOther immoralOther match m m 1 0.6052 
05-Jun-2018_15:39:38 Exp 7342 18 female R 1 5 16 moralSelf moralSelf match m m 1 0.6439 
05-Jun-2018_15:39:41 Exp 7342 18 female R 1 5 17 immoralSelf immoralOther mismatch n n 1 0.7993 
05-Jun-2018_15:39:43 Exp 7342 18 female R 1 5 18 immoralOther moralSelf mismatch n m 0 0.4220 
05-Jun-2018_15:39:45 Exp 7342 18 female R 1 5 19 immoralSelf immoralSelf match m n 0 0.8531 
05-Jun-2018_15:39:47 Exp 7342 18 female R 1 5 20 moralOther immoralOther mismatch n n 1 0.5327 
05-Jun-2018_15:39:49 Exp 7342 18 female R 1 5 21 moralSelf moralSelf match m m 1 0.6100 
05-Jun-2018_15:39:51 Exp 7342 18 female R 1 5 22 immoralSelf immoralSelf match m n 0 0.6289 
05-Jun-2018_15:39:53 Exp 7342 18 female R 1 5 23 immoralOther immoralOther match m n 0 0.5961 
05-Jun-2018_15:39:56 Exp 7342 18 female R 1 5 24 moralSelf immoralOther mismatch n n 1 0.9505 
05-Jun-2018_15:40:01 Exp 7342 18 female R 2 1 1 moralOther moralOther match m NA -1 1.0731 
05-Jun-2018_15:40:04 Exp 7342 18 female R 2 1 2 immoralSelf moralOther mismatch n n 1 0.5649 
05-Jun-2018_15:40:06 Exp 7342 18 female R 2 1 3 moralSelf immoralSelf mismatch n n 1 0.5669 
05-Jun-2018_15:40:08 Exp 7342 18 female R 2 1 4 immoralOther immoralSelf mismatch n m 0 0.6329 
05-Jun-2018_15:40:10 Exp 7342 18 female R 2 1 5 moralSelf moralSelf match m m 1 0.5163 
05-Jun-2018_15:40:12 Exp 7342 18 female R 2 1 6 immoralSelf immoralOther mismatch n m 0 0.6053 
05-Jun-2018_15:40:14 Exp 7342 18 female R 2 1 7 moralSelf moralOther mismatch n m 0 0.6920 
05-Jun-2018_15:40:16 Exp 7342 18 female R 2 1 8 moralOther immoralSelf mismatch n n 1 0.6765 
05-Jun-2018_15:40:19 Exp 7342 18 female R 2 1 9 moralOther moralSelf mismatch n m 0 0.6126 
05-Jun-2018_15:40:21 Exp 7342 18 female R 2 1 10 moralSelf moralSelf match m m 1 0.5916 
05-Jun-2018_15:40:23 Exp 7342 18 female R 2 1 11 immoralSelf immoralSelf match m n 0 0.5061 
05-Jun-2018_15:40:25 Exp 7342 18 female R 2 1 12 moralOther immoralOther mismatch n n 1 0.6468 
05-Jun-2018_15:40:27 Exp 7342 18 female R 2 1 13 moralSelf moralSelf match m m 1 0.6144 
05-Jun-2018_15:40:30 Exp 7342 18 female R 2 1 14 immoralSelf immoralSelf match m m 1 1.0253 
05-Jun-2018_15:40:32 Exp 7342 18 female R 2 1 15 moralOther moralOther match m m 1 0.5045 
05-Jun-2018_15:40:34 Exp 7342 18 female R 2 1 16 immoralOther immoralOther match m m 1 0.6693 
05-Jun-2018_15:40:36 Exp 7342 18 female R 2 1 17 immoralSelf moralSelf mismatch n m 0 0.7333 
05-Jun-2018_15:40:38 Exp 7342 18 female R 2 1 18 immoralOther immoralOther match m m 1 0.6826 
05-Jun-2018_15:40:40 Exp 7342 18 female R 2 1 19 moralOther moralOther match m m 1 0.4950 
05-Jun-2018_15:40:43 Exp 7342 18 female R 2 1 20 immoralSelf immoralSelf match m m 1 0.7515 
05-Jun-2018_15:40:45 Exp 7342 18 female R 2 1 21 moralSelf moralOther mismatch n m 0 0.4933 
05-Jun-2018_15:40:47 Exp 7342 18 female R 2 1 22 immoralOther immoralOther match m m 1 0.6459 
05-Jun-2018_15:40:49 Exp 7342 18 female R 2 1 23 immoralOther moralSelf mismatch n n 1 0.6614 
05-Jun-2018_15:40:51 Exp 7342 18 female R 2 1 24 immoralOther moralSelf mismatch n n 1 0.7933 
05-Jun-2018_15:40:54 Exp 7342 18 female R 2 2 1 immoralSelf immoralSelf match m m 1 0.9158 
05-Jun-2018_15:40:56 Exp 7342 18 female R 2 2 2 immoralOther immoralOther match m m 1 0.7648 
05-Jun-2018_15:40:58 Exp 7342 18 female R 2 2 3 immoralSelf immoralOther mismatch n n 1 0.7828 
05-Jun-2018_15:41:01 Exp 7342 18 female R 2 2 4 moralSelf moralOther mismatch n m 0 0.6531 
05-Jun-2018_15:41:03 Exp 7342 18 female R 2 2 5 immoralSelf immoralSelf match m n 0 0.5806 
05-Jun-2018_15:41:05 Exp 7342 18 female R 2 2 6 immoralOther immoralOther match m m 1 0.6748 
05-Jun-2018_15:41:07 Exp 7342 18 female R 2 2 7 immoralSelf immoralSelf match m m 1 0.9388 
05-Jun-2018_15:41:09 Exp 7342 18 female R 2 2 8 moralOther moralOther match m m 1 0.4764 
05-Jun-2018_15:41:11 Exp 7342 18 female R 2 2 9 moralOther moralSelf mismatch n n 1 0.5965 
05-Jun-2018_15:41:14 Exp 7342 18 female R 2 2 10 immoralOther moralOther mismatch n n 1 0.6869 
05-Jun-2018_15:41:16 Exp 7342 18 female R 2 2 11 immoralOther immoralSelf mismatch n n 1 0.8672 
05-Jun-2018_15:41:19 Exp 7342 18 female R 2 2 12 moralSelf immoralSelf mismatch n NA -1 1.0731 
05-Jun-2018_15:41:21 Exp 7342 18 female R 2 2 13 immoralSelf immoralOther mismatch n n 1 0.6632 
05-Jun-2018_15:41:23 Exp 7342 18 female R 2 2 14 immoralOther immoralOther match m n 0 0.5471 
05-Jun-2018_15:41:25 Exp 7342 18 female R 2 2 15 immoralOther immoralSelf mismatch n n 1 0.7566 
05-Jun-2018_15:41:27 Exp 7342 18 female R 2 2 16 moralOther moralSelf mismatch n m 0 0.6424 
05-Jun-2018_15:41:29 Exp 7342 18 female R 2 2 17 moralSelf moralSelf match m n 0 0.5897 
05-Jun-2018_15:41:32 Exp 7342 18 female R 2 2 18 immoralSelf moralSelf mismatch n m 0 0.8562 
05-Jun-2018_15:41:34 Exp 7342 18 female R 2 2 19 moralOther moralOther match m m 1 0.6280 
05-Jun-2018_15:41:36 Exp 7342 18 female R 2 2 20 moralSelf moralSelf match m m 1 0.7871 
05-Jun-2018_15:41:38 Exp 7342 18 female R 2 2 21 moralOther moralOther match m m 1 0.5257 
05-Jun-2018_15:41:40 Exp 7342 18 female R 2 2 22 moralSelf moralSelf match m m 1 0.5266 
05-Jun-2018_15:41:42 Exp 7342 18 female R 2 2 23 moralOther moralSelf mismatch n m 0 0.4759 
05-Jun-2018_15:41:45 Exp 7342 18 female R 2 2 24 moralSelf immoralOther mismatch n n 1 0.6199 
05-Jun-2018_15:41:46 Exp 7342 18 female R 2 3 1 moralSelf moralSelf match m m 1 0.4309 
05-Jun-2018_15:41:49 Exp 7342 18 female R 2 3 2 immoralOther immoralOther match m m 1 0.6461 
05-Jun-2018_15:41:51 Exp 7342 18 female R 2 3 3 moralOther moralOther match m m 1 0.6456 
05-Jun-2018_15:41:53 Exp 7342 18 female R 2 3 4 immoralSelf moralOther mismatch n n 1 0.6533 
05-Jun-2018_15:41:55 Exp 7342 18 female R 2 3 5 immoralSelf immoralSelf match m m 1 0.9248 
05-Jun-2018_15:41:58 Exp 7342 18 female R 2 3 6 moralOther immoralSelf mismatch n n 1 0.6219 
05-Jun-2018_15:42:00 Exp 7342 18 female R 2 3 7 moralSelf moralSelf match m m 1 0.5491 
05-Jun-2018_15:42:02 Exp 7342 18 female R 2 3 8 immoralOther immoralSelf mismatch n n 1 0.5346 
05-Jun-2018_15:42:04 Exp 7342 18 female R 2 3 9 immoralOther immoralOther match m m 1 0.4758 
05-Jun-2018_15:42:06 Exp 7342 18 female R 2 3 10 moralOther moralOther match m m 1 0.5239 
05-Jun-2018_15:42:08 Exp 7342 18 female R 2 3 11 moralOther moralOther match m m 1 0.4769 
05-Jun-2018_15:42:10 Exp 7342 18 female R 2 3 12 immoralOther moralSelf mismatch n n 1 0.5730 
05-Jun-2018_15:42:12 Exp 7342 18 female R 2 3 13 immoralOther immoralOther match m n 0 0.5590 
05-Jun-2018_15:42:14 Exp 7342 18 female R 2 3 14 immoralSelf immoralSelf match m m 1 0.5168 
05-Jun-2018_15:42:16 Exp 7342 18 female R 2 3 15 moralSelf immoralOther mismatch n m 0 0.4298 
05-Jun-2018_15:42:18 Exp 7342 18 female R 2 3 16 moralOther moralSelf mismatch n n 1 0.6849 
05-Jun-2018_15:42:21 Exp 7342 18 female R 2 3 17 moralSelf moralSelf match m m 1 0.8092 
05-Jun-2018_15:42:23 Exp 7342 18 female R 2 3 18 immoralOther moralSelf mismatch n n 1 0.5740 
05-Jun-2018_15:42:25 Exp 7342 18 female R 2 3 19 immoralSelf immoralSelf match m n 0 0.4122 
05-Jun-2018_15:42:27 Exp 7342 18 female R 2 3 20 moralOther immoralSelf mismatch n n 1 0.5272 
05-Jun-2018_15:42:29 Exp 7342 18 female R 2 3 21 immoralSelf immoralOther mismatch n n 1 0.5964 
05-Jun-2018_15:42:31 Exp 7342 18 female R 2 3 22 immoralSelf moralSelf mismatch n n 1 0.4149 
05-Jun-2018_15:42:33 Exp 7342 18 female R 2 3 23 moralSelf immoralSelf mismatch n n 1 0.7378 
05-Jun-2018_15:42:35 Exp 7342 18 female R 2 3 24 moralSelf immoralSelf mismatch n n 1 0.6471 
05-Jun-2018_15:42:40 Exp 7342 18 female R 2 4 1 immoralOther moralSelf mismatch n NA -1 1.0731 
05-Jun-2018_15:42:42 Exp 7342 18 female R 2 4 2 immoralOther moralOther mismatch n n 1 0.6271 
05-Jun-2018_15:42:44 Exp 7342 18 female R 2 4 3 moralSelf moralSelf match m n 0 0.5062 
05-Jun-2018_15:42:47 Exp 7342 18 female R 2 4 4 immoralSelf immoralSelf match m m 1 0.9830 
05-Jun-2018_15:42:49 Exp 7342 18 female R 2 4 5 moralSelf moralSelf match m m 1 0.4612 
05-Jun-2018_15:42:51 Exp 7342 18 female R 2 4 6 moralSelf moralOther mismatch n m 0 0.6011 
05-Jun-2018_15:42:53 Exp 7342 18 female R 2 4 7 moralOther immoralSelf mismatch n n 1 0.4238 
05-Jun-2018_15:42:55 Exp 7342 18 female R 2 4 8 moralOther moralOther match m m 1 0.4789 
05-Jun-2018_15:42:57 Exp 7342 18 female R 2 4 9 moralSelf moralOther mismatch n m 0 0.4950 
05-Jun-2018_15:42:59 Exp 7342 18 female R 2 4 10 immoralSelf immoralSelf match m n 0 0.5595 
05-Jun-2018_15:43:01 Exp 7342 18 female R 2 4 11 moralSelf moralSelf match m m 1 0.4693 
05-Jun-2018_15:43:03 Exp 7342 18 female R 2 4 12 moralOther moralOther match m m 1 0.4853 
05-Jun-2018_15:43:05 Exp 7342 18 female R 2 4 13 immoralSelf moralOther mismatch n m 0 0.5057 
05-Jun-2018_15:43:07 Exp 7342 18 female R 2 4 14 immoralSelf moralSelf mismatch n n 1 0.7504 
05-Jun-2018_15:43:09 Exp 7342 18 female R 2 4 15 immoralOther immoralOther match m n 0 0.4842 
05-Jun-2018_15:43:11 Exp 7342 18 female R 2 4 16 immoralOther immoralOther match m m 1 0.4965 
05-Jun-2018_15:43:13 Exp 7342 18 female R 2 4 17 moralOther immoralOther mismatch n n 1 0.6252 
05-Jun-2018_15:43:15 Exp 7342 18 female R 2 4 18 immoralSelf moralOther mismatch n n 1 0.5363 
05-Jun-2018_15:43:17 Exp 7342 18 female R 2 4 19 moralSelf moralOther mismatch n m 0 0.6455 
05-Jun-2018_15:43:20 Exp 7342 18 female R 2 4 20 immoralSelf immoralSelf match m m 1 0.8931 
05-Jun-2018_15:43:22 Exp 7342 18 female R 2 4 21 immoralOther immoralOther match m m 1 0.6217 
05-Jun-2018_15:43:24 Exp 7342 18 female R 2 4 22 immoralOther immoralSelf mismatch n n 1 0.6768 
05-Jun-2018_15:43:26 Exp 7342 18 female R 2 4 23 moralOther moralOther match m m 1 0.5009 
05-Jun-2018_15:43:28 Exp 7342 18 female R 2 4 24 moralOther immoralOther mismatch n n 1 0.6055 
05-Jun-2018_15:43:31 Exp 7342 18 female R 2 5 1 moralSelf immoralSelf mismatch n n 1 0.7001 
05-Jun-2018_15:43:33 Exp 7342 18 female R 2 5 2 moralOther moralOther match m m 1 0.5248 
05-Jun-2018_15:43:35 Exp 7342 18 female R 2 5 3 moralSelf moralSelf match m m 1 0.8457 
05-Jun-2018_15:43:37 Exp 7342 18 female R 2 5 4 immoralSelf immoralSelf match m n 0 0.5814 
05-Jun-2018_15:43:39 Exp 7342 18 female R 2 5 5 moralOther immoralSelf mismatch n n 1 0.6356 
05-Jun-2018_15:43:41 Exp 7342 18 female R 2 5 6 immoralSelf immoralSelf match m m 1 0.6629 
05-Jun-2018_15:43:44 Exp 7342 18 female R 2 5 7 moralOther immoralOther mismatch n n 1 0.5468 
05-Jun-2018_15:43:46 Exp 7342 18 female R 2 5 8 moralOther moralOther match m m 1 0.5083 
05-Jun-2018_15:43:48 Exp 7342 18 female R 2 5 9 immoralOther immoralOther match m n 0 0.4891 
05-Jun-2018_15:43:50 Exp 7342 18 female R 2 5 10 immoralOther immoralSelf mismatch n m 0 0.8694 
05-Jun-2018_15:43:52 Exp 7342 18 female R 2 5 11 moralSelf moralOther mismatch n m 0 0.5976 
05-Jun-2018_15:43:55 Exp 7342 18 female R 2 5 12 immoralSelf immoralOther mismatch n n 1 1.0202 
05-Jun-2018_15:43:57 Exp 7342 18 female R 2 5 13 moralSelf moralSelf match m m 1 0.6951 
05-Jun-2018_15:43:59 Exp 7342 18 female R 2 5 14 moralSelf immoralOther mismatch n n 1 0.6556 
05-Jun-2018_15:44:01 Exp 7342 18 female R 2 5 15 moralSelf moralSelf match m m 1 0.5353 
05-Jun-2018_15:44:03 Exp 7342 18 female R 2 5 16 immoralSelf moralSelf mismatch n n 1 0.6526 
05-Jun-2018_15:44:06 Exp 7342 18 female R 2 5 17 immoralSelf moralSelf mismatch n n 1 0.7242 
05-Jun-2018_15:44:08 Exp 7342 18 female R 2 5 18 moralOther moralOther match m m 1 0.4852 
05-Jun-2018_15:44:10 Exp 7342 18 female R 2 5 19 moralOther immoralSelf mismatch n n 1 0.5536 
05-Jun-2018_15:44:12 Exp 7342 18 female R 2 5 20 immoralOther moralOther mismatch n n 1 0.7032 
05-Jun-2018_15:44:14 Exp 7342 18 female R 2 5 21 immoralOther immoralOther match m n 0 0.4360 
05-Jun-2018_15:44:16 Exp 7342 18 female R 2 5 22 immoralOther immoralSelf mismatch n n 1 0.6714 
05-Jun-2018_15:44:18 Exp 7342 18 female R 2 5 23 immoralOther immoralOther match m m 1 0.3196 
05-Jun-2018_15:44:20 Exp 7342 18 female R 2 5 24 immoralSelf immoralSelf match m n 0 0.5045 
05-Jun-2018_15:44:26 Exp 7342 18 female R 3 1 1 moralOther moralSelf mismatch n NA -1 1.0731 
05-Jun-2018_15:44:28 Exp 7342 18 female R 3 1 2 moralSelf moralSelf match m n 0 0.5500 
05-Jun-2018_15:44:30 Exp 7342 18 female R 3 1 3 immoralOther moralOther mismatch n n 1 0.6438 
05-Jun-2018_15:44:32 Exp 7342 18 female R 3 1 4 immoralSelf immoralOther mismatch n n 1 0.5513 
05-Jun-2018_15:44:34 Exp 7342 18 female R 3 1 5 immoralSelf moralSelf mismatch n NA -1 1.0731 
05-Jun-2018_15:44:37 Exp 7342 18 female R 3 1 6 moralSelf moralOther mismatch n m 0 0.5810 
05-Jun-2018_15:44:39 Exp 7342 18 female R 3 1 7 moralSelf moralSelf match m n 0 0.4912 
05-Jun-2018_15:44:41 Exp 7342 18 female R 3 1 8 moralOther immoralOther mismatch n n 1 0.6917 
05-Jun-2018_15:44:43 Exp 7342 18 female R 3 1 9 moralOther moralOther match m m 1 0.4523 
05-Jun-2018_15:44:45 Exp 7342 18 female R 3 1 10 moralOther immoralSelf mismatch n n 1 0.4439 
05-Jun-2018_15:44:47 Exp 7342 18 female R 3 1 11 moralSelf immoralOther mismatch n n 1 0.7353 
05-Jun-2018_15:44:49 Exp 7342 18 female R 3 1 12 immoralOther immoralOther match m n 0 0.5726 
05-Jun-2018_15:44:51 Exp 7342 18 female R 3 1 13 moralOther moralOther match m m 1 0.5505 
05-Jun-2018_15:44:53 Exp 7342 18 female R 3 1 14 immoralSelf immoralSelf match m n 0 0.5243 
05-Jun-2018_15:44:55 Exp 7342 18 female R 3 1 15 immoralOther immoralOther match m m 1 0.6534 
05-Jun-2018_15:44:58 Exp 7342 18 female R 3 1 16 immoralOther moralSelf mismatch n n 1 0.9889 
05-Jun-2018_15:45:00 Exp 7342 18 female R 3 1 17 immoralOther immoralOther match m m 1 0.8314 
05-Jun-2018_15:45:03 Exp 7342 18 female R 3 1 18 moralSelf moralOther mismatch n m 0 0.8786 
05-Jun-2018_15:45:05 Exp 7342 18 female R 3 1 19 immoralSelf immoralSelf match m m 1 0.8947 
05-Jun-2018_15:45:07 Exp 7342 18 female R 3 1 20 moralSelf moralSelf match m m 1 0.5912 
05-Jun-2018_15:45:10 Exp 7342 18 female R 3 1 21 immoralSelf immoralOther mismatch n m 0 0.7777 
05-Jun-2018_15:45:12 Exp 7342 18 female R 3 1 22 immoralOther immoralSelf mismatch n n 1 0.9198 
05-Jun-2018_15:45:14 Exp 7342 18 female R 3 1 23 immoralSelf immoralSelf match m m 1 0.8249 
05-Jun-2018_15:45:16 Exp 7342 18 female R 3 1 24 moralOther moralOther match m m 1 0.6161 
05-Jun-2018_15:45:19 Exp 7342 18 female R 3 2 1 immoralSelf immoralSelf match m n 0 0.6190 
05-Jun-2018_15:45:21 Exp 7342 18 female R 3 2 2 moralOther moralOther match m m 1 0.7979 
05-Jun-2018_15:45:23 Exp 7342 18 female R 3 2 3 immoralSelf immoralOther mismatch n n 1 0.6205 
05-Jun-2018_15:45:25 Exp 7342 18 female R 3 2 4 moralOther immoralOther mismatch n n 1 0.6598 
05-Jun-2018_15:45:28 Exp 7342 18 female R 3 2 5 immoralSelf immoralSelf match m n 0 0.7596 
05-Jun-2018_15:45:30 Exp 7342 18 female R 3 2 6 immoralSelf immoralSelf match m m 1 0.6213 
05-Jun-2018_15:45:32 Exp 7342 18 female R 3 2 7 immoralSelf immoralOther mismatch n n 1 0.6045 
05-Jun-2018_15:45:34 Exp 7342 18 female R 3 2 8 moralSelf moralSelf match m m 1 0.6272 
05-Jun-2018_15:45:36 Exp 7342 18 female R 3 2 9 moralSelf immoralOther mismatch n n 1 0.5143 
05-Jun-2018_15:45:38 Exp 7342 18 female R 3 2 10 immoralOther immoralOther match m m 1 0.6231 
05-Jun-2018_15:45:40 Exp 7342 18 female R 3 2 11 immoralOther immoralOther match m m 1 0.4863 
05-Jun-2018_15:45:43 Exp 7342 18 female R 3 2 12 moralSelf immoralSelf mismatch n m 0 0.8186 
05-Jun-2018_15:45:45 Exp 7342 18 female R 3 2 13 moralSelf moralOther mismatch n n 1 0.7175 
05-Jun-2018_15:45:47 Exp 7342 18 female R 3 2 14 moralOther moralSelf mismatch n m 0 0.5984 
05-Jun-2018_15:45:49 Exp 7342 18 female R 3 2 15 immoralSelf immoralOther mismatch n n 1 0.5652 
05-Jun-2018_15:45:51 Exp 7342 18 female R 3 2 16 moralSelf moralSelf match m m 1 0.5193 
05-Jun-2018_15:45:53 Exp 7342 18 female R 3 2 17 immoralOther moralOther mismatch n n 1 0.6482 
05-Jun-2018_15:45:56 Exp 7342 18 female R 3 2 18 moralOther moralOther match m m 1 0.7598 
05-Jun-2018_15:45:58 Exp 7342 18 female R 3 2 19 immoralOther moralOther mismatch n n 1 0.6935 
05-Jun-2018_15:46:00 Exp 7342 18 female R 3 2 20 moralSelf moralSelf match m m 1 0.7661 
05-Jun-2018_15:46:02 Exp 7342 18 female R 3 2 21 moralOther immoralOther mismatch n n 1 0.5201 
05-Jun-2018_15:46:04 Exp 7342 18 female R 3 2 22 immoralOther moralSelf mismatch n n 1 0.4651 
05-Jun-2018_15:46:06 Exp 7342 18 female R 3 2 23 moralOther moralOther match m m 1 0.7410 
05-Jun-2018_15:46:08 Exp 7342 18 female R 3 2 24 immoralOther immoralOther match m n 0 0.5584 
05-Jun-2018_15:46:11 Exp 7342 18 female R 3 3 1 immoralOther immoralOther match m m 1 0.6202 
05-Jun-2018_15:46:13 Exp 7342 18 female R 3 3 2 moralSelf moralSelf match m n 0 0.4951 
05-Jun-2018_15:46:15 Exp 7342 18 female R 3 3 3 immoralOther moralSelf mismatch n n 1 0.7437 
05-Jun-2018_15:46:17 Exp 7342 18 female R 3 3 4 moralOther immoralOther mismatch n n 1 0.6812 
05-Jun-2018_15:46:19 Exp 7342 18 female R 3 3 5 moralOther moralOther match m m 1 0.6616 
05-Jun-2018_15:46:22 Exp 7342 18 female R 3 3 6 immoralSelf moralSelf mismatch n n 1 0.7774 
05-Jun-2018_15:46:24 Exp 7342 18 female R 3 3 7 moralOther moralOther match m m 1 0.5355 
05-Jun-2018_15:46:26 Exp 7342 18 female R 3 3 8 immoralSelf immoralSelf match m n 0 0.7008 
05-Jun-2018_15:46:28 Exp 7342 18 female R 3 3 9 moralSelf immoralOther mismatch n n 1 0.8214 
05-Jun-2018_15:46:30 Exp 7342 18 female R 3 3 10 immoralOther immoralOther match m m 1 0.5565 
05-Jun-2018_15:46:33 Exp 7342 18 female R 3 3 11 moralOther moralOther match m m 1 0.6823 
05-Jun-2018_15:46:35 Exp 7342 18 female R 3 3 12 moralSelf moralSelf match m m 1 0.5906 
05-Jun-2018_15:46:37 Exp 7342 18 female R 3 3 13 moralSelf immoralSelf mismatch n n 1 0.6170 
05-Jun-2018_15:46:39 Exp 7342 18 female R 3 3 14 moralOther moralSelf mismatch n m 0 0.5720 
05-Jun-2018_15:46:41 Exp 7342 18 female R 3 3 15 immoralOther immoralOther match m m 1 0.8059 
05-Jun-2018_15:46:43 Exp 7342 18 female R 3 3 16 moralSelf moralOther mismatch n m 0 0.5886 
05-Jun-2018_15:46:45 Exp 7342 18 female R 3 3 17 moralSelf moralSelf match m m 1 0.6630 
05-Jun-2018_15:46:48 Exp 7342 18 female R 3 3 18 immoralSelf immoralSelf match m m 1 0.8030 
05-Jun-2018_15:46:50 Exp 7342 18 female R 3 3 19 immoralOther moralSelf mismatch n n 1 0.6575 
05-Jun-2018_15:46:52 Exp 7342 18 female R 3 3 20 immoralOther moralSelf mismatch n n 1 0.5735 
05-Jun-2018_15:46:54 Exp 7342 18 female R 3 3 21 immoralSelf immoralOther mismatch n m 0 0.6075 
05-Jun-2018_15:46:57 Exp 7342 18 female R 3 3 22 moralOther moralSelf mismatch n n 1 0.9502 
05-Jun-2018_15:46:59 Exp 7342 18 female R 3 3 23 immoralSelf immoralOther mismatch n NA -1 1.0731 
05-Jun-2018_15:47:02 Exp 7342 18 female R 3 3 24 immoralSelf immoralSelf match m n 0 0.6600 
05-Jun-2018_15:47:45 Exp 7342 18 female R 3 4 1 moralSelf moralSelf match m m 1 0.8674 
05-Jun-2018_15:47:47 Exp 7342 18 female R 3 4 2 immoralSelf moralOther mismatch n n 1 0.6153 
05-Jun-2018_15:47:49 Exp 7342 18 female R 3 4 3 moralOther moralSelf mismatch n n 1 0.6102 
05-Jun-2018_15:47:51 Exp 7342 18 female R 3 4 4 moralSelf moralOther mismatch n m 0 0.5891 
05-Jun-2018_15:47:54 Exp 7342 18 female R 3 4 5 immoralSelf immoralSelf match m m 1 0.8155 
05-Jun-2018_15:47:56 Exp 7342 18 female R 3 4 6 moralSelf moralSelf match m m 1 0.5784 
05-Jun-2018_15:47:58 Exp 7342 18 female R 3 4 7 immoralOther moralOther mismatch n n 1 0.6326 
05-Jun-2018_15:48:00 Exp 7342 18 female R 3 4 8 moralSelf immoralOther mismatch n n 1 0.6360 
05-Jun-2018_15:48:02 Exp 7342 18 female R 3 4 9 immoralSelf immoralOther mismatch n n 1 0.5194 
05-Jun-2018_15:48:04 Exp 7342 18 female R 3 4 10 immoralOther moralOther mismatch n n 1 0.6485 
05-Jun-2018_15:48:06 Exp 7342 18 female R 3 4 11 moralOther moralSelf mismatch n n 1 0.7040 
05-Jun-2018_15:48:09 Exp 7342 18 female R 3 4 12 moralOther moralOther match m m 1 0.5728 
05-Jun-2018_15:48:11 Exp 7342 18 female R 3 4 13 immoralOther immoralOther match m m 1 0.6468 
05-Jun-2018_15:48:13 Exp 7342 18 female R 3 4 14 moralOther moralOther match m m 1 0.5905 
05-Jun-2018_15:48:15 Exp 7342 18 female R 3 4 15 moralSelf moralSelf match m m 1 0.6009 
05-Jun-2018_15:48:17 Exp 7342 18 female R 3 4 16 immoralOther immoralOther match m m 1 0.6956 
05-Jun-2018_15:48:19 Exp 7342 18 female R 3 4 17 immoralOther immoralOther match m m 1 0.5442 
05-Jun-2018_15:48:22 Exp 7342 18 female R 3 4 18 immoralSelf immoralOther mismatch n NA -1 1.0731 
05-Jun-2018_15:48:24 Exp 7342 18 female R 3 4 19 immoralSelf immoralSelf match m m 1 0.8338 
05-Jun-2018_15:48:26 Exp 7342 18 female R 3 4 20 moralSelf immoralSelf mismatch n m 0 0.7012 
05-Jun-2018_15:48:29 Exp 7342 18 female R 3 4 21 moralOther immoralSelf mismatch n n 1 0.5978 
05-Jun-2018_15:48:31 Exp 7342 18 female R 3 4 22 immoralOther moralOther mismatch n n 1 0.7483 
05-Jun-2018_15:48:33 Exp 7342 18 female R 3 4 23 moralOther moralOther match m m 1 0.6699 
05-Jun-2018_15:48:35 Exp 7342 18 female R 3 4 24 immoralSelf immoralSelf match m n 0 0.5900 
05-Jun-2018_15:48:37 Exp 7342 18 female R 3 5 1 immoralOther moralOther mismatch n m 0 0.5444 
05-Jun-2018_15:48:39 Exp 7342 18 female R 3 5 2 immoralSelf immoralSelf match m n 0 0.5379 
05-Jun-2018_15:48:41 Exp 7342 18 female R 3 5 3 moralOther moralOther match m m 1 0.5272 
05-Jun-2018_15:48:43 Exp 7342 18 female R 3 5 4 immoralSelf immoralOther mismatch n n 1 0.6205 
05-Jun-2018_15:48:46 Exp 7342 18 female R 3 5 5 moralSelf moralSelf match m m 1 0.5513 
05-Jun-2018_15:48:48 Exp 7342 18 female R 3 5 6 moralSelf moralSelf match m m 1 0.5731 
05-Jun-2018_15:48:50 Exp 7342 18 female R 3 5 7 immoralSelf immoralSelf match m n 0 0.4951 
05-Jun-2018_15:48:52 Exp 7342 18 female R 3 5 8 moralSelf immoralSelf mismatch n m 0 0.6396 
05-Jun-2018_15:48:54 Exp 7342 18 female R 3 5 9 immoralSelf moralSelf mismatch n m 0 0.3950 
05-Jun-2018_15:48:56 Exp 7342 18 female R 3 5 10 moralOther immoralSelf mismatch n n 1 0.5494 
05-Jun-2018_15:48:58 Exp 7342 18 female R 3 5 11 moralSelf immoralSelf mismatch n n 1 0.6150 
05-Jun-2018_15:49:00 Exp 7342 18 female R 3 5 12 moralOther moralOther match m m 1 0.4898 
05-Jun-2018_15:49:02 Exp 7342 18 female R 3 5 13 moralOther moralOther match m m 1 0.4462 
05-Jun-2018_15:49:04 Exp 7342 18 female R 3 5 14 immoralOther immoralOther match m m 1 0.7098 
05-Jun-2018_15:49:06 Exp 7342 18 female R 3 5 15 immoralOther moralSelf mismatch n n 1 0.5386 
05-Jun-2018_15:49:08 Exp 7342 18 female R 3 5 16 moralOther immoralSelf mismatch n n 1 0.5401 
05-Jun-2018_15:49:10 Exp 7342 18 female R 3 5 17 immoralOther immoralOther match m m 1 0.5896 
05-Jun-2018_15:49:13 Exp 7342 18 female R 3 5 18 moralSelf moralSelf match m m 1 0.6321 
05-Jun-2018_15:49:15 Exp 7342 18 female R 3 5 19 immoralSelf immoralSelf match m m 1 0.6792 
05-Jun-2018_15:49:17 Exp 7342 18 female R 3 5 20 moralSelf moralOther mismatch n m 0 0.5032 
05-Jun-2018_15:49:19 Exp 7342 18 female R 3 5 21 immoralOther immoralOther match m m 1 0.6521 
05-Jun-2018_15:49:21 Exp 7342 18 female R 3 5 22 immoralOther moralSelf mismatch n n 1 0.5425 
05-Jun-2018_15:49:24 Exp 7342 18 female R 3 5 23 immoralSelf moralSelf mismatch n n 1 0.7680 
05-Jun-2018_15:49:26 Exp 7342 18 female R 3 5 24 moralOther moralSelf mismatch n n 1 0.7539 
Date Prac Sub Age Sex Hand Block Bin Trial Shape Label Match CorrResp Resp ACC RT
05-Jun-2018_15:54:06 Exp 7342 18 female R 1 1 1 moralOther moralOther match m m 1 0.6639 
05-Jun-2018_15:54:08 Exp 7342 18 female R 1 1 2 moralOther immoralOther mismatch n n 1 0.5398 
05-Jun-2018_15:54:10 Exp 7342 18 female R 1 1 3 moralSelf moralSelf match m m 1 0.5814 
05-Jun-2018_15:54:12 Exp 7342 18 female R 1 1 4 immoralOther moralOther mismatch n n 1 0.6915 
05-Jun-2018_15:54:14 Exp 7342 18 female R 1 1 5 moralSelf immoralSelf mismatch n n 1 0.5640 
05-Jun-2018_15:54:17 Exp 7342 18 female R 1 1 6 immoralSelf immoralSelf match m n 0 0.7741 
05-Jun-2018_15:54:19 Exp 7342 18 female R 1 1 7 immoralOther immoralSelf mismatch n n 1 0.9003 
05-Jun-2018_15:54:21 Exp 7342 18 female R 1 1 8 immoralOther immoralOther match m m 1 0.6915 
05-Jun-2018_15:54:24 Exp 7342 18 female R 1 1 9 immoralSelf immoralSelf match m m 1 0.6920 
05-Jun-2018_15:54:26 Exp 7342 18 female R 1 1 10 immoralOther immoralOther match m n 0 0.5561 
05-Jun-2018_15:54:28 Exp 7342 18 female R 1 1 11 immoralOther moralSelf mismatch n n 1 0.6823 
05-Jun-2018_15:54:30 Exp 7342 18 female R 1 1 12 immoralSelf immoralSelf match m m 1 0.9106 
05-Jun-2018_15:54:32 Exp 7342 18 female R 1 1 13 moralOther immoralOther mismatch n n 1 0.6354 
05-Jun-2018_15:54:35 Exp 7342 18 female R 1 1 14 immoralSelf moralOther mismatch n n 1 0.8308 
05-Jun-2018_15:54:37 Exp 7342 18 female R 1 1 15 moralOther immoralSelf mismatch n n 1 0.5900 
05-Jun-2018_15:54:39 Exp 7342 18 female R 1 1 16 immoralSelf immoralOther mismatch n n 1 0.9284 
05-Jun-2018_15:54:42 Exp 7342 18 female R 1 1 17 moralSelf moralOther mismatch n m 0 0.6137 
05-Jun-2018_15:54:44 Exp 7342 18 female R 1 1 18 moralSelf moralSelf match m m 1 0.6086 
05-Jun-2018_15:54:46 Exp 7342 18 female R 1 1 19 moralOther moralOther match m m 1 0.3993 
05-Jun-2018_15:54:48 Exp 7342 18 female R 1 1 20 moralOther moralOther match m m 1 0.7739 
05-Jun-2018_15:54:50 Exp 7342 18 female R 1 1 21 moralSelf immoralOther mismatch n n 1 0.7001 
05-Jun-2018_15:54:52 Exp 7342 18 female R 1 1 22 immoralOther immoralOther match m m 1 0.7087 
05-Jun-2018_15:54:55 Exp 7342 18 female R 1 1 23 immoralSelf immoralOther mismatch n NA -1 1.0731 
05-Jun-2018_15:54:57 Exp 7342 18 female R 1 1 24 moralSelf moralSelf match m m 1 0.5616 
05-Jun-2018_15:54:59 Exp 7342 18 female R 1 2 1 moralSelf moralSelf match m m 1 0.5034 
05-Jun-2018_15:55:01 Exp 7342 18 female R 1 2 2 immoralOther immoralOther match m m 1 0.5961 
05-Jun-2018_15:55:03 Exp 7342 18 female R 1 2 3 immoralSelf immoralOther mismatch n m 0 0.7266 
05-Jun-2018_15:55:06 Exp 7342 18 female R 1 2 4 moralOther moralOther match m m 1 0.5959 
05-Jun-2018_15:55:08 Exp 7342 18 female R 1 2 5 moralSelf moralOther mismatch n n 1 0.7743 
05-Jun-2018_15:55:10 Exp 7342 18 female R 1 2 6 moralSelf immoralOther mismatch n n 1 0.7326 
05-Jun-2018_15:55:12 Exp 7342 18 female R 1 2 7 immoralSelf immoralOther mismatch n n 1 0.6498 
05-Jun-2018_15:55:15 Exp 7342 18 female R 1 2 8 immoralSelf immoralSelf match m m 1 0.9294 
05-Jun-2018_15:55:17 Exp 7342 18 female R 1 2 9 moralOther moralOther match m m 1 0.6386 
05-Jun-2018_15:55:19 Exp 7342 18 female R 1 2 10 immoralOther moralSelf mismatch n n 1 0.6982 
05-Jun-2018_15:55:21 Exp 7342 18 female R 1 2 11 immoralOther moralOther mismatch n n 1 0.5387 
05-Jun-2018_15:55:23 Exp 7342 18 female R 1 2 12 moralSelf moralSelf match m m 1 0.4761 
05-Jun-2018_15:55:25 Exp 7342 18 female R 1 2 13 moralOther immoralOther mismatch n n 1 0.5243 
05-Jun-2018_15:55:27 Exp 7342 18 female R 1 2 14 moralOther immoralOther mismatch n n 1 0.4853 
05-Jun-2018_15:55:29 Exp 7342 18 female R 1 2 15 moralSelf moralSelf match m n 0 0.5536 
05-Jun-2018_15:55:32 Exp 7342 18 female R 1 2 16 immoralSelf immoralSelf match m n 0 0.5993 
05-Jun-2018_15:55:34 Exp 7342 18 female R 1 2 17 immoralOther immoralOther match m m 1 0.6460 
05-Jun-2018_15:55:36 Exp 7342 18 female R 1 2 18 moralOther moralOther match m m 1 0.3577 
05-Jun-2018_15:55:38 Exp 7342 18 female R 1 2 19 moralSelf immoralOther mismatch n n 1 0.6273 
05-Jun-2018_15:55:40 Exp 7342 18 female R 1 2 20 moralOther immoralOther mismatch n n 1 0.5065 
05-Jun-2018_15:55:42 Exp 7342 18 female R 1 2 21 immoralOther immoralOther match m n 0 0.5352 
05-Jun-2018_15:55:44 Exp 7342 18 female R 1 2 22 immoralSelf moralOther mismatch n n 1 0.7565 
05-Jun-2018_15:55:46 Exp 7342 18 female R 1 2 23 immoralSelf immoralSelf match m n 0 0.7223 
05-Jun-2018_15:55:49 Exp 7342 18 female R 1 2 24 immoralOther moralSelf mismatch n n 1 0.6273 
Date Prac Sub Age Sex Hand Block Bin Trial Shape Label Match CorrResp Resp ACC RT
05-Jun-2018_16:01:17 Exp 7342 18 female R 1 1 1 immoralSelf immoralSelf match m m 1 0.9307 
05-Jun-2018_16:01:19 Exp 7342 18 female R 1 1 2 immoralSelf moralOther mismatch n n 1 0.8241 
05-Jun-2018_16:01:21 Exp 7342 18 female R 1 1 3 moralSelf moralSelf match m m 1 0.5532 
05-Jun-2018_16:01:23 Exp 7342 18 female R 1 1 4 moralOther immoralSelf mismatch n n 1 0.5110 
05-Jun-2018_16:01:25 Exp 7342 18 female R 1 1 5 moralOther moralOther match m m 1 0.5158 
05-Jun-2018_16:01:28 Exp 7342 18 female R 1 1 6 immoralOther immoralOther match m m 1 0.6927 
05-Jun-2018_16:01:30 Exp 7342 18 female R 1 1 7 moralOther immoralOther mismatch n n 1 0.5812 
05-Jun-2018_16:01:32 Exp 7342 18 female R 1 1 8 moralOther moralOther match m m 1 0.6195 
05-Jun-2018_16:01:34 Exp 7342 18 female R 1 1 9 immoralOther moralOther mismatch n n 1 0.6144 
05-Jun-2018_16:01:36 Exp 7342 18 female R 1 1 10 moralOther immoralSelf mismatch n n 1 0.6893 
05-Jun-2018_16:01:38 Exp 7342 18 female R 1 1 11 immoralSelf immoralSelf match m n 0 0.5496 
05-Jun-2018_16:01:40 Exp 7342 18 female R 1 1 12 immoralSelf immoralOther mismatch n n 1 0.5831 
05-Jun-2018_16:01:42 Exp 7342 18 female R 1 1 13 moralSelf immoralSelf mismatch n n 1 0.5893 
05-Jun-2018_16:01:44 Exp 7342 18 female R 1 1 14 moralSelf moralSelf match m n 0 0.4638 
05-Jun-2018_16:01:47 Exp 7342 18 female R 1 1 15 immoralSelf moralSelf mismatch n n 1 0.7796 
05-Jun-2018_16:01:49 Exp 7342 18 female R 1 1 16 immoralOther moralSelf mismatch n n 1 0.6498 
05-Jun-2018_16:01:51 Exp 7342 18 female R 1 1 17 immoralOther immoralOther match m m 1 0.5775 
05-Jun-2018_16:01:53 Exp 7342 18 female R 1 1 18 moralOther moralOther match m m 1 0.7437 
05-Jun-2018_16:01:55 Exp 7342 18 female R 1 1 19 moralSelf immoralOther mismatch n n 1 0.6172 
05-Jun-2018_16:01:58 Exp 7342 18 female R 1 1 20 immoralOther immoralOther match m m 1 0.6121 
05-Jun-2018_16:02:00 Exp 7342 18 female R 1 1 21 moralSelf immoralSelf mismatch n m 0 0.8790 
05-Jun-2018_16:02:02 Exp 7342 18 female R 1 1 22 immoralSelf immoralSelf match m n 0 0.8791 
05-Jun-2018_16:02:04 Exp 7342 18 female R 1 1 23 moralSelf moralSelf match m m 1 0.5193 
05-Jun-2018_16:02:06 Exp 7342 18 female R 1 1 24 immoralOther moralSelf mismatch n n 1 0.5122 
05-Jun-2018_16:02:08 Exp 7342 18 female R 1 2 1 moralSelf moralSelf match m m 1 0.4931 
05-Jun-2018_16:02:10 Exp 7342 18 female R 1 2 2 immoralSelf moralSelf mismatch n n 1 0.5096 
05-Jun-2018_16:02:13 Exp 7342 18 female R 1 2 3 immoralOther immoralOther match m n 0 0.4984 
05-Jun-2018_16:02:14 Exp 7342 18 female R 1 2 4 moralOther moralOther match m m 1 0.4429 
05-Jun-2018_16:02:17 Exp 7342 18 female R 1 2 5 moralSelf moralSelf match m m 1 0.5503 
05-Jun-2018_16:02:19 Exp 7342 18 female R 1 2 6 immoralOther immoralSelf mismatch n n 1 0.4680 
05-Jun-2018_16:02:21 Exp 7342 18 female R 1 2 7 moralOther moralSelf mismatch n m 0 0.5321 
05-Jun-2018_16:02:23 Exp 7342 18 female R 1 2 8 moralOther immoralSelf mismatch n n 1 0.6263 
05-Jun-2018_16:02:25 Exp 7342 18 female R 1 2 9 moralSelf immoralSelf mismatch n n 1 0.5055 
05-Jun-2018_16:02:27 Exp 7342 18 female R 1 2 10 immoralSelf immoralSelf match m n 0 0.5343 
05-Jun-2018_16:02:29 Exp 7342 18 female R 1 2 11 immoralSelf immoralOther mismatch n m 0 0.7236 
05-Jun-2018_16:02:32 Exp 7342 18 female R 1 2 12 immoralOther moralSelf mismatch n n 1 0.8765 
05-Jun-2018_16:02:34 Exp 7342 18 female R 1 2 13 immoralOther moralSelf mismatch n n 1 0.6127 
05-Jun-2018_16:02:36 Exp 7342 18 female R 1 2 14 immoralSelf immoralSelf match m m 1 0.6955 
05-Jun-2018_16:02:38 Exp 7342 18 female R 1 2 15 immoralSelf immoralSelf match m m 1 0.6002 
05-Jun-2018_16:02:40 Exp 7342 18 female R 1 2 16 moralOther moralOther match m m 1 0.8389 
05-Jun-2018_16:02:43 Exp 7342 18 female R 1 2 17 immoralOther immoralOther match m n 0 0.7382 
05-Jun-2018_16:02:45 Exp 7342 18 female R 1 2 18 moralOther immoralSelf mismatch n m 0 0.7078 
05-Jun-2018_16:02:47 Exp 7342 18 female R 1 2 19 immoralSelf moralSelf mismatch n n 1 0.6805 
05-Jun-2018_16:02:49 Exp 7342 18 female R 1 2 20 moralOther moralOther match m m 1 0.5808 
05-Jun-2018_16:02:51 Exp 7342 18 female R 1 2 21 immoralOther immoralOther match m n 0 0.4751 
05-Jun-2018_16:02:53 Exp 7342 18 female R 1 2 22 moralSelf moralOther mismatch n m 0 0.6591 
05-Jun-2018_16:02:55 Exp 7342 18 female R 1 2 23 moralSelf moralSelf match m m 1 0.5190 
05-Jun-2018_16:02:58 Exp 7342 18 female R 1 2 24 moralSelf moralOther mismatch n n 1 0.6320 
Date Prac Sub Age Sex Hand Block Bin Trial Shape Label Match CorrResp Resp ACC RT
05-Jun-2018_16:07:21 Exp 7342 18 female R 1 1 1 immoralSelf moralSelf mismatch n n 1 0.6462 
05-Jun-2018_16:07:23 Exp 7342 18 female R 1 1 2 moralOther immoralOther mismatch n n 1 0.5499 
05-Jun-2018_16:07:26 Exp 7342 18 female R 1 1 3 immoralOther immoralOther match m m 1 0.6314 
05-Jun-2018_16:07:28 Exp 7342 18 female R 1 1 4 immoralSelf immoralSelf match m m 1 0.9745 
05-Jun-2018_16:07:30 Exp 7342 18 female R 1 1 5 immoralOther moralOther mismatch n n 1 0.5648 
05-Jun-2018_16:07:32 Exp 7342 18 female R 1 1 6 moralOther moralSelf mismatch n n 1 0.6547 
05-Jun-2018_16:07:34 Exp 7342 18 female R 1 1 7 moralSelf moralSelf match m m 1 0.5343 
05-Jun-2018_16:07:37 Exp 7342 18 female R 1 1 8 moralOther moralSelf mismatch n n 1 0.7236 
05-Jun-2018_16:07:39 Exp 7342 18 female R 1 1 9 moralSelf moralOther mismatch n n 1 0.7167 
05-Jun-2018_16:07:41 Exp 7342 18 female R 1 1 10 moralSelf moralSelf match m m 1 0.5657 
05-Jun-2018_16:07:43 Exp 7342 18 female R 1 1 11 moralSelf moralSelf match m m 1 0.5356 
05-Jun-2018_16:07:45 Exp 7342 18 female R 1 1 12 immoralOther immoralSelf mismatch n n 1 0.5169 
05-Jun-2018_16:07:47 Exp 7342 18 female R 1 1 13 immoralSelf moralSelf mismatch n m 0 0.5979 
05-Jun-2018_16:07:50 Exp 7342 18 female R 1 1 14 moralSelf immoralSelf mismatch n n 1 0.7567 
05-Jun-2018_16:07:52 Exp 7342 18 female R 1 1 15 immoralOther immoralOther match m m 1 0.5704 
05-Jun-2018_16:07:54 Exp 7342 18 female R 1 1 16 immoralOther immoralOther match m m 1 0.4363 
05-Jun-2018_16:07:56 Exp 7342 18 female R 1 1 17 moralOther moralOther match m m 1 0.8077 
05-Jun-2018_16:07:59 Exp 7342 18 female R 1 1 18 moralSelf moralOther mismatch n NA -1 1.0731 
05-Jun-2018_16:08:01 Exp 7342 18 female R 1 1 19 moralOther moralOther match m m 1 0.5345 
05-Jun-2018_16:08:03 Exp 7342 18 female R 1 1 20 immoralSelf immoralSelf match m n 0 0.5879 
05-Jun-2018_16:08:05 Exp 7342 18 female R 1 1 21 immoralOther moralOther mismatch n n 1 0.6942 
05-Jun-2018_16:08:07 Exp 7342 18 female R 1 1 22 moralOther moralOther match m m 1 0.5667 
05-Jun-2018_16:08:09 Exp 7342 18 female R 1 1 23 immoralSelf moralSelf mismatch n n 1 0.6968 
05-Jun-2018_16:08:12 Exp 7342 18 female R 1 1 24 immoralSelf immoralSelf match m m 1 0.7533 
05-Jun-2018_16:08:14 Exp 7342 18 female R 1 2 1 immoralSelf immoralOther mismatch n m 0 0.7430 
05-Jun-2018_16:08:16 Exp 7342 18 female R 1 2 2 moralSelf moralOther mismatch n m 0 0.8245 
05-Jun-2018_16:08:18 Exp 7342 18 female R 1 2 3 moralSelf moralOther mismatch n m 0 0.6397 
05-Jun-2018_16:08:20 Exp 7342 18 female R 1 2 4 moralOther moralOther match m m 1 0.5391 
05-Jun-2018_16:08:23 Exp 7342 18 female R 1 2 5 immoralOther immoralOther match m m 1 0.5726 
05-Jun-2018_16:08:25 Exp 7342 18 female R 1 2 6 moralSelf immoralSelf mismatch n n 1 0.6465 
05-Jun-2018_16:08:27 Exp 7342 18 female R 1 2 7 moralOther moralOther match m m 1 0.6302 
05-Jun-2018_16:08:29 Exp 7342 18 female R 1 2 8 immoralSelf moralOther mismatch n n 1 0.8053 
05-Jun-2018_16:08:32 Exp 7342 18 female R 1 2 9 immoralSelf immoralSelf match m NA -1 1.0731 
05-Jun-2018_16:08:34 Exp 7342 18 female R 1 2 10 immoralOther immoralOther match m m 1 0.6361 
05-Jun-2018_16:08:36 Exp 7342 18 female R 1 2 11 moralOther immoralOther mismatch n n 1 0.8154 
05-Jun-2018_16:08:38 Exp 7342 18 female R 1 2 12 moralSelf moralSelf match m m 1 0.5785 
05-Jun-2018_16:08:41 Exp 7342 18 female R 1 2 13 moralOther immoralSelf mismatch n n 1 0.8407 
05-Jun-2018_16:08:43 Exp 7342 18 female R 1 2 14 moralSelf moralSelf match m m 1 0.7481 
05-Jun-2018_16:08:45 Exp 7342 18 female R 1 2 15 immoralOther immoralOther match m n 0 0.5495 
05-Jun-2018_16:08:48 Exp 7342 18 female R 1 2 16 immoralSelf immoralSelf match m m 1 0.9031 
05-Jun-2018_16:08:50 Exp 7342 18 female R 1 2 17 moralOther immoralSelf mismatch n n 1 0.5479 
05-Jun-2018_16:08:52 Exp 7342 18 female R 1 2 18 immoralSelf immoralSelf match m m 1 0.6293 
05-Jun-2018_16:08:54 Exp 7342 18 female R 1 2 19 immoralOther moralOther mismatch n n 1 0.5725 
05-Jun-2018_16:08:56 Exp 7342 18 female R 1 2 20 immoralOther immoralSelf mismatch n m 0 0.6784 
05-Jun-2018_16:08:58 Exp 7342 18 female R 1 2 21 moralOther moralOther match m n 0 0.5825 
05-Jun-2018_16:09:00 Exp 7342 18 female R 1 2 22 moralSelf moralSelf match m m 1 0.7327 
05-Jun-2018_16:09:03 Exp 7342 18 female R 1 2 23 immoralSelf moralSelf mismatch n n 1 0.6420 
05-Jun-2018_16:09:05 Exp 7342 18 female R 1 2 24 immoralOther immoralSelf mismatch n n 1 0.7254 
Date Prac Sub Age Sex Hand Block Bin Trial Shape Label Match CorrResp Resp ACC RT
05-Jun-2018_16:14:09 Exp 7342 18 female R 1 1 1 moralOther immoralOther mismatch n n 1 0.5991 
05-Jun-2018_16:14:11 Exp 7342 18 female R 1 1 2 immoralSelf immoralSelf match m m 1 1.0058 
05-Jun-2018_16:14:13 Exp 7342 18 female R 1 1 3 moralSelf moralOther mismatch n m 0 0.6606 
05-Jun-2018_16:14:15 Exp 7342 18 female R 1 1 4 moralSelf moralOther mismatch n n 1 0.7124 
05-Jun-2018_16:14:18 Exp 7342 18 female R 1 1 5 moralOther immoralSelf mismatch n n 1 0.5172 
05-Jun-2018_16:14:20 Exp 7342 18 female R 1 1 6 immoralOther immoralSelf mismatch n m 0 0.7102 
05-Jun-2018_16:14:22 Exp 7342 18 female R 1 1 7 immoralOther immoralOther match m m 1 0.5790 
05-Jun-2018_16:14:24 Exp 7342 18 female R 1 1 8 moralOther moralOther match m n 0 0.5852 
05-Jun-2018_16:14:26 Exp 7342 18 female R 1 1 9 immoralSelf immoralSelf match m m 1 0.9276 
05-Jun-2018_16:14:29 Exp 7342 18 female R 1 1 10 moralOther moralOther match m m 1 0.5408 
05-Jun-2018_16:14:31 Exp 7342 18 female R 1 1 11 immoralSelf immoralSelf match m m 1 0.5583 
05-Jun-2018_16:14:33 Exp 7342 18 female R 1 1 12 moralSelf moralSelf match m m 1 0.6520 
05-Jun-2018_16:14:35 Exp 7342 18 female R 1 1 13 immoralSelf moralSelf mismatch n NA -1 1.0731 
05-Jun-2018_16:14:38 Exp 7342 18 female R 1 1 14 immoralSelf immoralOther mismatch n NA -1 1.0731 
05-Jun-2018_16:14:40 Exp 7342 18 female R 1 1 15 moralSelf moralSelf match m m 1 0.6438 
05-Jun-2018_16:14:42 Exp 7342 18 female R 1 1 16 immoralOther immoralSelf mismatch n n 1 0.5832 
05-Jun-2018_16:14:44 Exp 7342 18 female R 1 1 17 moralOther immoralOther mismatch n n 1 0.5334 
05-Jun-2018_16:14:46 Exp 7342 18 female R 1 1 18 moralSelf moralSelf match m m 1 0.5467 
05-Jun-2018_16:14:49 Exp 7342 18 female R 1 1 19 moralOther moralOther match m m 1 0.6442 
05-Jun-2018_16:14:51 Exp 7342 18 female R 1 1 20 moralSelf moralOther mismatch n n 1 0.6758 
05-Jun-2018_16:14:53 Exp 7342 18 female R 1 1 21 immoralSelf moralSelf mismatch n n 1 0.8198 
05-Jun-2018_16:14:55 Exp 7342 18 female R 1 1 22 immoralOther moralOther mismatch n n 1 0.5828 
05-Jun-2018_16:14:57 Exp 7342 18 female R 1 1 23 immoralOther immoralOther match m n 0 0.4610 
05-Jun-2018_16:14:59 Exp 7342 18 female R 1 1 24 immoralOther immoralOther match m m 1 0.3848 
05-Jun-2018_16:15:01 Exp 7342 18 female R 1 2 1 moralOther moralOther match m n 0 0.4390 
05-Jun-2018_16:15:03 Exp 7342 18 female R 1 2 2 moralOther immoralSelf mismatch n n 1 0.6584 
05-Jun-2018_16:15:05 Exp 7342 18 female R 1 2 3 moralSelf moralOther mismatch n m 0 0.5583 
05-Jun-2018_16:15:08 Exp 7342 18 female R 1 2 4 immoralOther immoralSelf mismatch n n 1 0.6760 
05-Jun-2018_16:15:10 Exp 7342 18 female R 1 2 5 moralSelf immoralOther mismatch n n 1 0.6921 
05-Jun-2018_16:15:12 Exp 7342 18 female R 1 2 6 immoralSelf moralOther mismatch n n 1 0.7086 
05-Jun-2018_16:15:14 Exp 7342 18 female R 1 2 7 moralOther moralOther match m m 1 0.6654 
05-Jun-2018_16:15:16 Exp 7342 18 female R 1 2 8 immoralSelf moralOther mismatch n n 1 0.5654 
05-Jun-2018_16:15:18 Exp 7342 18 female R 1 2 9 immoralOther moralOther mismatch n n 1 0.6153 
05-Jun-2018_16:15:21 Exp 7342 18 female R 1 2 10 immoralOther immoralOther match m m 1 0.6902 
05-Jun-2018_16:15:23 Exp 7342 18 female R 1 2 11 immoralSelf immoralSelf match m n 0 0.5355 
05-Jun-2018_16:15:25 Exp 7342 18 female R 1 2 12 moralSelf moralSelf match m m 1 0.5807 
05-Jun-2018_16:15:27 Exp 7342 18 female R 1 2 13 moralSelf moralSelf match m m 1 0.5950 
05-Jun-2018_16:15:29 Exp 7342 18 female R 1 2 14 moralOther moralSelf mismatch n n 1 0.7334 
05-Jun-2018_16:15:31 Exp 7342 18 female R 1 2 15 immoralOther immoralOther match m m 1 0.6506 
05-Jun-2018_16:15:34 Exp 7342 18 female R 1 2 16 immoralOther moralOther mismatch n n 1 0.6504 
05-Jun-2018_16:15:36 Exp 7342 18 female R 1 2 17 moralOther moralOther match m m 1 0.6419 
05-Jun-2018_16:15:38 Exp 7342 18 female R 1 2 18 moralSelf immoralSelf mismatch n m 0 0.7093 
05-Jun-2018_16:15:40 Exp 7342 18 female R 1 2 19 immoralSelf immoralSelf match m m 1 0.5941 
05-Jun-2018_16:15:42 Exp 7342 18 female R 1 2 20 immoralSelf immoralSelf match m m 1 0.4846 
05-Jun-2018_16:15:44 Exp 7342 18 female R 1 2 21 moralOther moralSelf mismatch n n 1 0.6409 
05-Jun-2018_16:15:46 Exp 7342 18 female R 1 2 22 immoralOther immoralOther match m n 0 0.5882 
05-Jun-2018_16:15:49 Exp 7342 18 female R 1 2 23 immoralSelf moralOther mismatch n n 1 0.6947 
05-Jun-2018_16:15:51 Exp 7342 18 female R 1 2 24 moralSelf moralSelf match m m 1 0.7832 
Date Prac Sub Age Sex Hand Block Bin Trial Shape Label Match CorrResp Resp ACC RT
05-Jun-2018_16:19:59 Exp 7342 18 female R 1 1 1 moralOther moralOther match m m 1 0.5379 
05-Jun-2018_16:20:01 Exp 7342 18 female R 1 1 2 immoralOther moralSelf mismatch n m 0 0.6473 
05-Jun-2018_16:20:04 Exp 7342 18 female R 1 1 3 immoralOther moralSelf mismatch n n 1 0.5269 
05-Jun-2018_16:20:05 Exp 7342 18 female R 1 1 4 moralOther moralOther match m m 1 0.4602 
05-Jun-2018_16:20:08 Exp 7342 18 female R 1 1 5 moralSelf moralOther mismatch n n 1 0.7120 
05-Jun-2018_16:20:10 Exp 7342 18 female R 1 1 6 immoralOther immoralOther match m m 1 0.7168 
05-Jun-2018_16:20:12 Exp 7342 18 female R 1 1 7 moralSelf moralSelf match m m 1 0.5818 
05-Jun-2018_16:20:14 Exp 7342 18 female R 1 1 8 moralSelf moralOther mismatch n n 1 0.7320 
05-Jun-2018_16:20:17 Exp 7342 18 female R 1 1 9 immoralSelf moralOther mismatch n n 1 0.6653 
05-Jun-2018_16:20:19 Exp 7342 18 female R 1 1 10 immoralSelf moralOther mismatch n n 1 0.7652 
05-Jun-2018_16:20:21 Exp 7342 18 female R 1 1 11 immoralOther immoralOther match m m 1 0.7031 
05-Jun-2018_16:20:23 Exp 7342 18 female R 1 1 12 immoralOther moralOther mismatch n n 1 0.5800 
05-Jun-2018_16:20:25 Exp 7342 18 female R 1 1 13 moralSelf moralSelf match m m 1 0.6022 
05-Jun-2018_16:20:27 Exp 7342 18 female R 1 1 14 moralSelf moralSelf match m m 1 0.6648 
05-Jun-2018_16:20:30 Exp 7342 18 female R 1 1 15 moralSelf immoralSelf mismatch n n 1 0.6047 
05-Jun-2018_16:20:32 Exp 7342 18 female R 1 1 16 moralOther moralSelf mismatch n n 1 0.6354 
05-Jun-2018_16:20:34 Exp 7342 18 female R 1 1 17 moralOther immoralOther mismatch n n 1 0.5268 
05-Jun-2018_16:20:36 Exp 7342 18 female R 1 1 18 moralOther moralSelf mismatch n m 0 0.5880 
05-Jun-2018_16:20:38 Exp 7342 18 female R 1 1 19 immoralSelf moralOther mismatch n n 1 0.5905 
05-Jun-2018_16:20:40 Exp 7342 18 female R 1 1 20 immoralSelf immoralSelf match m m 1 0.8089 
05-Jun-2018_16:20:42 Exp 7342 18 female R 1 1 21 immoralSelf immoralSelf match m n 0 0.5319 
05-Jun-2018_16:20:44 Exp 7342 18 female R 1 1 22 immoralSelf immoralSelf match m m 1 0.4651 
05-Jun-2018_16:20:47 Exp 7342 18 female R 1 1 23 immoralOther immoralOther match m n 0 0.5409 
05-Jun-2018_16:20:49 Exp 7342 18 female R 1 1 24 moralOther moralOther match m m 1 0.4944 
05-Jun-2018_16:20:51 Exp 7342 18 female R 1 2 1 immoralOther immoralOther match m m 1 0.5510 
05-Jun-2018_16:20:53 Exp 7342 18 female R 1 2 2 immoralOther moralOther mismatch n n 1 0.6607 
05-Jun-2018_16:20:55 Exp 7342 18 female R 1 2 3 immoralOther moralOther mismatch n n 1 0.6406 
05-Jun-2018_16:20:57 Exp 7342 18 female R 1 2 4 moralOther immoralOther mismatch n n 1 0.6680 
05-Jun-2018_16:20:59 Exp 7342 18 female R 1 2 5 moralOther moralOther match m m 1 0.5401 
05-Jun-2018_16:21:01 Exp 7342 18 female R 1 2 6 moralOther moralOther match m m 1 0.4535 
05-Jun-2018_16:21:04 Exp 7342 18 female R 1 2 7 immoralSelf immoralSelf match m m 1 0.8131 
05-Jun-2018_16:21:06 Exp 7342 18 female R 1 2 8 immoralOther immoralOther match m m 1 0.6001 
05-Jun-2018_16:21:08 Exp 7342 18 female R 1 2 9 immoralSelf moralOther mismatch n n 1 0.6227 
05-Jun-2018_16:21:10 Exp 7342 18 female R 1 2 10 moralSelf moralSelf match m m 1 0.5739 
05-Jun-2018_16:21:12 Exp 7342 18 female R 1 2 11 immoralOther immoralOther match m m 1 0.5321 
05-Jun-2018_16:21:14 Exp 7342 18 female R 1 2 12 moralOther immoralSelf mismatch n n 1 0.6334 
05-Jun-2018_16:21:16 Exp 7342 18 female R 1 2 13 immoralSelf immoralSelf match m m 1 0.7808 
05-Jun-2018_16:21:19 Exp 7342 18 female R 1 2 14 immoralOther immoralSelf mismatch n n 1 0.7070 
05-Jun-2018_16:21:21 Exp 7342 18 female R 1 2 15 moralOther moralOther match m m 1 0.7517 
05-Jun-2018_16:21:24 Exp 7342 18 female R 1 2 16 immoralSelf moralOther mismatch n n 1 1.0535 
05-Jun-2018_16:21:26 Exp 7342 18 female R 1 2 17 moralSelf immoralSelf mismatch n n 1 0.6852 
05-Jun-2018_16:21:28 Exp 7342 18 female R 1 2 18 immoralSelf moralOther mismatch n n 1 0.6656 
05-Jun-2018_16:21:30 Exp 7342 18 female R 1 2 19 immoralSelf immoralSelf match m m 1 0.8934 
05-Jun-2018_16:21:33 Exp 7342 18 female R 1 2 20 moralOther moralSelf mismatch n n 1 0.6139 
05-Jun-2018_16:21:35 Exp 7342 18 female R 1 2 21 moralSelf immoralOther mismatch n n 1 0.7928 
05-Jun-2018_16:21:37 Exp 7342 18 female R 1 2 22 moralSelf moralSelf match m n 0 0.6273 
05-Jun-2018_16:21:39 Exp 7342 18 female R 1 2 23 moralSelf moralSelf match m m 1 0.4504 
05-Jun-2018_16:21:41 Exp 7342 18 female R 1 2 24 moralSelf immoralSelf mismatch n n 1 0.5460 
