Date Prac Sub Age Sex Hand Block Bin Trial Shape Label Match CorrResp Resp ACC RT
13-May-2018_16:07:12 Exp 7313 20 female R 1 1 1 immoralSelf immoralSelf match n NA -1 1.0731 
13-May-2018_16:07:14 Exp 7313 20 female R 1 1 2 immoralOther immoralSelf mismatch m NA -1 1.0731 
13-May-2018_16:07:16 Exp 7313 20 female R 1 1 3 immoralSelf immoralOther mismatch m m 1 0.1061 
13-May-2018_16:07:18 Exp 7313 20 female R 1 1 4 immoralOther moralOther mismatch m n 0 0.3659 
13-May-2018_16:07:20 Exp 7313 20 female R 1 1 5 moralSelf immoralOther mismatch m m 1 0.4079 
13-May-2018_16:07:21 Exp 7313 20 female R 1 1 6 immoralSelf moralOther mismatch m m 1 0.3105 
13-May-2018_16:07:23 Exp 7313 20 female R 1 1 7 moralSelf immoralOther mismatch m m 1 0.2673 
13-May-2018_16:07:25 Exp 7313 20 female R 1 1 8 immoralOther immoralOther match n m 0 0.2872 
13-May-2018_16:07:27 Exp 7313 20 female R 1 1 9 moralSelf moralSelf match n m 0 0.3235 
13-May-2018_16:07:29 Exp 7313 20 female R 1 1 10 immoralOther immoralSelf mismatch m n 0 0.3805 
13-May-2018_16:07:31 Exp 7313 20 female R 1 1 11 immoralSelf immoralSelf match n n 1 0.5147 
13-May-2018_16:07:33 Exp 7313 20 female R 1 1 12 moralOther moralOther match n m 0 0.2998 
13-May-2018_16:07:35 Exp 7313 20 female R 1 1 13 moralOther immoralSelf mismatch m n 0 0.5242 
13-May-2018_16:07:37 Exp 7313 20 female R 1 1 14 moralOther moralOther match n m 0 0.4213 
13-May-2018_16:07:38 Exp 7313 20 female R 1 1 15 moralOther moralOther match n m 0 0.2285 
13-May-2018_16:07:40 Exp 7313 20 female R 1 1 16 immoralSelf moralSelf mismatch m m 1 0.3075 
13-May-2018_16:07:42 Exp 7313 20 female R 1 1 17 moralOther moralSelf mismatch m m 1 0.3603 
13-May-2018_16:07:44 Exp 7313 20 female R 1 1 18 immoralSelf immoralSelf match n m 0 0.2300 
13-May-2018_16:07:46 Exp 7313 20 female R 1 1 19 moralSelf moralSelf match n n 1 0.1061 
13-May-2018_16:07:47 Exp 7313 20 female R 1 1 20 moralOther moralSelf mismatch m m 1 0.1859 
13-May-2018_16:07:49 Exp 7313 20 female R 1 1 21 immoralOther immoralOther match n n 1 0.1645 
13-May-2018_16:07:51 Exp 7313 20 female R 1 1 22 moralSelf moralSelf match n m 0 0.2063 
13-May-2018_16:07:53 Exp 7313 20 female R 1 1 23 moralSelf moralOther mismatch m n 0 0.5009 
13-May-2018_16:07:55 Exp 7313 20 female R 1 1 24 immoralOther immoralOther match n n 1 0.2694 
13-May-2018_16:07:56 Exp 7313 20 female R 1 2 1 moralSelf moralOther mismatch m m 1 0.2855 
13-May-2018_16:07:58 Exp 7313 20 female R 1 2 2 moralOther immoralSelf mismatch m m 1 0.2819 
13-May-2018_16:08:00 Exp 7313 20 female R 1 2 3 immoralOther moralOther mismatch m m 1 0.5421 
13-May-2018_16:08:02 Exp 7313 20 female R 1 2 4 moralSelf moralSelf match n m 0 0.2397 
13-May-2018_16:08:04 Exp 7313 20 female R 1 2 5 immoralOther moralSelf mismatch m n 0 0.1871 
13-May-2018_16:08:05 Exp 7313 20 female R 1 2 6 immoralSelf immoralOther mismatch m m 1 0.1061 
13-May-2018_16:08:07 Exp 7313 20 female R 1 2 7 moralSelf moralSelf match n m 0 0.2423 
13-May-2018_16:08:09 Exp 7313 20 female R 1 2 8 immoralOther immoralOther match n m 0 0.1061 
13-May-2018_16:08:11 Exp 7313 20 female R 1 2 9 immoralSelf immoralSelf match n n 1 0.3063 
13-May-2018_16:08:12 Exp 7313 20 female R 1 2 10 immoralSelf immoralSelf match n m 0 0.3112 
13-May-2018_16:08:14 Exp 7313 20 female R 1 2 11 moralOther moralOther match n m 0 0.3480 
13-May-2018_16:08:16 Exp 7313 20 female R 1 2 12 immoralOther immoralSelf mismatch m n 0 0.4454 
13-May-2018_16:08:19 Exp 7313 20 female R 1 2 13 immoralOther immoralOther match n NA -1 1.0731 
13-May-2018_16:08:21 Exp 7313 20 female R 1 2 14 moralSelf moralOther mismatch m m 1 0.3812 
13-May-2018_16:08:22 Exp 7313 20 female R 1 2 15 immoralSelf moralOther mismatch m n 0 0.1061 
13-May-2018_16:08:24 Exp 7313 20 female R 1 2 16 moralOther immoralOther mismatch m m 1 0.3522 
13-May-2018_16:08:26 Exp 7313 20 female R 1 2 17 immoralOther immoralOther match n n 1 0.3738 
13-May-2018_16:08:28 Exp 7313 20 female R 1 2 18 moralSelf moralSelf match n m 0 0.2040 
13-May-2018_16:08:30 Exp 7313 20 female R 1 2 19 moralOther moralOther match n n 1 0.1061 
13-May-2018_16:08:31 Exp 7313 20 female R 1 2 20 moralOther immoralOther mismatch m n 0 0.3754 
13-May-2018_16:08:33 Exp 7313 20 female R 1 2 21 immoralSelf immoralSelf match n m 0 0.3576 
13-May-2018_16:08:36 Exp 7313 20 female R 1 2 22 immoralSelf immoralOther mismatch m NA -1 1.0731 
13-May-2018_16:08:38 Exp 7313 20 female R 1 2 23 moralSelf immoralSelf mismatch m m 1 0.3154 
13-May-2018_16:08:40 Exp 7313 20 female R 1 2 24 moralOther moralOther match n n 1 0.3805 
13-May-2018_16:08:41 Exp 7313 20 female R 1 3 1 immoralSelf immoralOther mismatch m m 1 0.1866 
13-May-2018_16:08:43 Exp 7313 20 female R 1 3 2 immoralOther moralOther mismatch m n 0 0.3891 
13-May-2018_16:08:45 Exp 7313 20 female R 1 3 3 moralOther moralOther match n m 0 0.2155 
13-May-2018_16:08:47 Exp 7313 20 female R 1 3 4 moralSelf moralSelf match n m 0 0.3144 
13-May-2018_16:08:49 Exp 7313 20 female R 1 3 5 moralOther moralOther match n n 1 0.4712 
13-May-2018_16:08:51 Exp 7313 20 female R 1 3 6 immoralSelf immoralSelf match n m 0 0.2713 
13-May-2018_16:08:53 Exp 7313 20 female R 1 3 7 immoralSelf immoralSelf match n m 0 0.4714 
13-May-2018_16:08:55 Exp 7313 20 female R 1 3 8 moralSelf moralSelf match n n 1 0.4314 
13-May-2018_16:08:57 Exp 7313 20 female R 1 3 9 immoralOther immoralOther match n n 1 0.4305 
13-May-2018_16:08:58 Exp 7313 20 female R 1 3 10 moralSelf moralSelf match n m 0 0.3336 
13-May-2018_16:09:00 Exp 7313 20 female R 1 3 11 moralOther immoralOther mismatch m n 0 0.3229 
13-May-2018_16:09:02 Exp 7313 20 female R 1 3 12 immoralOther immoralOther match n m 0 0.1061 
13-May-2018_16:09:04 Exp 7313 20 female R 1 3 13 immoralSelf immoralSelf match n m 0 0.3527 
13-May-2018_16:09:06 Exp 7313 20 female R 1 3 14 moralOther moralSelf mismatch m m 1 0.1824 
13-May-2018_16:09:07 Exp 7313 20 female R 1 3 15 immoralOther immoralOther match n n 1 0.1060 
13-May-2018_16:09:09 Exp 7313 20 female R 1 3 16 moralSelf immoralSelf mismatch m m 1 0.3534 
13-May-2018_16:09:11 Exp 7313 20 female R 1 3 17 immoralSelf moralSelf mismatch m m 1 0.4071 
13-May-2018_16:09:13 Exp 7313 20 female R 1 3 18 moralOther moralOther match n m 0 0.3818 
13-May-2018_16:09:15 Exp 7313 20 female R 1 3 19 immoralOther moralSelf mismatch m NA -1 1.0731 
13-May-2018_16:09:17 Exp 7313 20 female R 1 3 20 immoralOther moralSelf mismatch m m 1 0.1801 
13-May-2018_16:09:19 Exp 7313 20 female R 1 3 21 moralSelf moralOther mismatch m m 1 0.1061 
13-May-2018_16:09:21 Exp 7313 20 female R 1 3 22 immoralSelf immoralOther mismatch m m 1 0.1751 
13-May-2018_16:09:23 Exp 7313 20 female R 1 3 23 moralSelf immoralSelf mismatch m NA -1 1.0731 
13-May-2018_16:09:25 Exp 7313 20 female R 1 3 24 moralOther immoralOther mismatch m m 1 0.2533 
13-May-2018_16:09:52 Exp 7313 20 female R 1 4 1 immoralOther moralSelf mismatch m NA -1 1.0731 
13-May-2018_16:09:54 Exp 7313 20 female R 1 4 2 moralOther moralSelf mismatch m space 2 0.7207 
13-May-2018_16:09:56 Exp 7313 20 female R 1 4 3 immoralSelf immoralOther mismatch m m 1 0.5618 
13-May-2018_16:09:58 Exp 7313 20 female R 1 4 4 moralOther moralOther match n m 0 0.3318 
13-May-2018_16:10:00 Exp 7313 20 female R 1 4 5 immoralOther immoralOther match n n 1 0.4970 
13-May-2018_16:10:02 Exp 7313 20 female R 1 4 6 immoralSelf immoralSelf match n m 0 0.3776 
13-May-2018_16:10:04 Exp 7313 20 female R 1 4 7 moralSelf immoralSelf mismatch m m 1 0.4718 
13-May-2018_16:10:06 Exp 7313 20 female R 1 4 8 moralOther moralSelf mismatch m m 1 0.3518 
13-May-2018_16:10:08 Exp 7313 20 female R 1 4 9 moralOther moralSelf mismatch m m 1 0.5016 
13-May-2018_16:10:10 Exp 7313 20 female R 1 4 10 moralSelf immoralOther mismatch m m 1 0.5101 
13-May-2018_16:10:12 Exp 7313 20 female R 1 4 11 immoralSelf immoralSelf match n m 0 0.3869 
13-May-2018_16:10:14 Exp 7313 20 female R 1 4 12 immoralSelf immoralSelf match n m 0 0.3493 
13-May-2018_16:10:16 Exp 7313 20 female R 1 4 13 immoralOther moralSelf mismatch m n 0 0.3028 
13-May-2018_16:10:17 Exp 7313 20 female R 1 4 14 immoralOther immoralOther match n m 0 0.2633 
13-May-2018_16:10:19 Exp 7313 20 female R 1 4 15 immoralSelf moralSelf mismatch m m 1 0.3312 
13-May-2018_16:10:21 Exp 7313 20 female R 1 4 16 moralSelf moralSelf match n m 0 0.2884 
13-May-2018_16:10:23 Exp 7313 20 female R 1 4 17 moralSelf immoralSelf mismatch m m 1 0.3167 
13-May-2018_16:10:25 Exp 7313 20 female R 1 4 18 moralSelf moralSelf match n m 0 0.3258 
13-May-2018_16:10:27 Exp 7313 20 female R 1 4 19 immoralSelf immoralOther mismatch m n 0 0.5348 
13-May-2018_16:10:29 Exp 7313 20 female R 1 4 20 immoralOther moralSelf mismatch m n 0 0.5000 
13-May-2018_16:10:31 Exp 7313 20 female R 1 4 21 moralOther moralOther match n n 1 0.5806 
13-May-2018_16:10:33 Exp 7313 20 female R 1 4 22 moralSelf moralSelf match n m 0 0.3948 
13-May-2018_16:10:35 Exp 7313 20 female R 1 4 23 immoralOther immoralOther match n m 0 0.5092 
13-May-2018_16:10:37 Exp 7313 20 female R 1 4 24 moralOther moralOther match n NA -1 1.0731 
13-May-2018_16:10:39 Exp 7313 20 female R 1 5 1 immoralOther immoralSelf mismatch m n 0 0.3301 
13-May-2018_16:10:41 Exp 7313 20 female R 1 5 2 moralSelf moralSelf match n m 0 0.3594 
13-May-2018_16:10:43 Exp 7313 20 female R 1 5 3 moralSelf immoralSelf mismatch m m 1 0.1732 
13-May-2018_16:10:45 Exp 7313 20 female R 1 5 4 moralOther moralOther match n m 0 0.3350 
13-May-2018_16:10:47 Exp 7313 20 female R 1 5 5 moralOther immoralSelf mismatch m m 1 0.4843 
13-May-2018_16:10:49 Exp 7313 20 female R 1 5 6 moralOther immoralSelf mismatch m m 1 0.5446 
13-May-2018_16:10:51 Exp 7313 20 female R 1 5 7 moralSelf immoralOther mismatch m m 1 0.6421 
13-May-2018_16:10:53 Exp 7313 20 female R 1 5 8 immoralSelf immoralSelf match n m 0 0.5014 
13-May-2018_16:10:55 Exp 7313 20 female R 1 5 9 immoralSelf moralOther mismatch m m 1 0.5820 
13-May-2018_16:10:57 Exp 7313 20 female R 1 5 10 immoralOther immoralSelf mismatch m m 1 0.5962 
13-May-2018_16:10:59 Exp 7313 20 female R 1 5 11 moralOther moralOther match n n 1 0.7026 
13-May-2018_16:11:01 Exp 7313 20 female R 1 5 12 immoralOther immoralOther match n n 1 0.4792 
13-May-2018_16:11:03 Exp 7313 20 female R 1 5 13 immoralSelf immoralOther mismatch m m 1 0.5033 
13-May-2018_16:11:05 Exp 7313 20 female R 1 5 14 moralOther moralOther match n m 0 0.3960 
13-May-2018_16:11:07 Exp 7313 20 female R 1 5 15 immoralOther immoralOther match n n 1 0.4464 
13-May-2018_16:11:09 Exp 7313 20 female R 1 5 16 moralSelf moralSelf match n m 0 0.4461 
13-May-2018_16:11:11 Exp 7313 20 female R 1 5 17 immoralSelf immoralOther mismatch m m 1 0.5497 
13-May-2018_16:11:14 Exp 7313 20 female R 1 5 18 immoralOther moralSelf mismatch m m 1 0.6552 
13-May-2018_16:11:16 Exp 7313 20 female R 1 5 19 immoralSelf immoralSelf match n m 0 0.4228 
13-May-2018_16:11:18 Exp 7313 20 female R 1 5 20 moralOther immoralOther mismatch m m 1 0.5740 
13-May-2018_16:11:20 Exp 7313 20 female R 1 5 21 moralSelf moralSelf match n m 0 0.5401 
13-May-2018_16:11:22 Exp 7313 20 female R 1 5 22 immoralSelf immoralSelf match n m 0 0.5576 
13-May-2018_16:11:24 Exp 7313 20 female R 1 5 23 immoralOther immoralOther match n n 1 0.5154 
13-May-2018_16:11:26 Exp 7313 20 female R 1 5 24 moralSelf immoralOther mismatch m m 1 0.5244 
13-May-2018_16:11:31 Exp 7313 20 female R 2 1 1 moralOther moralOther match n NA -1 1.0731 
13-May-2018_16:11:33 Exp 7313 20 female R 2 1 2 immoralSelf moralOther mismatch m m 1 0.1062 
13-May-2018_16:11:35 Exp 7313 20 female R 2 1 3 moralSelf immoralSelf mismatch m m 1 0.3389 
13-May-2018_16:11:37 Exp 7313 20 female R 2 1 4 immoralOther immoralSelf mismatch m m 1 0.6284 
13-May-2018_16:11:39 Exp 7313 20 female R 2 1 5 moralSelf moralSelf match n m 0 0.5075 
13-May-2018_16:11:41 Exp 7313 20 female R 2 1 6 immoralSelf immoralOther mismatch m m 1 0.4403 
13-May-2018_16:11:43 Exp 7313 20 female R 2 1 7 moralSelf moralOther mismatch m m 1 0.6117 
13-May-2018_16:11:45 Exp 7313 20 female R 2 1 8 moralOther immoralSelf mismatch m m 1 0.3745 
13-May-2018_16:11:47 Exp 7313 20 female R 2 1 9 moralOther moralSelf mismatch m m 1 0.5087 
13-May-2018_16:11:49 Exp 7313 20 female R 2 1 10 moralSelf moralSelf match n m 0 0.5376 
13-May-2018_16:11:51 Exp 7313 20 female R 2 1 11 immoralSelf immoralSelf match n m 0 0.6628 
13-May-2018_16:11:54 Exp 7313 20 female R 2 1 12 moralOther immoralOther mismatch m n 0 0.8426 
13-May-2018_16:11:56 Exp 7313 20 female R 2 1 13 moralSelf moralSelf match n m 0 0.6460 
13-May-2018_16:11:58 Exp 7313 20 female R 2 1 14 immoralSelf immoralSelf match n m 0 0.5257 
13-May-2018_16:12:00 Exp 7313 20 female R 2 1 15 moralOther moralOther match n m 0 0.7027 
13-May-2018_16:12:02 Exp 7313 20 female R 2 1 16 immoralOther immoralOther match n n 1 0.4712 
13-May-2018_16:12:05 Exp 7313 20 female R 2 1 17 immoralSelf moralSelf mismatch m m 1 0.8713 
13-May-2018_16:12:07 Exp 7313 20 female R 2 1 18 immoralOther immoralOther match n n 1 0.5034 
13-May-2018_16:12:09 Exp 7313 20 female R 2 1 19 moralOther moralOther match n n 1 0.6602 
13-May-2018_16:12:11 Exp 7313 20 female R 2 1 20 immoralSelf immoralSelf match n m 0 0.4801 
13-May-2018_16:12:13 Exp 7313 20 female R 2 1 21 moralSelf moralOther mismatch m m 1 0.7564 
13-May-2018_16:12:15 Exp 7313 20 female R 2 1 22 immoralOther immoralOther match n n 1 0.5141 
13-May-2018_16:12:17 Exp 7313 20 female R 2 1 23 immoralOther moralSelf mismatch m m 1 0.5189 
13-May-2018_16:12:19 Exp 7313 20 female R 2 1 24 immoralOther moralSelf mismatch m m 1 0.4879 
13-May-2018_16:12:21 Exp 7313 20 female R 2 2 1 immoralSelf immoralSelf match n m 0 0.3963 
13-May-2018_16:12:23 Exp 7313 20 female R 2 2 2 immoralOther immoralOther match n n 1 0.4706 
13-May-2018_16:12:25 Exp 7313 20 female R 2 2 3 immoralSelf immoralOther mismatch m n 0 0.4307 
13-May-2018_16:12:27 Exp 7313 20 female R 2 2 4 moralSelf moralOther mismatch m m 1 0.3659 
13-May-2018_16:12:29 Exp 7313 20 female R 2 2 5 immoralSelf immoralSelf match n m 0 0.5118 
13-May-2018_16:12:31 Exp 7313 20 female R 2 2 6 immoralOther immoralOther match n n 1 0.4686 
13-May-2018_16:12:33 Exp 7313 20 female R 2 2 7 immoralSelf immoralSelf match n n 1 0.4687 
13-May-2018_16:12:35 Exp 7313 20 female R 2 2 8 moralOther moralOther match n n 1 0.8128 
13-May-2018_16:12:38 Exp 7313 20 female R 2 2 9 moralOther moralSelf mismatch m m 1 0.6877 
13-May-2018_16:12:40 Exp 7313 20 female R 2 2 10 immoralOther moralOther mismatch m n 0 0.5000 
13-May-2018_16:12:42 Exp 7313 20 female R 2 2 11 immoralOther immoralSelf mismatch m m 1 0.7006 
13-May-2018_16:12:44 Exp 7313 20 female R 2 2 12 moralSelf immoralSelf mismatch m m 1 0.6611 
13-May-2018_16:12:46 Exp 7313 20 female R 2 2 13 immoralSelf immoralOther mismatch m m 1 0.6170 
13-May-2018_16:12:48 Exp 7313 20 female R 2 2 14 immoralOther immoralOther match n n 1 0.5158 
13-May-2018_16:12:50 Exp 7313 20 female R 2 2 15 immoralOther immoralSelf mismatch m m 1 0.5409 
13-May-2018_16:12:52 Exp 7313 20 female R 2 2 16 moralOther moralSelf mismatch m m 1 0.4784 
13-May-2018_16:12:54 Exp 7313 20 female R 2 2 17 moralSelf moralSelf match n m 0 0.5024 
13-May-2018_16:12:57 Exp 7313 20 female R 2 2 18 immoralSelf moralSelf mismatch m m 1 0.6951 
13-May-2018_16:12:59 Exp 7313 20 female R 2 2 19 moralOther moralOther match n n 1 0.5995 
13-May-2018_16:13:01 Exp 7313 20 female R 2 2 20 moralSelf moralSelf match n m 0 0.5662 
13-May-2018_16:13:03 Exp 7313 20 female R 2 2 21 moralOther moralOther match n n 1 0.5202 
13-May-2018_16:13:05 Exp 7313 20 female R 2 2 22 moralSelf moralSelf match n n 1 0.4253 
13-May-2018_16:13:07 Exp 7313 20 female R 2 2 23 moralOther moralSelf mismatch m n 0 0.6565 
13-May-2018_16:13:09 Exp 7313 20 female R 2 2 24 moralSelf immoralOther mismatch m m 1 0.5722 
13-May-2018_16:13:11 Exp 7313 20 female R 2 3 1 moralSelf moralSelf match n m 0 0.6062 
13-May-2018_16:13:13 Exp 7313 20 female R 2 3 2 immoralOther immoralOther match n m 0 0.1969 
13-May-2018_16:13:15 Exp 7313 20 female R 2 3 3 moralOther moralOther match n m 0 0.4152 
13-May-2018_16:13:17 Exp 7313 20 female R 2 3 4 immoralSelf moralOther mismatch m m 1 0.6022 
13-May-2018_16:13:19 Exp 7313 20 female R 2 3 5 immoralSelf immoralSelf match n m 0 0.7688 
13-May-2018_16:13:21 Exp 7313 20 female R 2 3 6 moralOther immoralSelf mismatch m m 1 0.5709 
13-May-2018_16:13:24 Exp 7313 20 female R 2 3 7 moralSelf moralSelf match n n 1 0.6288 
13-May-2018_16:13:26 Exp 7313 20 female R 2 3 8 immoralOther immoralSelf mismatch m n 0 0.4279 
13-May-2018_16:13:28 Exp 7313 20 female R 2 3 9 immoralOther immoralOther match n n 1 0.4750 
13-May-2018_16:13:30 Exp 7313 20 female R 2 3 10 moralOther moralOther match n n 1 0.8032 
13-May-2018_16:13:32 Exp 7313 20 female R 2 3 11 moralOther moralOther match n m 0 0.6578 
13-May-2018_16:13:34 Exp 7313 20 female R 2 3 12 immoralOther moralSelf mismatch m n 0 0.4377 
13-May-2018_16:13:36 Exp 7313 20 female R 2 3 13 immoralOther immoralOther match n n 1 0.4011 
13-May-2018_16:13:38 Exp 7313 20 female R 2 3 14 immoralSelf immoralSelf match n m 0 0.4077 
13-May-2018_16:13:40 Exp 7313 20 female R 2 3 15 moralSelf immoralOther mismatch m n 0 0.4545 
13-May-2018_16:13:42 Exp 7313 20 female R 2 3 16 moralOther moralSelf mismatch m m 1 0.4940 
13-May-2018_16:13:44 Exp 7313 20 female R 2 3 17 moralSelf moralSelf match n NA -1 1.0731 
13-May-2018_16:13:47 Exp 7313 20 female R 2 3 18 immoralOther moralSelf mismatch m m 1 0.6146 
13-May-2018_16:13:49 Exp 7313 20 female R 2 3 19 immoralSelf immoralSelf match n m 0 0.6175 
13-May-2018_16:13:51 Exp 7313 20 female R 2 3 20 moralOther immoralSelf mismatch m m 1 0.7004 
13-May-2018_16:13:53 Exp 7313 20 female R 2 3 21 immoralSelf immoralOther mismatch m m 1 0.9010 
13-May-2018_16:13:56 Exp 7313 20 female R 2 3 22 immoralSelf moralSelf mismatch m n 0 0.6215 
13-May-2018_16:13:57 Exp 7313 20 female R 2 3 23 moralSelf immoralSelf mismatch m n 0 0.4368 
13-May-2018_16:14:00 Exp 7313 20 female R 2 3 24 moralSelf immoralSelf mismatch m m 1 0.6881 
13-May-2018_16:14:16 Exp 7313 20 female R 2 4 1 immoralOther moralSelf mismatch m NA -1 1.0731 
13-May-2018_16:14:18 Exp 7313 20 female R 2 4 2 immoralOther moralOther mismatch m n 0 0.4384 
13-May-2018_16:14:20 Exp 7313 20 female R 2 4 3 moralSelf moralSelf match n n 1 0.5618 
13-May-2018_16:14:22 Exp 7313 20 female R 2 4 4 immoralSelf immoralSelf match n n 1 0.6037 
13-May-2018_16:14:24 Exp 7313 20 female R 2 4 5 moralSelf moralSelf match n m 0 0.5706 
13-May-2018_16:14:26 Exp 7313 20 female R 2 4 6 moralSelf moralOther mismatch m m 1 0.6764 
13-May-2018_16:14:28 Exp 7313 20 female R 2 4 7 moralOther immoralSelf mismatch m m 1 0.6526 
13-May-2018_16:14:31 Exp 7313 20 female R 2 4 8 moralOther moralOther match n m 0 0.6601 
13-May-2018_16:14:33 Exp 7313 20 female R 2 4 9 moralSelf moralOther mismatch m m 1 0.6320 
13-May-2018_16:14:35 Exp 7313 20 female R 2 4 10 immoralSelf immoralSelf match n n 1 0.6952 
13-May-2018_16:14:37 Exp 7313 20 female R 2 4 11 moralSelf moralSelf match n m 0 0.6957 
13-May-2018_16:14:39 Exp 7313 20 female R 2 4 12 moralOther moralOther match n n 1 0.6082 
13-May-2018_16:14:42 Exp 7313 20 female R 2 4 13 immoralSelf moralOther mismatch m n 0 0.6550 
13-May-2018_16:14:44 Exp 7313 20 female R 2 4 14 immoralSelf moralSelf mismatch m n 0 0.6386 
13-May-2018_16:14:46 Exp 7313 20 female R 2 4 15 immoralOther immoralOther match n n 1 0.7939 
13-May-2018_16:14:48 Exp 7313 20 female R 2 4 16 immoralOther immoralOther match n n 1 0.5963 
13-May-2018_16:14:50 Exp 7313 20 female R 2 4 17 moralOther immoralOther mismatch m m 1 0.4788 
13-May-2018_16:14:52 Exp 7313 20 female R 2 4 18 immoralSelf moralOther mismatch m n 0 0.5429 
13-May-2018_16:14:54 Exp 7313 20 female R 2 4 19 moralSelf moralOther mismatch m m 1 0.6884 
13-May-2018_16:14:57 Exp 7313 20 female R 2 4 20 immoralSelf immoralSelf match n m 0 0.6207 
13-May-2018_16:14:59 Exp 7313 20 female R 2 4 21 immoralOther immoralOther match n n 1 0.4438 
13-May-2018_16:15:01 Exp 7313 20 female R 2 4 22 immoralOther immoralSelf mismatch m m 1 0.5112 
13-May-2018_16:15:03 Exp 7313 20 female R 2 4 23 moralOther moralOther match n n 1 0.5159 
13-May-2018_16:15:05 Exp 7313 20 female R 2 4 24 moralOther immoralOther mismatch m m 1 0.7410 
13-May-2018_16:15:07 Exp 7313 20 female R 2 5 1 moralSelf immoralSelf mismatch m m 1 0.4386 
13-May-2018_16:15:09 Exp 7313 20 female R 2 5 2 moralOther moralOther match n n 1 0.6259 
13-May-2018_16:15:11 Exp 7313 20 female R 2 5 3 moralSelf moralSelf match n m 0 0.6011 
13-May-2018_16:15:13 Exp 7313 20 female R 2 5 4 immoralSelf immoralSelf match n n 1 0.6477 
13-May-2018_16:15:15 Exp 7313 20 female R 2 5 5 moralOther immoralSelf mismatch m m 1 0.5434 
13-May-2018_16:15:17 Exp 7313 20 female R 2 5 6 immoralSelf immoralSelf match n m 0 0.5208 
13-May-2018_16:15:19 Exp 7313 20 female R 2 5 7 moralOther immoralOther mismatch m m 1 0.5298 
13-May-2018_16:15:22 Exp 7313 20 female R 2 5 8 moralOther moralOther match n m 0 0.6151 
13-May-2018_16:15:24 Exp 7313 20 female R 2 5 9 immoralOther immoralOther match n n 1 0.4180 
13-May-2018_16:15:26 Exp 7313 20 female R 2 5 10 immoralOther immoralSelf mismatch m m 1 0.7249 
13-May-2018_16:15:28 Exp 7313 20 female R 2 5 11 moralSelf moralOther mismatch m m 1 0.6539 
13-May-2018_16:15:30 Exp 7313 20 female R 2 5 12 immoralSelf immoralOther mismatch m m 1 0.5096 
13-May-2018_16:15:32 Exp 7313 20 female R 2 5 13 moralSelf moralSelf match n m 0 0.5864 
13-May-2018_16:15:34 Exp 7313 20 female R 2 5 14 moralSelf immoralOther mismatch m m 1 0.6847 
13-May-2018_16:15:36 Exp 7313 20 female R 2 5 15 moralSelf moralSelf match n m 0 0.5211 
13-May-2018_16:15:39 Exp 7313 20 female R 2 5 16 immoralSelf moralSelf mismatch m n 0 0.6661 
13-May-2018_16:15:41 Exp 7313 20 female R 2 5 17 immoralSelf moralSelf mismatch m m 1 0.5259 
13-May-2018_16:15:43 Exp 7313 20 female R 2 5 18 moralOther moralOther match n n 1 0.7030 
13-May-2018_16:15:45 Exp 7313 20 female R 2 5 19 moralOther immoralSelf mismatch m m 1 0.4598 
13-May-2018_16:15:47 Exp 7313 20 female R 2 5 20 immoralOther moralOther mismatch m m 1 0.6556 
13-May-2018_16:15:49 Exp 7313 20 female R 2 5 21 immoralOther immoralOther match n n 1 0.4312 
13-May-2018_16:15:51 Exp 7313 20 female R 2 5 22 immoralOther immoralSelf mismatch m m 1 0.4864 
13-May-2018_16:15:53 Exp 7313 20 female R 2 5 23 immoralOther immoralOther match n m 0 0.5866 
13-May-2018_16:15:55 Exp 7313 20 female R 2 5 24 immoralSelf immoralSelf match n m 0 0.6691 
13-May-2018_16:16:01 Exp 7313 20 female R 3 1 1 moralOther moralSelf mismatch m n 0 0.7978 
13-May-2018_16:16:03 Exp 7313 20 female R 3 1 2 moralSelf moralSelf match n m 0 0.5165 
13-May-2018_16:16:05 Exp 7313 20 female R 3 1 3 immoralOther moralOther mismatch m m 1 0.6375 
13-May-2018_16:16:07 Exp 7313 20 female R 3 1 4 immoralSelf immoralOther mismatch m m 1 0.6089 
13-May-2018_16:16:09 Exp 7313 20 female R 3 1 5 immoralSelf moralSelf mismatch m n 0 0.5078 
13-May-2018_16:16:11 Exp 7313 20 female R 3 1 6 moralSelf moralOther mismatch m m 1 0.6245 
13-May-2018_16:16:13 Exp 7313 20 female R 3 1 7 moralSelf moralSelf match n n 1 0.5599 
13-May-2018_16:16:15 Exp 7313 20 female R 3 1 8 moralOther immoralOther mismatch m m 1 0.6214 
13-May-2018_16:16:18 Exp 7313 20 female R 3 1 9 moralOther moralOther match n n 1 0.7486 
13-May-2018_16:16:20 Exp 7313 20 female R 3 1 10 moralOther immoralSelf mismatch m m 1 0.5181 
13-May-2018_16:16:22 Exp 7313 20 female R 3 1 11 moralSelf immoralOther mismatch m n 0 0.5111 
13-May-2018_16:16:24 Exp 7313 20 female R 3 1 12 immoralOther immoralOther match n n 1 0.4759 
13-May-2018_16:16:26 Exp 7313 20 female R 3 1 13 moralOther moralOther match n n 1 0.5080 
13-May-2018_16:16:28 Exp 7313 20 female R 3 1 14 immoralSelf immoralSelf match n m 0 0.5287 
13-May-2018_16:16:30 Exp 7313 20 female R 3 1 15 immoralOther immoralOther match n n 1 0.7100 
13-May-2018_16:16:32 Exp 7313 20 female R 3 1 16 immoralOther moralSelf mismatch m m 1 0.5068 
13-May-2018_16:16:34 Exp 7313 20 female R 3 1 17 immoralOther immoralOther match n n 1 0.5436 
13-May-2018_16:16:36 Exp 7313 20 female R 3 1 18 moralSelf moralOther mismatch m m 1 0.5211 
13-May-2018_16:16:38 Exp 7313 20 female R 3 1 19 immoralSelf immoralSelf match n n 1 0.6661 
13-May-2018_16:16:40 Exp 7313 20 female R 3 1 20 moralSelf moralSelf match n m 0 0.5020 
13-May-2018_16:16:43 Exp 7313 20 female R 3 1 21 immoralSelf immoralOther mismatch m n 0 0.5186 
13-May-2018_16:16:45 Exp 7313 20 female R 3 1 22 immoralOther immoralSelf mismatch m m 1 0.6476 
13-May-2018_16:16:47 Exp 7313 20 female R 3 1 23 immoralSelf immoralSelf match n m 0 0.5192 
13-May-2018_16:16:49 Exp 7313 20 female R 3 1 24 moralOther moralOther match n m 0 0.6881 
13-May-2018_16:16:51 Exp 7313 20 female R 3 2 1 immoralSelf immoralSelf match n m 0 0.5325 
13-May-2018_16:16:53 Exp 7313 20 female R 3 2 2 moralOther moralOther match n n 1 0.6417 
13-May-2018_16:16:55 Exp 7313 20 female R 3 2 3 immoralSelf immoralOther mismatch m m 1 0.6212 
13-May-2018_16:16:57 Exp 7313 20 female R 3 2 4 moralOther immoralOther mismatch m m 1 0.5883 
13-May-2018_16:17:00 Exp 7313 20 female R 3 2 5 immoralSelf immoralSelf match n m 0 0.6068 
13-May-2018_16:17:02 Exp 7313 20 female R 3 2 6 immoralSelf immoralSelf match n n 1 0.4534 
13-May-2018_16:17:04 Exp 7313 20 female R 3 2 7 immoralSelf immoralOther mismatch m n 0 0.4051 
13-May-2018_16:17:06 Exp 7313 20 female R 3 2 8 moralSelf moralSelf match n m 0 0.6757 
13-May-2018_16:17:08 Exp 7313 20 female R 3 2 9 moralSelf immoralOther mismatch m m 1 0.5878 
13-May-2018_16:17:10 Exp 7313 20 female R 3 2 10 immoralOther immoralOther match n n 1 0.4143 
13-May-2018_16:17:12 Exp 7313 20 female R 3 2 11 immoralOther immoralOther match n n 1 0.3931 
13-May-2018_16:17:14 Exp 7313 20 female R 3 2 12 moralSelf immoralSelf mismatch m m 1 0.4515 
13-May-2018_16:17:16 Exp 7313 20 female R 3 2 13 moralSelf moralOther mismatch m m 1 0.5951 
13-May-2018_16:17:18 Exp 7313 20 female R 3 2 14 moralOther moralSelf mismatch m n 0 0.5656 
13-May-2018_16:17:20 Exp 7313 20 female R 3 2 15 immoralSelf immoralOther mismatch m n 0 0.5354 
13-May-2018_16:17:22 Exp 7313 20 female R 3 2 16 moralSelf moralSelf match n m 0 0.6048 
13-May-2018_16:17:24 Exp 7313 20 female R 3 2 17 immoralOther moralOther mismatch m m 1 0.6194 
13-May-2018_16:17:26 Exp 7313 20 female R 3 2 18 moralOther moralOther match n n 1 0.7824 
13-May-2018_16:17:29 Exp 7313 20 female R 3 2 19 immoralOther moralOther mismatch m m 1 0.5246 
13-May-2018_16:17:31 Exp 7313 20 female R 3 2 20 moralSelf moralSelf match n m 0 0.7256 
13-May-2018_16:17:33 Exp 7313 20 female R 3 2 21 moralOther immoralOther mismatch m m 1 0.6706 
13-May-2018_16:17:35 Exp 7313 20 female R 3 2 22 immoralOther moralSelf mismatch m m 1 0.5507 
13-May-2018_16:17:37 Exp 7313 20 female R 3 2 23 moralOther moralOther match n n 1 0.5565 
13-May-2018_16:17:39 Exp 7313 20 female R 3 2 24 immoralOther immoralOther match n n 1 0.6662 
13-May-2018_16:17:41 Exp 7313 20 female R 3 3 1 immoralOther immoralOther match n n 1 0.4461 
13-May-2018_16:17:43 Exp 7313 20 female R 3 3 2 moralSelf moralSelf match n m 0 0.4776 
13-May-2018_16:17:45 Exp 7313 20 female R 3 3 3 immoralOther moralSelf mismatch m m 1 0.5657 
13-May-2018_16:17:48 Exp 7313 20 female R 3 3 4 moralOther immoralOther mismatch m m 1 0.7037 
13-May-2018_16:17:50 Exp 7313 20 female R 3 3 5 moralOther moralOther match n n 1 0.5885 
13-May-2018_16:17:52 Exp 7313 20 female R 3 3 6 immoralSelf moralSelf mismatch m n 0 0.6709 
13-May-2018_16:17:54 Exp 7313 20 female R 3 3 7 moralOther moralOther match n n 1 0.5669 
13-May-2018_16:17:56 Exp 7313 20 female R 3 3 8 immoralSelf immoralSelf match n m 0 0.6490 
13-May-2018_16:17:58 Exp 7313 20 female R 3 3 9 moralSelf immoralOther mismatch m m 1 0.6005 
13-May-2018_16:18:00 Exp 7313 20 female R 3 3 10 immoralOther immoralOther match n n 1 0.5272 
13-May-2018_16:18:02 Exp 7313 20 female R 3 3 11 moralOther moralOther match n n 1 0.5245 
13-May-2018_16:18:04 Exp 7313 20 female R 3 3 12 moralSelf moralSelf match n m 0 0.4935 
13-May-2018_16:18:07 Exp 7313 20 female R 3 3 13 moralSelf immoralSelf mismatch m m 1 0.6221 
13-May-2018_16:18:09 Exp 7313 20 female R 3 3 14 moralOther moralSelf mismatch m n 0 0.4773 
13-May-2018_16:18:11 Exp 7313 20 female R 3 3 15 immoralOther immoralOther match n n 1 0.6773 
13-May-2018_16:18:13 Exp 7313 20 female R 3 3 16 moralSelf moralOther mismatch m m 1 0.5414 
13-May-2018_16:18:15 Exp 7313 20 female R 3 3 17 moralSelf moralSelf match n n 1 0.6230 
13-May-2018_16:18:17 Exp 7313 20 female R 3 3 18 immoralSelf immoralSelf match n m 0 0.4940 
13-May-2018_16:18:19 Exp 7313 20 female R 3 3 19 immoralOther moralSelf mismatch m m 1 0.6546 
13-May-2018_16:18:21 Exp 7313 20 female R 3 3 20 immoralOther moralSelf mismatch m m 1 0.5902 
13-May-2018_16:18:24 Exp 7313 20 female R 3 3 21 immoralSelf immoralOther mismatch m m 1 0.7766 
13-May-2018_16:18:26 Exp 7313 20 female R 3 3 22 moralOther moralSelf mismatch m m 1 0.9348 
13-May-2018_16:18:28 Exp 7313 20 female R 3 3 23 immoralSelf immoralOther mismatch m m 1 0.7241 
13-May-2018_16:18:30 Exp 7313 20 female R 3 3 24 immoralSelf immoralSelf match n m 0 0.4691 
13-May-2018_16:18:39 Exp 7313 20 female R 3 4 1 moralSelf moralSelf match n m 0 0.6172 
13-May-2018_16:18:41 Exp 7313 20 female R 3 4 2 immoralSelf moralOther mismatch m n 0 0.4921 
13-May-2018_16:18:43 Exp 7313 20 female R 3 4 3 moralOther moralSelf mismatch m n 0 0.5647 
13-May-2018_16:18:46 Exp 7313 20 female R 3 4 4 moralSelf moralOther mismatch m m 1 0.5588 
13-May-2018_16:18:48 Exp 7313 20 female R 3 4 5 immoralSelf immoralSelf match n m 0 0.5724 
13-May-2018_16:18:50 Exp 7313 20 female R 3 4 6 moralSelf moralSelf match n n 1 0.8784 
13-May-2018_16:18:52 Exp 7313 20 female R 3 4 7 immoralOther moralOther mismatch m m 1 0.4545 
13-May-2018_16:18:54 Exp 7313 20 female R 3 4 8 moralSelf immoralOther mismatch m m 1 0.4301 
13-May-2018_16:18:56 Exp 7313 20 female R 3 4 9 immoralSelf immoralOther mismatch m m 1 0.4532 
13-May-2018_16:18:58 Exp 7313 20 female R 3 4 10 immoralOther moralOther mismatch m n 0 0.5568 
13-May-2018_16:19:00 Exp 7313 20 female R 3 4 11 moralOther moralSelf mismatch m n 0 0.6026 
13-May-2018_16:19:02 Exp 7313 20 female R 3 4 12 moralOther moralOther match n n 1 0.6572 
13-May-2018_16:19:04 Exp 7313 20 female R 3 4 13 immoralOther immoralOther match n m 0 0.4531 
13-May-2018_16:19:06 Exp 7313 20 female R 3 4 14 moralOther moralOther match n m 0 0.4527 
13-May-2018_16:19:08 Exp 7313 20 female R 3 4 15 moralSelf moralSelf match n m 0 0.5962 
13-May-2018_16:19:11 Exp 7313 20 female R 3 4 16 immoralOther immoralOther match n n 1 0.6547 
13-May-2018_16:19:13 Exp 7313 20 female R 3 4 17 immoralOther immoralOther match n n 1 0.4463 
13-May-2018_16:19:14 Exp 7313 20 female R 3 4 18 immoralSelf immoralOther mismatch m m 1 0.3820 
13-May-2018_16:19:17 Exp 7313 20 female R 3 4 19 immoralSelf immoralSelf match n m 0 0.5321 
13-May-2018_16:19:19 Exp 7313 20 female R 3 4 20 moralSelf immoralSelf mismatch m m 1 0.7214 
13-May-2018_16:19:21 Exp 7313 20 female R 3 4 21 moralOther immoralSelf mismatch m m 1 0.7384 
13-May-2018_16:19:23 Exp 7313 20 female R 3 4 22 immoralOther moralOther mismatch m m 1 0.6120 
13-May-2018_16:19:25 Exp 7313 20 female R 3 4 23 moralOther moralOther match n m 0 0.5509 
13-May-2018_16:19:27 Exp 7313 20 female R 3 4 24 immoralSelf immoralSelf match n m 0 0.4606 
13-May-2018_16:19:29 Exp 7313 20 female R 3 5 1 immoralOther moralOther mismatch m n 0 0.4324 
13-May-2018_16:19:31 Exp 7313 20 female R 3 5 2 immoralSelf immoralSelf match n n 1 0.6918 
13-May-2018_16:19:33 Exp 7313 20 female R 3 5 3 moralOther moralOther match n n 1 0.5081 
13-May-2018_16:19:36 Exp 7313 20 female R 3 5 4 immoralSelf immoralOther mismatch m m 1 0.5052 
13-May-2018_16:19:38 Exp 7313 20 female R 3 5 5 moralSelf moralSelf match n m 0 0.7339 
13-May-2018_16:19:40 Exp 7313 20 female R 3 5 6 moralSelf moralSelf match n n 1 0.4432 
13-May-2018_16:19:42 Exp 7313 20 female R 3 5 7 immoralSelf immoralSelf match n m 0 0.4786 
13-May-2018_16:19:44 Exp 7313 20 female R 3 5 8 moralSelf immoralSelf mismatch m m 1 0.5347 
13-May-2018_16:19:46 Exp 7313 20 female R 3 5 9 immoralSelf moralSelf mismatch m m 1 0.7319 
13-May-2018_16:19:48 Exp 7313 20 female R 3 5 10 moralOther immoralSelf mismatch m m 1 0.6252 
13-May-2018_16:19:50 Exp 7313 20 female R 3 5 11 moralSelf immoralSelf mismatch m m 1 0.7043 
13-May-2018_16:19:53 Exp 7313 20 female R 3 5 12 moralOther moralOther match n n 1 0.6531 
13-May-2018_16:19:55 Exp 7313 20 female R 3 5 13 moralOther moralOther match n m 0 0.6367 
13-May-2018_16:19:57 Exp 7313 20 female R 3 5 14 immoralOther immoralOther match n n 1 0.5441 
13-May-2018_16:19:59 Exp 7313 20 female R 3 5 15 immoralOther moralSelf mismatch m m 1 0.4816 
13-May-2018_16:20:01 Exp 7313 20 female R 3 5 16 moralOther immoralSelf mismatch m m 1 0.6539 
13-May-2018_16:20:03 Exp 7313 20 female R 3 5 17 immoralOther immoralOther match n m 0 0.4856 
13-May-2018_16:20:05 Exp 7313 20 female R 3 5 18 moralSelf moralSelf match n m 0 0.5619 
13-May-2018_16:20:07 Exp 7313 20 female R 3 5 19 immoralSelf immoralSelf match n m 0 0.7558 
13-May-2018_16:20:10 Exp 7313 20 female R 3 5 20 moralSelf moralOther mismatch m m 1 0.5935 
13-May-2018_16:20:12 Exp 7313 20 female R 3 5 21 immoralOther immoralOther match n n 1 0.6600 
13-May-2018_16:20:14 Exp 7313 20 female R 3 5 22 immoralOther moralSelf mismatch m m 1 0.6959 
13-May-2018_16:20:16 Exp 7313 20 female R 3 5 23 immoralSelf moralSelf mismatch m m 1 0.7364 
13-May-2018_16:20:19 Exp 7313 20 female R 3 5 24 moralOther moralSelf mismatch m m 1 0.8217 
Date Prac Sub Age Sex Hand Block Bin Trial Shape Label Match CorrResp Resp ACC RT
13-May-2018_16:24:55 Exp 7313 20 female R 1 1 1 moralOther moralOther match n n 1 0.7812 
13-May-2018_16:24:57 Exp 7313 20 female R 1 1 2 moralOther immoralOther mismatch m m 1 0.6275 
13-May-2018_16:24:59 Exp 7313 20 female R 1 1 3 moralSelf moralSelf match n m 0 0.4026 
13-May-2018_16:25:01 Exp 7313 20 female R 1 1 4 immoralOther moralOther mismatch m m 1 0.6253 
13-May-2018_16:25:03 Exp 7313 20 female R 1 1 5 moralSelf immoralSelf mismatch m m 1 0.5365 
13-May-2018_16:25:05 Exp 7313 20 female R 1 1 6 immoralSelf immoralSelf match n m 0 0.5017 
13-May-2018_16:25:07 Exp 7313 20 female R 1 1 7 immoralOther immoralSelf mismatch m n 0 0.7342 
13-May-2018_16:25:09 Exp 7313 20 female R 1 1 8 immoralOther immoralOther match n n 1 0.5876 
13-May-2018_16:25:11 Exp 7313 20 female R 1 1 9 immoralSelf immoralSelf match n m 0 0.5259 
13-May-2018_16:25:13 Exp 7313 20 female R 1 1 10 immoralOther immoralOther match n n 1 0.5190 
13-May-2018_16:25:15 Exp 7313 20 female R 1 1 11 immoralOther moralSelf mismatch m m 1 0.5920 
13-May-2018_16:25:18 Exp 7313 20 female R 1 1 12 immoralSelf immoralSelf match n n 1 0.6424 
13-May-2018_16:25:20 Exp 7313 20 female R 1 1 13 moralOther immoralOther mismatch m m 1 0.8298 
13-May-2018_16:25:22 Exp 7313 20 female R 1 1 14 immoralSelf moralOther mismatch m m 1 0.7090 
13-May-2018_16:25:24 Exp 7313 20 female R 1 1 15 moralOther immoralSelf mismatch m m 1 0.4898 
13-May-2018_16:25:26 Exp 7313 20 female R 1 1 16 immoralSelf immoralOther mismatch m m 1 0.7421 
13-May-2018_16:25:29 Exp 7313 20 female R 1 1 17 moralSelf moralOther mismatch m m 1 0.5835 
13-May-2018_16:25:31 Exp 7313 20 female R 1 1 18 moralSelf moralSelf match n n 1 0.5738 
13-May-2018_16:25:33 Exp 7313 20 female R 1 1 19 moralOther moralOther match n m 0 0.5240 
13-May-2018_16:25:35 Exp 7313 20 female R 1 1 20 moralOther moralOther match n n 1 0.4850 
13-May-2018_16:25:37 Exp 7313 20 female R 1 1 21 moralSelf immoralOther mismatch m m 1 0.6253 
13-May-2018_16:25:39 Exp 7313 20 female R 1 1 22 immoralOther immoralOther match n n 1 0.5924 
13-May-2018_16:25:41 Exp 7313 20 female R 1 1 23 immoralSelf immoralOther mismatch m m 1 0.4749 
13-May-2018_16:25:43 Exp 7313 20 female R 1 1 24 moralSelf moralSelf match n m 0 0.4830 
13-May-2018_16:25:45 Exp 7313 20 female R 1 2 1 moralSelf moralSelf match n n 1 0.4793 
13-May-2018_16:25:47 Exp 7313 20 female R 1 2 2 immoralOther immoralOther match n n 1 0.4634 
13-May-2018_16:25:49 Exp 7313 20 female R 1 2 3 immoralSelf immoralOther mismatch m m 1 0.5232 
13-May-2018_16:25:51 Exp 7313 20 female R 1 2 4 moralOther moralOther match n n 1 0.5163 
13-May-2018_16:25:53 Exp 7313 20 female R 1 2 5 moralSelf moralOther mismatch m m 1 0.5172 
13-May-2018_16:25:55 Exp 7313 20 female R 1 2 6 moralSelf immoralOther mismatch m m 1 0.6942 
13-May-2018_16:25:57 Exp 7313 20 female R 1 2 7 immoralSelf immoralOther mismatch m m 1 0.4868 
13-May-2018_16:26:00 Exp 7313 20 female R 1 2 8 immoralSelf immoralSelf match n m 0 0.6031 
13-May-2018_16:26:02 Exp 7313 20 female R 1 2 9 moralOther moralOther match n n 1 0.4898 
13-May-2018_16:26:04 Exp 7313 20 female R 1 2 10 immoralOther moralSelf mismatch m m 1 0.5821 
13-May-2018_16:26:06 Exp 7313 20 female R 1 2 11 immoralOther moralOther mismatch m n 0 0.4283 
13-May-2018_16:26:08 Exp 7313 20 female R 1 2 12 moralSelf moralSelf match n m 0 0.4994 
13-May-2018_16:26:10 Exp 7313 20 female R 1 2 13 moralOther immoralOther mismatch m m 1 0.5400 
13-May-2018_16:26:12 Exp 7313 20 female R 1 2 14 moralOther immoralOther mismatch m m 1 0.6295 
13-May-2018_16:26:14 Exp 7313 20 female R 1 2 15 moralSelf moralSelf match n m 0 0.5007 
13-May-2018_16:26:16 Exp 7313 20 female R 1 2 16 immoralSelf immoralSelf match n m 0 0.4853 
13-May-2018_16:26:18 Exp 7313 20 female R 1 2 17 immoralOther immoralOther match n n 1 0.5856 
13-May-2018_16:26:20 Exp 7313 20 female R 1 2 18 moralOther moralOther match n m 0 0.5800 
13-May-2018_16:26:22 Exp 7313 20 female R 1 2 19 moralSelf immoralOther mismatch m m 1 0.5381 
13-May-2018_16:26:24 Exp 7313 20 female R 1 2 20 moralOther immoralOther mismatch m m 1 0.5397 
13-May-2018_16:26:26 Exp 7313 20 female R 1 2 21 immoralOther immoralOther match n n 1 0.5892 
13-May-2018_16:26:28 Exp 7313 20 female R 1 2 22 immoralSelf moralOther mismatch m m 1 0.5356 
13-May-2018_16:26:30 Exp 7313 20 female R 1 2 23 immoralSelf immoralSelf match n m 0 0.4608 
13-May-2018_16:26:32 Exp 7313 20 female R 1 2 24 immoralOther moralSelf mismatch m m 1 0.5287 
Date Prac Sub Age Sex Hand Block Bin Trial Shape Label Match CorrResp Resp ACC RT
13-May-2018_16:31:02 Exp 7313 20 female R 1 1 1 immoralSelf immoralSelf match n m 0 0.7562 
13-May-2018_16:31:04 Exp 7313 20 female R 1 1 2 immoralSelf moralOther mismatch m m 1 0.5780 
13-May-2018_16:31:06 Exp 7313 20 female R 1 1 3 moralSelf moralSelf match n n 1 0.6722 
13-May-2018_16:31:08 Exp 7313 20 female R 1 1 4 moralOther immoralSelf mismatch m m 1 0.5443 
13-May-2018_16:31:10 Exp 7313 20 female R 1 1 5 moralOther moralOther match n n 1 0.5858 
13-May-2018_16:31:12 Exp 7313 20 female R 1 1 6 immoralOther immoralOther match n n 1 0.4923 
13-May-2018_16:31:14 Exp 7313 20 female R 1 1 7 moralOther immoralOther mismatch m m 1 0.5648 
13-May-2018_16:31:16 Exp 7313 20 female R 1 1 8 moralOther moralOther match n n 1 0.4628 
13-May-2018_16:31:18 Exp 7313 20 female R 1 1 9 immoralOther moralOther mismatch m m 1 0.5626 
13-May-2018_16:31:20 Exp 7313 20 female R 1 1 10 moralOther immoralSelf mismatch m m 1 0.4605 
13-May-2018_16:31:23 Exp 7313 20 female R 1 1 11 immoralSelf immoralSelf match n m 0 0.6084 
13-May-2018_16:31:25 Exp 7313 20 female R 1 1 12 immoralSelf immoralOther mismatch m m 1 0.7270 
13-May-2018_16:31:27 Exp 7313 20 female R 1 1 13 moralSelf immoralSelf mismatch m m 1 0.7003 
13-May-2018_16:31:29 Exp 7313 20 female R 1 1 14 moralSelf moralSelf match n n 1 0.3809 
13-May-2018_16:31:31 Exp 7313 20 female R 1 1 15 immoralSelf moralSelf mismatch m m 1 0.5711 
13-May-2018_16:31:33 Exp 7313 20 female R 1 1 16 immoralOther moralSelf mismatch m m 1 0.5090 
13-May-2018_16:31:35 Exp 7313 20 female R 1 1 17 immoralOther immoralOther match n n 1 0.4898 
13-May-2018_16:31:37 Exp 7313 20 female R 1 1 18 moralOther moralOther match n n 1 0.6061 
13-May-2018_16:31:39 Exp 7313 20 female R 1 1 19 moralSelf immoralOther mismatch m m 1 0.5248 
13-May-2018_16:31:41 Exp 7313 20 female R 1 1 20 immoralOther immoralOther match n n 1 0.4539 
13-May-2018_16:31:43 Exp 7313 20 female R 1 1 21 moralSelf immoralSelf mismatch m n 0 0.5094 
13-May-2018_16:31:45 Exp 7313 20 female R 1 1 22 immoralSelf immoralSelf match n n 1 0.7063 
13-May-2018_16:31:48 Exp 7313 20 female R 1 1 23 moralSelf moralSelf match n m 0 0.6790 
13-May-2018_16:31:50 Exp 7313 20 female R 1 1 24 immoralOther moralSelf mismatch m m 1 0.5111 
13-May-2018_16:31:52 Exp 7313 20 female R 1 2 1 moralSelf moralSelf match n n 1 0.4199 
13-May-2018_16:31:54 Exp 7313 20 female R 1 2 2 immoralSelf moralSelf mismatch m m 1 0.5108 
13-May-2018_16:31:56 Exp 7313 20 female R 1 2 3 immoralOther immoralOther match n n 1 0.5236 
13-May-2018_16:31:58 Exp 7313 20 female R 1 2 4 moralOther moralOther match n n 1 0.4206 
13-May-2018_16:32:00 Exp 7313 20 female R 1 2 5 moralSelf moralSelf match n n 1 0.3957 
13-May-2018_16:32:02 Exp 7313 20 female R 1 2 6 immoralOther immoralSelf mismatch m m 1 0.4302 
13-May-2018_16:32:04 Exp 7313 20 female R 1 2 7 moralOther moralSelf mismatch m n 0 0.5253 
13-May-2018_16:32:06 Exp 7313 20 female R 1 2 8 moralOther immoralSelf mismatch m m 1 0.5663 
13-May-2018_16:32:08 Exp 7313 20 female R 1 2 9 moralSelf immoralSelf mismatch m m 1 0.6403 
13-May-2018_16:32:10 Exp 7313 20 female R 1 2 10 immoralSelf immoralSelf match n n 1 0.4677 
13-May-2018_16:32:12 Exp 7313 20 female R 1 2 11 immoralSelf immoralOther mismatch m m 1 0.4598 
13-May-2018_16:32:14 Exp 7313 20 female R 1 2 12 immoralOther moralSelf mismatch m n 0 0.5276 
13-May-2018_16:32:16 Exp 7313 20 female R 1 2 13 immoralOther moralSelf mismatch m m 1 0.3969 
13-May-2018_16:32:18 Exp 7313 20 female R 1 2 14 immoralSelf immoralSelf match n m 0 0.5593 
13-May-2018_16:32:20 Exp 7313 20 female R 1 2 15 immoralSelf immoralSelf match n n 1 0.4931 
13-May-2018_16:32:22 Exp 7313 20 female R 1 2 16 moralOther moralOther match n m 0 0.5176 
13-May-2018_16:32:24 Exp 7313 20 female R 1 2 17 immoralOther immoralOther match n m 0 0.4866 
13-May-2018_16:32:26 Exp 7313 20 female R 1 2 18 moralOther immoralSelf mismatch m m 1 0.7789 
13-May-2018_16:32:29 Exp 7313 20 female R 1 2 19 immoralSelf moralSelf mismatch m n 0 0.9611 
13-May-2018_16:32:31 Exp 7313 20 female R 1 2 20 moralOther moralOther match n n 1 0.5588 
13-May-2018_16:32:33 Exp 7313 20 female R 1 2 21 immoralOther immoralOther match n n 1 0.5407 
13-May-2018_16:32:35 Exp 7313 20 female R 1 2 22 moralSelf moralOther mismatch m m 1 0.5901 
13-May-2018_16:32:37 Exp 7313 20 female R 1 2 23 moralSelf moralSelf match n n 1 0.4085 
13-May-2018_16:32:39 Exp 7313 20 female R 1 2 24 moralSelf moralOther mismatch m m 1 0.6551 
Date Prac Sub Age Sex Hand Block Bin Trial Shape Label Match CorrResp Resp ACC RT
13-May-2018_16:36:35 Exp 7313 20 female R 1 1 1 immoralSelf moralSelf mismatch m m 1 0.6526 
13-May-2018_16:36:37 Exp 7313 20 female R 1 1 2 moralOther immoralOther mismatch m m 1 0.4843 
13-May-2018_16:36:39 Exp 7313 20 female R 1 1 3 immoralOther immoralOther match n n 1 0.4006 
13-May-2018_16:36:41 Exp 7313 20 female R 1 1 4 immoralSelf immoralSelf match n n 1 0.7114 
13-May-2018_16:36:43 Exp 7313 20 female R 1 1 5 immoralOther moralOther mismatch m m 1 0.6521 
13-May-2018_16:36:45 Exp 7313 20 female R 1 1 6 moralOther moralSelf mismatch m m 1 0.7637 
13-May-2018_16:36:47 Exp 7313 20 female R 1 1 7 moralSelf moralSelf match n m 0 0.4377 
13-May-2018_16:36:49 Exp 7313 20 female R 1 1 8 moralOther moralSelf mismatch m m 1 0.4250 
13-May-2018_16:36:51 Exp 7313 20 female R 1 1 9 moralSelf moralOther mismatch m m 1 0.4963 
13-May-2018_16:36:54 Exp 7313 20 female R 1 1 10 moralSelf moralSelf match n n 1 0.9288 
13-May-2018_16:36:56 Exp 7313 20 female R 1 1 11 moralSelf moralSelf match n n 1 0.4540 
13-May-2018_16:36:58 Exp 7313 20 female R 1 1 12 immoralOther immoralSelf mismatch m m 1 0.4696 
13-May-2018_16:37:00 Exp 7313 20 female R 1 1 13 immoralSelf moralSelf mismatch m m 1 0.6937 
13-May-2018_16:37:02 Exp 7313 20 female R 1 1 14 moralSelf immoralSelf mismatch m m 1 0.4223 
13-May-2018_16:37:04 Exp 7313 20 female R 1 1 15 immoralOther immoralOther match n n 1 0.5254 
13-May-2018_16:37:06 Exp 7313 20 female R 1 1 16 immoralOther immoralOther match n m 0 0.5104 
13-May-2018_16:37:08 Exp 7313 20 female R 1 1 17 moralOther moralOther match n m 0 0.3872 
13-May-2018_16:37:10 Exp 7313 20 female R 1 1 18 moralSelf moralOther mismatch m m 1 0.5177 
13-May-2018_16:37:12 Exp 7313 20 female R 1 1 19 moralOther moralOther match n n 1 0.4307 
13-May-2018_16:37:14 Exp 7313 20 female R 1 1 20 immoralSelf immoralSelf match n n 1 0.7179 
13-May-2018_16:37:16 Exp 7313 20 female R 1 1 21 immoralOther moralOther mismatch m m 1 0.5828 
13-May-2018_16:37:18 Exp 7313 20 female R 1 1 22 moralOther moralOther match n m 0 0.5170 
13-May-2018_16:37:20 Exp 7313 20 female R 1 1 23 immoralSelf moralSelf mismatch m n 0 0.6940 
13-May-2018_16:37:23 Exp 7313 20 female R 1 1 24 immoralSelf immoralSelf match n n 1 0.5906 
13-May-2018_16:37:25 Exp 7313 20 female R 1 2 1 immoralSelf immoralOther mismatch m n 0 0.8090 
13-May-2018_16:37:27 Exp 7313 20 female R 1 2 2 moralSelf moralOther mismatch m n 0 0.7319 
13-May-2018_16:37:29 Exp 7313 20 female R 1 2 3 moralSelf moralOther mismatch m m 1 0.7132 
13-May-2018_16:37:31 Exp 7313 20 female R 1 2 4 moralOther moralOther match n n 1 0.6140 
13-May-2018_16:37:34 Exp 7313 20 female R 1 2 5 immoralOther immoralOther match n n 1 0.5529 
13-May-2018_16:37:36 Exp 7313 20 female R 1 2 6 moralSelf immoralSelf mismatch m m 1 0.4547 
13-May-2018_16:37:38 Exp 7313 20 female R 1 2 7 moralOther moralOther match n n 1 0.6303 
13-May-2018_16:37:40 Exp 7313 20 female R 1 2 8 immoralSelf moralOther mismatch m m 1 0.4934 
13-May-2018_16:37:42 Exp 7313 20 female R 1 2 9 immoralSelf immoralSelf match n m 0 0.7179 
13-May-2018_16:37:44 Exp 7313 20 female R 1 2 10 immoralOther immoralOther match n n 1 0.5990 
13-May-2018_16:37:46 Exp 7313 20 female R 1 2 11 moralOther immoralOther mismatch m m 1 0.5737 
13-May-2018_16:37:48 Exp 7313 20 female R 1 2 12 moralSelf moralSelf match n m 0 0.5718 
13-May-2018_16:37:50 Exp 7313 20 female R 1 2 13 moralOther immoralSelf mismatch m m 1 0.6378 
13-May-2018_16:37:53 Exp 7313 20 female R 1 2 14 moralSelf moralSelf match n m 0 0.8812 
13-May-2018_16:37:55 Exp 7313 20 female R 1 2 15 immoralOther immoralOther match n n 1 0.4695 
13-May-2018_16:37:57 Exp 7313 20 female R 1 2 16 immoralSelf immoralSelf match n n 1 0.7097 
13-May-2018_16:37:59 Exp 7313 20 female R 1 2 17 moralOther immoralSelf mismatch m m 1 0.6184 
13-May-2018_16:38:01 Exp 7313 20 female R 1 2 18 immoralSelf immoralSelf match n n 1 0.6052 
13-May-2018_16:38:04 Exp 7313 20 female R 1 2 19 immoralOther moralOther mismatch m m 1 0.6041 
13-May-2018_16:38:05 Exp 7313 20 female R 1 2 20 immoralOther immoralSelf mismatch m m 1 0.4506 
13-May-2018_16:38:08 Exp 7313 20 female R 1 2 21 moralOther moralOther match n n 1 0.6023 
13-May-2018_16:38:10 Exp 7313 20 female R 1 2 22 moralSelf moralSelf match n n 1 0.6570 
13-May-2018_16:38:12 Exp 7313 20 female R 1 2 23 immoralSelf moralSelf mismatch m m 1 0.6927 
13-May-2018_16:38:14 Exp 7313 20 female R 1 2 24 immoralOther immoralSelf mismatch m n 0 0.5493 
Date Prac Sub Age Sex Hand Block Bin Trial Shape Label Match CorrResp Resp ACC RT
13-May-2018_16:42:25 Exp 7313 20 female R 1 1 1 moralOther immoralOther mismatch m m 1 0.6852 
13-May-2018_16:42:27 Exp 7313 20 female R 1 1 2 immoralSelf immoralSelf match n n 1 0.6497 
13-May-2018_16:42:29 Exp 7313 20 female R 1 1 3 moralSelf moralOther mismatch m m 1 0.6733 
13-May-2018_16:42:31 Exp 7313 20 female R 1 1 4 moralSelf moralOther mismatch m m 1 0.5854 
13-May-2018_16:42:33 Exp 7313 20 female R 1 1 5 moralOther immoralSelf mismatch m n 0 0.5878 
13-May-2018_16:42:35 Exp 7313 20 female R 1 1 6 immoralOther immoralSelf mismatch m m 1 0.5103 
13-May-2018_16:42:37 Exp 7313 20 female R 1 1 7 immoralOther immoralOther match n n 1 0.6430 
13-May-2018_16:42:39 Exp 7313 20 female R 1 1 8 moralOther moralOther match n n 1 0.5104 
13-May-2018_16:42:42 Exp 7313 20 female R 1 1 9 immoralSelf immoralSelf match n n 1 0.6672 
13-May-2018_16:42:44 Exp 7313 20 female R 1 1 10 moralOther moralOther match n m 0 0.5750 
13-May-2018_16:42:46 Exp 7313 20 female R 1 1 11 immoralSelf immoralSelf match n n 1 0.6212 
13-May-2018_16:42:48 Exp 7313 20 female R 1 1 12 moralSelf moralSelf match n n 1 0.7484 
13-May-2018_16:42:50 Exp 7313 20 female R 1 1 13 immoralSelf moralSelf mismatch m n 0 0.6939 
13-May-2018_16:42:53 Exp 7313 20 female R 1 1 14 immoralSelf immoralOther mismatch m n 0 0.7745 
13-May-2018_16:42:55 Exp 7313 20 female R 1 1 15 moralSelf moralSelf match n n 1 0.5806 
13-May-2018_16:42:57 Exp 7313 20 female R 1 1 16 immoralOther immoralSelf mismatch m m 1 0.6109 
13-May-2018_16:42:59 Exp 7313 20 female R 1 1 17 moralOther immoralOther mismatch m m 1 0.8538 
13-May-2018_16:43:01 Exp 7313 20 female R 1 1 18 moralSelf moralSelf match n n 1 0.6454 
13-May-2018_16:43:04 Exp 7313 20 female R 1 1 19 moralOther moralOther match n m 0 0.8611 
13-May-2018_16:43:06 Exp 7313 20 female R 1 1 20 moralSelf moralOther mismatch m n 0 0.4089 
13-May-2018_16:43:08 Exp 7313 20 female R 1 1 21 immoralSelf moralSelf mismatch m m 1 0.5798 
13-May-2018_16:43:10 Exp 7313 20 female R 1 1 22 immoralOther moralOther mismatch m m 1 0.7380 
13-May-2018_16:43:12 Exp 7313 20 female R 1 1 23 immoralOther immoralOther match n n 1 0.4392 
13-May-2018_16:43:14 Exp 7313 20 female R 1 1 24 immoralOther immoralOther match n n 1 0.5466 
13-May-2018_16:43:16 Exp 7313 20 female R 1 2 1 moralOther moralOther match n n 1 0.7481 
13-May-2018_16:43:19 Exp 7313 20 female R 1 2 2 moralOther immoralSelf mismatch m m 1 0.6456 
13-May-2018_16:43:21 Exp 7313 20 female R 1 2 3 moralSelf moralOther mismatch m m 1 0.7332 
13-May-2018_16:43:23 Exp 7313 20 female R 1 2 4 immoralOther immoralSelf mismatch m m 1 0.7385 
13-May-2018_16:43:25 Exp 7313 20 female R 1 2 5 moralSelf immoralOther mismatch m m 1 0.6520 
13-May-2018_16:43:28 Exp 7313 20 female R 1 2 6 immoralSelf moralOther mismatch m m 1 0.7876 
13-May-2018_16:43:30 Exp 7313 20 female R 1 2 7 moralOther moralOther match n NA -1 1.0731 
13-May-2018_16:43:32 Exp 7313 20 female R 1 2 8 immoralSelf moralOther mismatch m m 1 0.5021 
13-May-2018_16:43:34 Exp 7313 20 female R 1 2 9 immoralOther moralOther mismatch m n 0 0.5027 
13-May-2018_16:43:36 Exp 7313 20 female R 1 2 10 immoralOther immoralOther match n n 1 0.5272 
13-May-2018_16:43:38 Exp 7313 20 female R 1 2 11 immoralSelf immoralSelf match n m 0 0.4525 
13-May-2018_16:43:41 Exp 7313 20 female R 1 2 12 moralSelf moralSelf match n n 1 0.7161 
13-May-2018_16:43:43 Exp 7313 20 female R 1 2 13 moralSelf moralSelf match n n 1 0.6611 
13-May-2018_16:43:45 Exp 7313 20 female R 1 2 14 moralOther moralSelf mismatch m m 1 0.7051 
13-May-2018_16:43:47 Exp 7313 20 female R 1 2 15 immoralOther immoralOther match n n 1 0.5418 
13-May-2018_16:43:49 Exp 7313 20 female R 1 2 16 immoralOther moralOther mismatch m m 1 0.5353 
13-May-2018_16:43:51 Exp 7313 20 female R 1 2 17 moralOther moralOther match n n 1 0.6606 
13-May-2018_16:43:53 Exp 7313 20 female R 1 2 18 moralSelf immoralSelf mismatch m m 1 0.5844 
13-May-2018_16:43:55 Exp 7313 20 female R 1 2 19 immoralSelf immoralSelf match n n 1 0.5586 
13-May-2018_16:43:57 Exp 7313 20 female R 1 2 20 immoralSelf immoralSelf match n n 1 0.4364 
13-May-2018_16:44:00 Exp 7313 20 female R 1 2 21 moralOther moralSelf mismatch m m 1 0.8477 
13-May-2018_16:44:02 Exp 7313 20 female R 1 2 22 immoralOther immoralOther match n n 1 0.6073 
13-May-2018_16:44:04 Exp 7313 20 female R 1 2 23 immoralSelf moralOther mismatch m m 1 0.8540 
13-May-2018_16:44:06 Exp 7313 20 female R 1 2 24 moralSelf moralSelf match n n 1 0.5736 
Date Prac Sub Age Sex Hand Block Bin Trial Shape Label Match CorrResp Resp ACC RT
13-May-2018_16:48:17 Exp 7313 20 female R 1 1 1 moralOther moralOther match n n 1 0.5764 
13-May-2018_16:48:19 Exp 7313 20 female R 1 1 2 immoralOther moralSelf mismatch m m 1 0.4787 
13-May-2018_16:48:21 Exp 7313 20 female R 1 1 3 immoralOther moralSelf mismatch m m 1 0.3828 
13-May-2018_16:48:22 Exp 7313 20 female R 1 1 4 moralOther moralOther match n m 0 0.4048 
13-May-2018_16:48:25 Exp 7313 20 female R 1 1 5 moralSelf moralOther mismatch m m 1 0.5796 
13-May-2018_16:48:27 Exp 7313 20 female R 1 1 6 immoralOther immoralOther match n n 1 0.4818 
13-May-2018_16:48:29 Exp 7313 20 female R 1 1 7 moralSelf moralSelf match n n 1 0.7341 
13-May-2018_16:48:31 Exp 7313 20 female R 1 1 8 moralSelf moralOther mismatch m m 1 0.6434 
13-May-2018_16:48:33 Exp 7313 20 female R 1 1 9 immoralSelf moralOther mismatch m m 1 0.7108 
13-May-2018_16:48:35 Exp 7313 20 female R 1 1 10 immoralSelf moralOther mismatch m m 1 0.5315 
13-May-2018_16:48:37 Exp 7313 20 female R 1 1 11 immoralOther immoralOther match n n 1 0.5128 
13-May-2018_16:48:39 Exp 7313 20 female R 1 1 12 immoralOther moralOther mismatch m n 0 0.4936 
13-May-2018_16:48:41 Exp 7313 20 female R 1 1 13 moralSelf moralSelf match n n 1 0.5821 
13-May-2018_16:48:44 Exp 7313 20 female R 1 1 14 moralSelf moralSelf match n n 1 0.5003 
13-May-2018_16:48:46 Exp 7313 20 female R 1 1 15 moralSelf immoralSelf mismatch m m 1 0.7408 
13-May-2018_16:48:48 Exp 7313 20 female R 1 1 16 moralOther moralSelf mismatch m n 0 0.7103 
13-May-2018_16:48:50 Exp 7313 20 female R 1 1 17 moralOther immoralOther mismatch m m 1 0.4992 
13-May-2018_16:48:52 Exp 7313 20 female R 1 1 18 moralOther moralSelf mismatch m m 1 0.9237 
13-May-2018_16:48:55 Exp 7313 20 female R 1 1 19 immoralSelf moralOther mismatch m n 0 0.5968 
13-May-2018_16:48:57 Exp 7313 20 female R 1 1 20 immoralSelf immoralSelf match n n 1 0.6552 
13-May-2018_16:48:59 Exp 7313 20 female R 1 1 21 immoralSelf immoralSelf match n n 1 0.5908 
13-May-2018_16:49:01 Exp 7313 20 female R 1 1 22 immoralSelf immoralSelf match n n 1 0.4413 
13-May-2018_16:49:03 Exp 7313 20 female R 1 1 23 immoralOther immoralOther match n m 0 0.6686 
13-May-2018_16:49:05 Exp 7313 20 female R 1 1 24 moralOther moralOther match n n 1 0.5407 
13-May-2018_16:49:07 Exp 7313 20 female R 1 2 1 immoralOther immoralOther match n m 0 0.7902 
13-May-2018_16:49:09 Exp 7313 20 female R 1 2 2 immoralOther moralOther mismatch m m 1 0.4407 
13-May-2018_16:49:11 Exp 7313 20 female R 1 2 3 immoralOther moralOther mismatch m m 1 0.4360 
13-May-2018_16:49:13 Exp 7313 20 female R 1 2 4 moralOther immoralOther mismatch m n 0 0.4154 
13-May-2018_16:49:15 Exp 7313 20 female R 1 2 5 moralOther moralOther match n n 1 0.4183 
13-May-2018_16:49:17 Exp 7313 20 female R 1 2 6 moralOther moralOther match n n 1 0.4212 
13-May-2018_16:49:19 Exp 7313 20 female R 1 2 7 immoralSelf immoralSelf match n m 0 0.7243 
13-May-2018_16:49:22 Exp 7313 20 female R 1 2 8 immoralOther immoralOther match n n 1 0.6134 
13-May-2018_16:49:24 Exp 7313 20 female R 1 2 9 immoralSelf moralOther mismatch m n 0 0.6003 
13-May-2018_16:49:26 Exp 7313 20 female R 1 2 10 moralSelf moralSelf match n n 1 0.6069 
13-May-2018_16:49:28 Exp 7313 20 female R 1 2 11 immoralOther immoralOther match n n 1 0.4536 
13-May-2018_16:49:30 Exp 7313 20 female R 1 2 12 moralOther immoralSelf mismatch m m 1 0.7812 
13-May-2018_16:49:32 Exp 7313 20 female R 1 2 13 immoralSelf immoralSelf match n n 1 0.6675 
13-May-2018_16:49:34 Exp 7313 20 female R 1 2 14 immoralOther immoralSelf mismatch m m 1 0.6233 
13-May-2018_16:49:37 Exp 7313 20 female R 1 2 15 moralOther moralOther match n n 1 0.5744 
13-May-2018_16:49:39 Exp 7313 20 female R 1 2 16 immoralSelf moralOther mismatch m m 1 1.0286 
13-May-2018_16:49:41 Exp 7313 20 female R 1 2 17 moralSelf immoralSelf mismatch m m 1 0.6998 
13-May-2018_16:49:44 Exp 7313 20 female R 1 2 18 immoralSelf moralOther mismatch m m 1 0.7163 
13-May-2018_16:49:46 Exp 7313 20 female R 1 2 19 immoralSelf immoralSelf match n m 0 0.6773 
13-May-2018_16:49:48 Exp 7313 20 female R 1 2 20 moralOther moralSelf mismatch m n 0 0.6294 
13-May-2018_16:49:50 Exp 7313 20 female R 1 2 21 moralSelf immoralOther mismatch m m 1 0.6606 
13-May-2018_16:49:52 Exp 7313 20 female R 1 2 22 moralSelf moralSelf match n n 1 0.7685 
13-May-2018_16:49:54 Exp 7313 20 female R 1 2 23 moralSelf moralSelf match n n 1 0.5144 
13-May-2018_16:49:57 Exp 7313 20 female R 1 2 24 moralSelf immoralSelf mismatch m n 0 0.5272 
