Date Prac Sub Age Sex Hand Block Bin Trial Shape Label Match CorrResp Resp ACC RT
31-May-2018_13:49:03 Exp 7333 24 female R 1 1 1 moralOther moralOther match m m 1 0.7311 
31-May-2018_13:49:05 Exp 7333 24 female R 1 1 2 moralOther moralSelf mismatch n n 1 0.6592 
31-May-2018_13:49:07 Exp 7333 24 female R 1 1 3 moralSelf moralOther mismatch n m 0 0.5294 
31-May-2018_13:49:09 Exp 7333 24 female R 1 1 4 immoralSelf immoralSelf match m n 0 0.7855 
31-May-2018_13:49:12 Exp 7333 24 female R 1 1 5 moralOther immoralSelf mismatch n n 1 0.6396 
31-May-2018_13:49:14 Exp 7333 24 female R 1 1 6 immoralSelf moralOther mismatch n n 1 0.6577 
31-May-2018_13:49:16 Exp 7333 24 female R 1 1 7 moralSelf moralOther mismatch n m 0 0.4799 
31-May-2018_13:49:19 Exp 7333 24 female R 1 1 8 immoralOther immoralOther match m n 0 0.8980 
31-May-2018_13:49:21 Exp 7333 24 female R 1 1 9 immoralOther immoralOther match m m 1 0.7282 
31-May-2018_13:49:23 Exp 7333 24 female R 1 1 10 immoralOther moralSelf mismatch n n 1 0.7124 
31-May-2018_13:49:26 Exp 7333 24 female R 1 1 11 moralSelf moralSelf match m n 0 0.9084 
31-May-2018_13:49:28 Exp 7333 24 female R 1 1 12 moralSelf moralSelf match m m 1 0.4967 
31-May-2018_13:49:30 Exp 7333 24 female R 1 1 13 immoralOther moralOther mismatch n n 1 0.7527 
31-May-2018_13:49:33 Exp 7333 24 female R 1 1 14 immoralOther moralOther mismatch n m 0 0.6688 
31-May-2018_13:49:35 Exp 7333 24 female R 1 1 15 moralSelf moralSelf match m m 1 0.7049 
31-May-2018_13:49:37 Exp 7333 24 female R 1 1 16 moralSelf moralOther mismatch n m 0 0.5351 
31-May-2018_13:49:40 Exp 7333 24 female R 1 1 17 immoralSelf immoralOther mismatch n n 1 0.8232 
31-May-2018_13:49:42 Exp 7333 24 female R 1 1 18 immoralOther immoralOther match m m 1 0.6533 
31-May-2018_13:49:45 Exp 7333 24 female R 1 1 19 immoralSelf immoralSelf match m m 1 0.9575 
31-May-2018_13:49:47 Exp 7333 24 female R 1 1 20 immoralSelf immoralOther mismatch n n 1 0.6796 
31-May-2018_13:49:49 Exp 7333 24 female R 1 1 21 moralOther moralSelf mismatch n m 0 0.8258 
31-May-2018_13:49:52 Exp 7333 24 female R 1 1 22 immoralSelf immoralSelf match m n 0 0.6479 
31-May-2018_13:49:54 Exp 7333 24 female R 1 1 23 moralOther moralOther match m m 1 0.7360 
31-May-2018_13:49:56 Exp 7333 24 female R 1 1 24 moralOther moralOther match m m 1 0.5522 
31-May-2018_13:49:58 Exp 7333 24 female R 1 2 1 moralSelf immoralOther mismatch n n 1 0.4984 
31-May-2018_13:50:01 Exp 7333 24 female R 1 2 2 immoralOther immoralOther match m n 0 0.6404 
31-May-2018_13:50:03 Exp 7333 24 female R 1 2 3 moralSelf moralSelf match m m 1 0.7225 
31-May-2018_13:50:05 Exp 7333 24 female R 1 2 4 immoralOther immoralOther match m m 1 0.7647 
31-May-2018_13:50:08 Exp 7333 24 female R 1 2 5 immoralOther moralOther mismatch n n 1 0.7029 
31-May-2018_13:50:10 Exp 7333 24 female R 1 2 6 moralOther moralOther match m n 0 1.0450 
31-May-2018_13:50:13 Exp 7333 24 female R 1 2 7 immoralOther immoralSelf mismatch n m 0 0.7752 
31-May-2018_13:50:15 Exp 7333 24 female R 1 2 8 immoralSelf moralSelf mismatch n n 1 0.9593 
31-May-2018_13:50:18 Exp 7333 24 female R 1 2 9 immoralSelf immoralSelf match m n 0 0.7294 
31-May-2018_13:50:20 Exp 7333 24 female R 1 2 10 immoralSelf immoralSelf match m m 1 0.5615 
31-May-2018_13:50:22 Exp 7333 24 female R 1 2 11 moralSelf moralSelf match m m 1 0.5716 
31-May-2018_13:50:24 Exp 7333 24 female R 1 2 12 immoralSelf moralSelf mismatch n n 1 0.6918 
31-May-2018_13:50:27 Exp 7333 24 female R 1 2 13 immoralSelf immoralSelf match m m 1 0.5560 
31-May-2018_13:50:29 Exp 7333 24 female R 1 2 14 moralOther moralOther match m n 0 0.7442 
31-May-2018_13:50:31 Exp 7333 24 female R 1 2 15 moralSelf immoralSelf mismatch n n 1 0.7982 
31-May-2018_13:50:34 Exp 7333 24 female R 1 2 16 immoralSelf immoralOther mismatch n n 1 0.9763 
31-May-2018_13:50:36 Exp 7333 24 female R 1 2 17 moralOther immoralOther mismatch n m 0 0.8005 
31-May-2018_13:50:39 Exp 7333 24 female R 1 2 18 moralOther moralOther match m m 1 0.5546 
31-May-2018_13:50:41 Exp 7333 24 female R 1 2 19 moralSelf moralSelf match m m 1 0.9507 
31-May-2018_13:50:44 Exp 7333 24 female R 1 2 20 moralOther immoralOther mismatch n m 0 0.9309 
31-May-2018_13:50:46 Exp 7333 24 female R 1 2 21 immoralOther immoralOther match m m 1 0.7231 
31-May-2018_13:50:48 Exp 7333 24 female R 1 2 22 immoralOther moralSelf mismatch n n 1 0.7412 
31-May-2018_13:50:51 Exp 7333 24 female R 1 2 23 moralOther moralSelf mismatch n n 1 0.9474 
31-May-2018_13:50:53 Exp 7333 24 female R 1 2 24 moralSelf moralOther mismatch n m 0 0.7274 
31-May-2018_13:50:56 Exp 7333 24 female R 1 3 1 moralSelf immoralOther mismatch n n 1 0.8395 
31-May-2018_13:50:58 Exp 7333 24 female R 1 3 2 moralOther immoralOther mismatch n n 1 0.8578 
31-May-2018_13:51:01 Exp 7333 24 female R 1 3 3 moralOther moralOther match m n 0 1.0159 
31-May-2018_13:51:03 Exp 7333 24 female R 1 3 4 immoralSelf immoralOther mismatch n m 0 0.9361 
31-May-2018_13:51:06 Exp 7333 24 female R 1 3 5 moralOther moralOther match m NA -1 1.0850 
31-May-2018_13:51:08 Exp 7333 24 female R 1 3 6 immoralSelf immoralSelf match m m 1 0.5783 
31-May-2018_13:51:11 Exp 7333 24 female R 1 3 7 immoralOther immoralOther match m n 0 0.5285 
31-May-2018_13:51:13 Exp 7333 24 female R 1 3 8 immoralOther immoralOther match m m 1 0.6486 
31-May-2018_13:51:15 Exp 7333 24 female R 1 3 9 immoralSelf immoralOther mismatch n n 1 0.8249 
31-May-2018_13:51:18 Exp 7333 24 female R 1 3 10 immoralSelf immoralSelf match m NA -1 1.0850 
31-May-2018_13:51:20 Exp 7333 24 female R 1 3 11 moralSelf moralSelf match m m 1 0.5929 
31-May-2018_13:51:22 Exp 7333 24 female R 1 3 12 moralSelf moralOther mismatch n m 0 0.5171 
31-May-2018_13:51:25 Exp 7333 24 female R 1 3 13 moralOther moralOther match m m 1 0.7052 
31-May-2018_13:51:27 Exp 7333 24 female R 1 3 14 moralOther immoralOther mismatch n n 1 0.6715 
31-May-2018_13:51:29 Exp 7333 24 female R 1 3 15 immoralSelf moralSelf mismatch n m 0 0.6675 
31-May-2018_13:51:32 Exp 7333 24 female R 1 3 16 immoralOther immoralSelf mismatch n m 0 0.7036 
31-May-2018_13:51:34 Exp 7333 24 female R 1 3 17 immoralSelf immoralSelf match m n 0 0.6938 
31-May-2018_13:51:36 Exp 7333 24 female R 1 3 18 moralOther immoralOther mismatch n n 1 0.7739 
31-May-2018_13:51:38 Exp 7333 24 female R 1 3 19 moralSelf moralOther mismatch n m 0 0.4460 
31-May-2018_13:51:41 Exp 7333 24 female R 1 3 20 immoralOther moralOther mismatch n n 1 0.8402 
31-May-2018_13:51:43 Exp 7333 24 female R 1 3 21 immoralOther immoralOther match m m 1 0.4663 
31-May-2018_13:51:45 Exp 7333 24 female R 1 3 22 moralSelf moralSelf match m m 1 0.6724 
31-May-2018_13:51:47 Exp 7333 24 female R 1 3 23 immoralOther immoralSelf mismatch n n 1 0.5967 
31-May-2018_13:51:50 Exp 7333 24 female R 1 3 24 moralSelf moralSelf match m m 1 0.5127 
31-May-2018_13:52:09 Exp 7333 24 female R 1 4 1 moralSelf moralSelf match m m 1 0.5358 
31-May-2018_13:52:12 Exp 7333 24 female R 1 4 2 immoralOther immoralOther match m m 1 0.5839 
31-May-2018_13:52:14 Exp 7333 24 female R 1 4 3 immoralSelf immoralSelf match m n 0 0.7101 
31-May-2018_13:52:16 Exp 7333 24 female R 1 4 4 immoralSelf moralOther mismatch n n 1 0.6902 
31-May-2018_13:52:18 Exp 7333 24 female R 1 4 5 moralOther moralOther match m m 1 0.4423 
31-May-2018_13:52:21 Exp 7333 24 female R 1 4 6 moralOther moralSelf mismatch n n 1 0.6764 
31-May-2018_13:52:23 Exp 7333 24 female R 1 4 7 immoralSelf moralSelf mismatch n n 1 1.0807 
31-May-2018_13:52:26 Exp 7333 24 female R 1 4 8 immoralOther moralSelf mismatch n n 1 0.6347 
31-May-2018_13:52:28 Exp 7333 24 female R 1 4 9 immoralOther immoralOther match m m 1 0.6389 
31-May-2018_13:52:30 Exp 7333 24 female R 1 4 10 immoralSelf immoralSelf match m n 0 0.7610 
31-May-2018_13:52:33 Exp 7333 24 female R 1 4 11 immoralSelf moralOther mismatch n n 1 0.7471 
31-May-2018_13:52:35 Exp 7333 24 female R 1 4 12 immoralOther immoralSelf mismatch n n 1 0.9592 
31-May-2018_13:52:38 Exp 7333 24 female R 1 4 13 moralOther moralOther match m m 1 0.7454 
31-May-2018_13:52:40 Exp 7333 24 female R 1 4 14 immoralSelf immoralSelf match m n 0 0.6077 
31-May-2018_13:52:42 Exp 7333 24 female R 1 4 15 moralSelf immoralSelf mismatch n n 1 0.7197 
31-May-2018_13:52:44 Exp 7333 24 female R 1 4 16 moralOther moralOther match m m 1 0.6819 
31-May-2018_13:52:47 Exp 7333 24 female R 1 4 17 moralOther immoralSelf mismatch n m 0 0.4920 
31-May-2018_13:52:49 Exp 7333 24 female R 1 4 18 moralSelf immoralSelf mismatch n n 1 0.7162 
31-May-2018_13:52:51 Exp 7333 24 female R 1 4 19 moralOther immoralSelf mismatch n m 0 0.8563 
31-May-2018_13:52:54 Exp 7333 24 female R 1 4 20 immoralOther immoralOther match m m 1 0.7925 
31-May-2018_13:52:56 Exp 7333 24 female R 1 4 21 moralSelf moralSelf match m m 1 0.7805 
31-May-2018_13:52:58 Exp 7333 24 female R 1 4 22 moralSelf moralSelf match m m 1 0.6187 
31-May-2018_13:53:01 Exp 7333 24 female R 1 4 23 moralSelf immoralOther mismatch n n 1 0.6327 
31-May-2018_13:53:03 Exp 7333 24 female R 1 4 24 immoralOther immoralSelf mismatch n n 1 0.7089 
31-May-2018_13:53:05 Exp 7333 24 female R 1 5 1 moralOther moralOther match m m 1 0.5370 
31-May-2018_13:53:07 Exp 7333 24 female R 1 5 2 immoralSelf immoralSelf match m m 1 0.5372 
31-May-2018_13:53:10 Exp 7333 24 female R 1 5 3 immoralSelf immoralOther mismatch n n 1 0.6153 
31-May-2018_13:53:12 Exp 7333 24 female R 1 5 4 moralSelf moralSelf match m m 1 0.5914 
31-May-2018_13:53:14 Exp 7333 24 female R 1 5 5 immoralSelf immoralSelf match m m 1 1.0115 
31-May-2018_13:53:17 Exp 7333 24 female R 1 5 6 immoralSelf immoralSelf match m m 1 0.5877 
31-May-2018_13:53:19 Exp 7333 24 female R 1 5 7 immoralOther immoralOther match m m 1 0.5759 
31-May-2018_13:53:21 Exp 7333 24 female R 1 5 8 moralOther immoralSelf mismatch n n 1 0.4879 
31-May-2018_13:53:23 Exp 7333 24 female R 1 5 9 moralOther moralOther match m m 1 0.6001 
31-May-2018_13:53:26 Exp 7333 24 female R 1 5 10 immoralOther immoralSelf mismatch n m 0 0.7701 
31-May-2018_13:53:28 Exp 7333 24 female R 1 5 11 immoralSelf moralSelf mismatch n m 0 1.0504 
31-May-2018_13:53:31 Exp 7333 24 female R 1 5 12 moralSelf immoralSelf mismatch n n 1 0.7625 
31-May-2018_13:53:33 Exp 7333 24 female R 1 5 13 immoralOther immoralOther match m n 0 0.8127 
31-May-2018_13:53:36 Exp 7333 24 female R 1 5 14 moralOther moralSelf mismatch n m 0 0.7887 
31-May-2018_13:53:38 Exp 7333 24 female R 1 5 15 moralSelf moralOther mismatch n NA -1 1.0850 
31-May-2018_13:53:40 Exp 7333 24 female R 1 5 16 immoralOther immoralOther match m m 1 0.5710 
31-May-2018_13:53:43 Exp 7333 24 female R 1 5 17 moralOther moralSelf mismatch n m 0 0.7712 
31-May-2018_13:53:45 Exp 7333 24 female R 1 5 18 moralSelf immoralOther mismatch n n 1 0.8513 
31-May-2018_13:53:48 Exp 7333 24 female R 1 5 19 immoralSelf immoralOther mismatch n n 1 1.0275 
31-May-2018_13:53:50 Exp 7333 24 female R 1 5 20 moralSelf moralSelf match m m 1 0.6317 
31-May-2018_13:53:53 Exp 7333 24 female R 1 5 21 immoralOther immoralSelf mismatch n m 0 0.7798 
31-May-2018_13:53:55 Exp 7333 24 female R 1 5 22 moralSelf moralSelf match m m 1 0.7379 
31-May-2018_13:53:57 Exp 7333 24 female R 1 5 23 moralOther moralOther match m m 1 0.7840 
31-May-2018_13:54:00 Exp 7333 24 female R 1 5 24 immoralOther immoralSelf mismatch n n 1 0.5901 
31-May-2018_13:54:05 Exp 7333 24 female R 2 1 1 immoralOther immoralOther match m NA -1 1.0850 
31-May-2018_13:54:08 Exp 7333 24 female R 2 1 2 moralOther immoralOther mismatch n n 1 0.5986 
31-May-2018_13:54:10 Exp 7333 24 female R 2 1 3 moralSelf moralSelf match m m 1 0.4967 
31-May-2018_13:54:12 Exp 7333 24 female R 2 1 4 moralOther immoralSelf mismatch n n 1 0.7208 
31-May-2018_13:54:14 Exp 7333 24 female R 2 1 5 moralOther moralOther match m n 0 0.6670 
31-May-2018_13:54:17 Exp 7333 24 female R 2 1 6 immoralSelf immoralSelf match m n 0 0.6730 
31-May-2018_13:54:19 Exp 7333 24 female R 2 1 7 immoralOther immoralSelf mismatch n n 1 0.7173 
31-May-2018_13:54:22 Exp 7333 24 female R 2 1 8 immoralSelf immoralSelf match m m 1 1.0474 
31-May-2018_13:54:24 Exp 7333 24 female R 2 1 9 immoralSelf moralOther mismatch n n 1 0.6076 
31-May-2018_13:54:26 Exp 7333 24 female R 2 1 10 moralSelf moralSelf match m m 1 0.5677 
31-May-2018_13:54:28 Exp 7333 24 female R 2 1 11 immoralSelf moralOther mismatch n m 0 0.5198 
31-May-2018_13:54:31 Exp 7333 24 female R 2 1 12 immoralOther immoralOther match m m 1 0.6418 
31-May-2018_13:54:33 Exp 7333 24 female R 2 1 13 moralSelf immoralSelf mismatch n n 1 0.7160 
31-May-2018_13:54:35 Exp 7333 24 female R 2 1 14 immoralSelf immoralSelf match m m 1 0.5602 
31-May-2018_13:54:37 Exp 7333 24 female R 2 1 15 moralOther immoralSelf mismatch n n 1 0.6823 
31-May-2018_13:54:40 Exp 7333 24 female R 2 1 16 moralSelf immoralSelf mismatch n n 1 0.7245 
31-May-2018_13:54:42 Exp 7333 24 female R 2 1 17 immoralOther moralOther mismatch n n 1 0.6946 
31-May-2018_13:54:44 Exp 7333 24 female R 2 1 18 moralSelf moralSelf match m m 1 0.6307 
31-May-2018_13:54:47 Exp 7333 24 female R 2 1 19 moralSelf immoralOther mismatch n n 1 0.6348 
31-May-2018_13:54:49 Exp 7333 24 female R 2 1 20 moralOther moralOther match m n 0 0.7830 
31-May-2018_13:54:51 Exp 7333 24 female R 2 1 21 immoralSelf moralOther mismatch n n 1 0.5650 
31-May-2018_13:54:54 Exp 7333 24 female R 2 1 22 immoralOther immoralOther match m m 1 0.7592 
31-May-2018_13:54:56 Exp 7333 24 female R 2 1 23 immoralOther immoralSelf mismatch n n 1 0.7454 
31-May-2018_13:54:58 Exp 7333 24 female R 2 1 24 moralOther moralOther match m n 0 0.7035 
31-May-2018_13:55:00 Exp 7333 24 female R 2 2 1 moralOther moralOther match m m 1 0.4617 
31-May-2018_13:55:03 Exp 7333 24 female R 2 2 2 moralOther immoralSelf mismatch n m 0 0.5078 
31-May-2018_13:55:05 Exp 7333 24 female R 2 2 3 moralSelf moralSelf match m m 1 0.6079 
31-May-2018_13:55:07 Exp 7333 24 female R 2 2 4 immoralSelf immoralSelf match m n 0 0.6720 
31-May-2018_13:55:09 Exp 7333 24 female R 2 2 5 immoralSelf immoralSelf match m m 1 0.5641 
31-May-2018_13:55:12 Exp 7333 24 female R 2 2 6 immoralOther immoralSelf mismatch n n 1 1.0542 
31-May-2018_13:55:14 Exp 7333 24 female R 2 2 7 moralOther immoralSelf mismatch n n 1 0.6545 
31-May-2018_13:55:16 Exp 7333 24 female R 2 2 8 moralSelf immoralSelf mismatch n n 1 0.5986 
31-May-2018_13:55:19 Exp 7333 24 female R 2 2 9 immoralOther moralSelf mismatch n NA -1 1.0850 
31-May-2018_13:55:22 Exp 7333 24 female R 2 2 10 moralOther moralOther match m m 1 0.9228 
31-May-2018_13:55:24 Exp 7333 24 female R 2 2 11 immoralSelf moralSelf mismatch n n 1 0.6369 
31-May-2018_13:55:26 Exp 7333 24 female R 2 2 12 moralSelf immoralSelf mismatch n n 1 0.6171 
31-May-2018_13:55:29 Exp 7333 24 female R 2 2 13 immoralOther immoralSelf mismatch n n 1 0.6972 
31-May-2018_13:55:31 Exp 7333 24 female R 2 2 14 moralSelf moralSelf match m m 1 0.5674 
31-May-2018_13:55:33 Exp 7333 24 female R 2 2 15 moralOther moralSelf mismatch n n 1 0.6955 
31-May-2018_13:55:35 Exp 7333 24 female R 2 2 16 moralSelf moralSelf match m m 1 0.7277 
31-May-2018_13:55:38 Exp 7333 24 female R 2 2 17 immoralOther immoralOther match m m 1 0.8077 
31-May-2018_13:55:40 Exp 7333 24 female R 2 2 18 moralSelf immoralOther mismatch n m 0 0.6960 
31-May-2018_13:55:43 Exp 7333 24 female R 2 2 19 immoralSelf immoralSelf match m n 0 0.7600 
31-May-2018_13:55:45 Exp 7333 24 female R 2 2 20 moralOther moralOther match m m 1 0.8022 
31-May-2018_13:55:48 Exp 7333 24 female R 2 2 21 immoralOther immoralOther match m n 0 0.8844 
31-May-2018_13:55:50 Exp 7333 24 female R 2 2 22 immoralSelf moralSelf mismatch n n 1 0.7024 
31-May-2018_13:55:52 Exp 7333 24 female R 2 2 23 immoralOther immoralOther match m n 0 0.8526 
31-May-2018_13:55:55 Exp 7333 24 female R 2 2 24 immoralSelf immoralOther mismatch n n 1 0.8607 
31-May-2018_13:55:57 Exp 7333 24 female R 2 3 1 immoralOther immoralOther match m m 1 0.7388 
31-May-2018_13:56:00 Exp 7333 24 female R 2 3 2 moralOther immoralSelf mismatch n n 1 1.0330 
31-May-2018_13:56:02 Exp 7333 24 female R 2 3 3 immoralSelf immoralSelf match m m 1 0.7251 
31-May-2018_13:56:04 Exp 7333 24 female R 2 3 4 immoralOther immoralSelf mismatch n n 1 0.5673 
31-May-2018_13:56:07 Exp 7333 24 female R 2 3 5 moralOther immoralOther mismatch n n 1 0.6954 
31-May-2018_13:56:09 Exp 7333 24 female R 2 3 6 moralOther moralOther match m n 0 0.7355 
31-May-2018_13:56:11 Exp 7333 24 female R 2 3 7 immoralOther immoralOther match m m 1 0.7356 
31-May-2018_13:56:14 Exp 7333 24 female R 2 3 8 moralSelf moralOther mismatch n n 1 0.6158 
31-May-2018_13:56:16 Exp 7333 24 female R 2 3 9 immoralSelf immoralOther mismatch n n 1 0.8319 
31-May-2018_13:56:19 Exp 7333 24 female R 2 3 10 immoralSelf moralSelf mismatch n n 1 0.8441 
31-May-2018_13:56:21 Exp 7333 24 female R 2 3 11 moralSelf moralOther mismatch n n 1 0.9182 
31-May-2018_13:56:23 Exp 7333 24 female R 2 3 12 moralSelf moralSelf match m m 1 0.6004 
31-May-2018_13:56:26 Exp 7333 24 female R 2 3 13 moralSelf immoralSelf mismatch n n 1 0.5226 
31-May-2018_13:56:28 Exp 7333 24 female R 2 3 14 immoralOther moralSelf mismatch n m 0 0.7886 
31-May-2018_13:56:30 Exp 7333 24 female R 2 3 15 moralSelf moralSelf match m m 1 0.6408 
31-May-2018_13:56:33 Exp 7333 24 female R 2 3 16 immoralSelf immoralSelf match m NA -1 1.0850 
31-May-2018_13:56:35 Exp 7333 24 female R 2 3 17 immoralOther immoralOther match m m 1 0.6770 
31-May-2018_13:56:38 Exp 7333 24 female R 2 3 18 immoralSelf immoralOther mismatch n n 1 0.9055 
31-May-2018_13:56:40 Exp 7333 24 female R 2 3 19 immoralOther moralOther mismatch n n 1 0.7033 
31-May-2018_13:56:43 Exp 7333 24 female R 2 3 20 moralOther moralOther match m m 1 0.7494 
31-May-2018_13:56:45 Exp 7333 24 female R 2 3 21 immoralSelf immoralSelf match m m 1 0.7136 
31-May-2018_13:56:47 Exp 7333 24 female R 2 3 22 moralOther moralOther match m n 0 0.6458 
31-May-2018_13:56:49 Exp 7333 24 female R 2 3 23 moralOther immoralOther mismatch n n 1 0.6157 
31-May-2018_13:56:52 Exp 7333 24 female R 2 3 24 moralSelf moralSelf match m m 1 0.6080 
31-May-2018_13:57:06 Exp 7333 24 female R 2 4 1 moralSelf moralSelf match m m 1 0.5348 
31-May-2018_13:57:08 Exp 7333 24 female R 2 4 2 moralOther immoralSelf mismatch n n 1 0.6870 
31-May-2018_13:57:11 Exp 7333 24 female R 2 4 3 immoralSelf immoralSelf match m n 0 0.6891 
31-May-2018_13:57:13 Exp 7333 24 female R 2 4 4 moralOther immoralOther mismatch n n 1 0.6652 
31-May-2018_13:57:15 Exp 7333 24 female R 2 4 5 immoralOther immoralSelf mismatch n n 1 0.7753 
31-May-2018_13:57:18 Exp 7333 24 female R 2 4 6 moralSelf immoralOther mismatch n n 1 0.7515 
31-May-2018_13:57:20 Exp 7333 24 female R 2 4 7 immoralOther immoralOther match m n 0 0.6436 
31-May-2018_13:57:23 Exp 7333 24 female R 2 4 8 moralOther moralOther match m m 1 0.9497 
31-May-2018_13:57:25 Exp 7333 24 female R 2 4 9 immoralOther moralSelf mismatch n n 1 0.8259 
31-May-2018_13:57:28 Exp 7333 24 female R 2 4 10 moralOther immoralSelf mismatch n n 1 1.0160 
31-May-2018_13:57:30 Exp 7333 24 female R 2 4 11 moralSelf moralSelf match m n 0 0.8002 
31-May-2018_13:57:32 Exp 7333 24 female R 2 4 12 immoralOther immoralOther match m m 1 0.6583 
31-May-2018_13:57:35 Exp 7333 24 female R 2 4 13 immoralSelf moralOther mismatch n n 1 0.6325 
31-May-2018_13:57:37 Exp 7333 24 female R 2 4 14 immoralSelf immoralSelf match m m 1 0.5486 
31-May-2018_13:57:39 Exp 7333 24 female R 2 4 15 moralSelf immoralSelf mismatch n n 1 0.8167 
31-May-2018_13:57:42 Exp 7333 24 female R 2 4 16 moralOther moralOther match m m 1 0.8008 
31-May-2018_13:57:44 Exp 7333 24 female R 2 4 17 moralOther moralOther match m m 1 0.5711 
31-May-2018_13:57:46 Exp 7333 24 female R 2 4 18 immoralSelf immoralSelf match m m 1 0.8191 
31-May-2018_13:57:49 Exp 7333 24 female R 2 4 19 immoralSelf moralOther mismatch n n 1 0.6091 
31-May-2018_13:57:51 Exp 7333 24 female R 2 4 20 moralSelf moralSelf match m m 1 0.6089 
31-May-2018_13:57:53 Exp 7333 24 female R 2 4 21 immoralSelf immoralOther mismatch n n 1 0.8495 
31-May-2018_13:57:56 Exp 7333 24 female R 2 4 22 immoralOther moralOther mismatch n n 1 0.7137 
31-May-2018_13:57:58 Exp 7333 24 female R 2 4 23 immoralOther immoralOther match m m 1 0.6058 
31-May-2018_13:58:01 Exp 7333 24 female R 2 4 24 moralSelf immoralSelf mismatch n NA -1 1.0850 
31-May-2018_13:58:03 Exp 7333 24 female R 2 5 1 moralSelf moralOther mismatch n n 1 0.8341 
31-May-2018_13:58:06 Exp 7333 24 female R 2 5 2 moralOther moralOther match m n 0 0.9182 
31-May-2018_13:58:08 Exp 7333 24 female R 2 5 3 immoralOther immoralOther match m m 1 0.6084 
31-May-2018_13:58:10 Exp 7333 24 female R 2 5 4 moralOther immoralOther mismatch n n 1 0.8566 
31-May-2018_13:58:13 Exp 7333 24 female R 2 5 5 moralOther moralOther match m m 1 0.9686 
31-May-2018_13:58:16 Exp 7333 24 female R 2 5 6 immoralSelf immoralSelf match m m 1 1.0807 
31-May-2018_13:58:18 Exp 7333 24 female R 2 5 7 moralOther moralSelf mismatch n n 1 0.7949 
31-May-2018_13:58:20 Exp 7333 24 female R 2 5 8 immoralSelf immoralOther mismatch n n 1 0.7031 
31-May-2018_13:58:23 Exp 7333 24 female R 2 5 9 immoralSelf immoralSelf match m m 1 0.5572 
31-May-2018_13:58:25 Exp 7333 24 female R 2 5 10 moralSelf moralSelf match m m 1 0.6393 
31-May-2018_13:58:27 Exp 7333 24 female R 2 5 11 immoralSelf immoralSelf match m m 1 0.9134 
31-May-2018_13:58:30 Exp 7333 24 female R 2 5 12 moralOther moralOther match m m 1 0.9577 
31-May-2018_13:58:32 Exp 7333 24 female R 2 5 13 moralSelf moralOther mismatch n n 1 0.7198 
31-May-2018_13:58:35 Exp 7333 24 female R 2 5 14 immoralOther moralSelf mismatch n n 1 0.7458 
31-May-2018_13:58:37 Exp 7333 24 female R 2 5 15 immoralOther moralSelf mismatch n n 1 0.8800 
31-May-2018_13:58:40 Exp 7333 24 female R 2 5 16 immoralOther moralOther mismatch n n 1 0.7461 
31-May-2018_13:58:42 Exp 7333 24 female R 2 5 17 moralSelf moralSelf match m m 1 0.8004 
31-May-2018_13:58:44 Exp 7333 24 female R 2 5 18 moralSelf moralOther mismatch n n 1 0.7945 
31-May-2018_13:58:47 Exp 7333 24 female R 2 5 19 immoralSelf moralSelf mismatch n n 1 0.6706 
31-May-2018_13:58:49 Exp 7333 24 female R 2 5 20 immoralSelf moralSelf mismatch n m 0 0.6587 
31-May-2018_13:58:51 Exp 7333 24 female R 2 5 21 moralSelf moralSelf match m m 1 0.6328 
31-May-2018_13:58:54 Exp 7333 24 female R 2 5 22 moralOther immoralOther mismatch n n 1 0.7811 
31-May-2018_13:58:56 Exp 7333 24 female R 2 5 23 immoralOther immoralOther match m m 1 0.6671 
31-May-2018_13:58:58 Exp 7333 24 female R 2 5 24 immoralOther immoralOther match m m 1 0.5532 
31-May-2018_13:59:04 Exp 7333 24 female R 3 1 1 immoralSelf immoralSelf match m NA -1 1.0850 
31-May-2018_13:59:06 Exp 7333 24 female R 3 1 2 immoralOther immoralOther match m m 1 0.6256 
31-May-2018_13:59:08 Exp 7333 24 female R 3 1 3 immoralOther immoralOther match m m 1 0.5518 
31-May-2018_13:59:11 Exp 7333 24 female R 3 1 4 immoralOther immoralSelf mismatch n n 1 0.8279 
31-May-2018_13:59:13 Exp 7333 24 female R 3 1 5 moralOther moralOther match m m 1 0.6886 
31-May-2018_13:59:16 Exp 7333 24 female R 3 1 6 immoralOther moralOther mismatch n n 1 0.7602 
31-May-2018_13:59:18 Exp 7333 24 female R 3 1 7 immoralSelf moralSelf mismatch n n 1 0.8823 
31-May-2018_13:59:21 Exp 7333 24 female R 3 1 8 moralOther immoralSelf mismatch n NA -1 1.0850 
31-May-2018_13:59:23 Exp 7333 24 female R 3 1 9 moralOther moralSelf mismatch n n 1 0.6786 
31-May-2018_13:59:25 Exp 7333 24 female R 3 1 10 immoralSelf moralOther mismatch n n 1 0.7368 
31-May-2018_13:59:28 Exp 7333 24 female R 3 1 11 moralSelf immoralOther mismatch n n 1 0.7529 
31-May-2018_13:59:30 Exp 7333 24 female R 3 1 12 immoralSelf immoralSelf match m m 1 0.7251 
31-May-2018_13:59:33 Exp 7333 24 female R 3 1 13 immoralOther moralOther mismatch n NA -1 1.0850 
31-May-2018_13:59:35 Exp 7333 24 female R 3 1 14 moralSelf moralSelf match m m 1 0.5614 
31-May-2018_13:59:37 Exp 7333 24 female R 3 1 15 moralSelf moralSelf match m m 1 0.4916 
31-May-2018_13:59:39 Exp 7333 24 female R 3 1 16 moralOther moralOther match m n 0 0.5396 
31-May-2018_13:59:42 Exp 7333 24 female R 3 1 17 moralSelf immoralOther mismatch n n 1 0.8497 
31-May-2018_13:59:44 Exp 7333 24 female R 3 1 18 moralOther immoralSelf mismatch n m 0 0.5538 
31-May-2018_13:59:46 Exp 7333 24 female R 3 1 19 immoralSelf immoralSelf match m m 1 0.7180 
31-May-2018_13:59:49 Exp 7333 24 female R 3 1 20 moralSelf moralSelf match m n 0 0.7762 
31-May-2018_13:59:51 Exp 7333 24 female R 3 1 21 immoralSelf moralOther mismatch n n 1 0.9523 
31-May-2018_13:59:53 Exp 7333 24 female R 3 1 22 moralOther moralOther match m m 1 0.5164 
31-May-2018_13:59:56 Exp 7333 24 female R 3 1 23 immoralOther immoralOther match m m 1 0.5765 
31-May-2018_13:59:58 Exp 7333 24 female R 3 1 24 moralSelf moralOther mismatch n m 0 0.5126 
31-May-2018_14:00:00 Exp 7333 24 female R 3 2 1 immoralSelf immoralSelf match m m 1 0.6608 
31-May-2018_14:00:02 Exp 7333 24 female R 3 2 2 immoralOther immoralSelf mismatch n n 1 0.7069 
31-May-2018_14:00:05 Exp 7333 24 female R 3 2 3 moralSelf moralSelf match m n 0 0.8331 
31-May-2018_14:00:07 Exp 7333 24 female R 3 2 4 immoralSelf immoralSelf match m m 1 0.6452 
31-May-2018_14:00:09 Exp 7333 24 female R 3 2 5 moralSelf moralSelf match m m 1 0.5993 
31-May-2018_14:00:12 Exp 7333 24 female R 3 2 6 immoralOther moralSelf mismatch n n 1 0.6094 
31-May-2018_14:00:14 Exp 7333 24 female R 3 2 7 immoralSelf immoralSelf match m m 1 0.9456 
31-May-2018_14:00:16 Exp 7333 24 female R 3 2 8 moralSelf immoralOther mismatch n n 1 0.6077 
31-May-2018_14:00:19 Exp 7333 24 female R 3 2 9 moralOther immoralOther mismatch n n 1 0.7519 
31-May-2018_14:00:21 Exp 7333 24 female R 3 2 10 immoralSelf moralOther mismatch n n 1 0.6600 
31-May-2018_14:00:24 Exp 7333 24 female R 3 2 11 moralOther moralOther match m n 0 0.7782 
31-May-2018_14:00:26 Exp 7333 24 female R 3 2 12 moralOther moralOther match m m 1 0.4724 
31-May-2018_14:00:28 Exp 7333 24 female R 3 2 13 moralOther immoralOther mismatch n n 1 0.5724 
31-May-2018_14:00:30 Exp 7333 24 female R 3 2 14 immoralSelf immoralOther mismatch n n 1 1.0526 
31-May-2018_14:00:33 Exp 7333 24 female R 3 2 15 moralSelf moralSelf match m m 1 0.6607 
31-May-2018_14:00:35 Exp 7333 24 female R 3 2 16 moralSelf immoralOther mismatch n n 1 0.7308 
31-May-2018_14:00:37 Exp 7333 24 female R 3 2 17 immoralOther immoralOther match m m 1 0.6829 
31-May-2018_14:00:40 Exp 7333 24 female R 3 2 18 immoralSelf moralOther mismatch n n 1 0.8691 
31-May-2018_14:00:42 Exp 7333 24 female R 3 2 19 moralOther moralOther match m m 1 0.6412 
31-May-2018_14:00:44 Exp 7333 24 female R 3 2 20 moralOther immoralOther mismatch n n 1 0.4913 
31-May-2018_14:00:47 Exp 7333 24 female R 3 2 21 immoralOther moralOther mismatch n n 1 0.8115 
31-May-2018_14:00:49 Exp 7333 24 female R 3 2 22 immoralOther immoralOther match m m 1 0.5075 
31-May-2018_14:00:51 Exp 7333 24 female R 3 2 23 immoralOther immoralOther match m m 1 0.5678 
31-May-2018_14:00:53 Exp 7333 24 female R 3 2 24 moralSelf moralOther mismatch n n 1 0.7039 
31-May-2018_14:00:56 Exp 7333 24 female R 3 3 1 moralSelf moralSelf match m m 1 0.7420 
31-May-2018_14:00:59 Exp 7333 24 female R 3 3 2 immoralSelf immoralSelf match m m 1 1.0681 
31-May-2018_14:01:01 Exp 7333 24 female R 3 3 3 immoralOther immoralOther match m m 1 0.5759 
31-May-2018_14:01:03 Exp 7333 24 female R 3 3 4 immoralSelf moralSelf mismatch n n 1 0.6965 
31-May-2018_14:01:05 Exp 7333 24 female R 3 3 5 moralSelf moralSelf match m m 1 0.5526 
31-May-2018_14:01:08 Exp 7333 24 female R 3 3 6 moralOther immoralSelf mismatch n n 1 0.8366 
31-May-2018_14:01:10 Exp 7333 24 female R 3 3 7 moralOther immoralOther mismatch n n 1 0.8968 
31-May-2018_14:01:13 Exp 7333 24 female R 3 3 8 immoralOther moralOther mismatch n n 1 0.8090 
31-May-2018_14:01:15 Exp 7333 24 female R 3 3 9 moralOther moralOther match m m 1 0.7772 
31-May-2018_14:01:17 Exp 7333 24 female R 3 3 10 immoralSelf moralOther mismatch n n 1 0.6232 
31-May-2018_14:01:20 Exp 7333 24 female R 3 3 11 immoralOther immoralOther match m m 1 0.6854 
31-May-2018_14:01:22 Exp 7333 24 female R 3 3 12 moralSelf immoralOther mismatch n n 1 0.5434 
31-May-2018_14:01:24 Exp 7333 24 female R 3 3 13 immoralOther immoralOther match m m 1 0.6136 
31-May-2018_14:01:27 Exp 7333 24 female R 3 3 14 moralOther moralSelf mismatch n n 1 0.8937 
31-May-2018_14:01:29 Exp 7333 24 female R 3 3 15 immoralSelf immoralSelf match m m 1 0.5499 
31-May-2018_14:01:31 Exp 7333 24 female R 3 3 16 moralSelf moralOther mismatch n n 1 0.6100 
31-May-2018_14:01:33 Exp 7333 24 female R 3 3 17 immoralSelf immoralSelf match m m 1 0.7460 
31-May-2018_14:01:36 Exp 7333 24 female R 3 3 18 moralOther moralOther match m m 1 1.0323 
31-May-2018_14:01:38 Exp 7333 24 female R 3 3 19 immoralOther moralOther mismatch n n 1 0.6443 
31-May-2018_14:01:41 Exp 7333 24 female R 3 3 20 moralSelf moralSelf match m m 1 0.7586 
31-May-2018_14:01:43 Exp 7333 24 female R 3 3 21 immoralSelf moralOther mismatch n n 1 0.7367 
31-May-2018_14:01:46 Exp 7333 24 female R 3 3 22 moralOther moralOther match m m 1 1.0570 
31-May-2018_14:01:48 Exp 7333 24 female R 3 3 23 immoralOther moralOther mismatch n n 1 0.5350 
31-May-2018_14:01:50 Exp 7333 24 female R 3 3 24 moralSelf immoralOther mismatch n n 1 0.7592 
31-May-2018_14:02:04 Exp 7333 24 female R 3 4 1 moralSelf moralSelf match m n 0 0.5179 
31-May-2018_14:02:06 Exp 7333 24 female R 3 4 2 moralOther immoralSelf mismatch n NA -1 1.0850 
31-May-2018_14:02:08 Exp 7333 24 female R 3 4 3 immoralOther moralSelf mismatch n n 1 0.5941 
31-May-2018_14:02:11 Exp 7333 24 female R 3 4 4 moralSelf moralSelf match m m 1 0.7343 
31-May-2018_14:02:13 Exp 7333 24 female R 3 4 5 moralOther moralSelf mismatch n n 1 0.6384 
31-May-2018_14:02:15 Exp 7333 24 female R 3 4 6 moralSelf moralSelf match m m 1 0.5606 
31-May-2018_14:02:18 Exp 7333 24 female R 3 4 7 moralOther immoralSelf mismatch n n 1 0.7307 
31-May-2018_14:02:20 Exp 7333 24 female R 3 4 8 moralOther moralOther match m m 1 0.6988 
31-May-2018_14:02:22 Exp 7333 24 female R 3 4 9 immoralSelf immoralSelf match m m 1 0.6569 
31-May-2018_14:02:25 Exp 7333 24 female R 3 4 10 immoralSelf moralOther mismatch n n 1 0.7851 
31-May-2018_14:02:27 Exp 7333 24 female R 3 4 11 immoralOther moralOther mismatch n n 1 0.6473 
31-May-2018_14:02:29 Exp 7333 24 female R 3 4 12 immoralSelf moralSelf mismatch n n 1 0.7353 
31-May-2018_14:02:32 Exp 7333 24 female R 3 4 13 moralSelf immoralSelf mismatch n n 1 0.8314 
31-May-2018_14:02:34 Exp 7333 24 female R 3 4 14 moralOther moralOther match m m 1 0.5877 
31-May-2018_14:02:36 Exp 7333 24 female R 3 4 15 immoralSelf immoralOther mismatch n n 1 0.7278 
31-May-2018_14:02:39 Exp 7333 24 female R 3 4 16 moralSelf immoralSelf mismatch n n 1 0.6643 
31-May-2018_14:02:41 Exp 7333 24 female R 3 4 17 immoralSelf immoralSelf match m m 1 0.6701 
31-May-2018_14:02:43 Exp 7333 24 female R 3 4 18 immoralOther immoralOther match m m 1 0.7302 
31-May-2018_14:02:46 Exp 7333 24 female R 3 4 19 moralSelf immoralSelf mismatch n NA -1 1.0850 
31-May-2018_14:02:48 Exp 7333 24 female R 3 4 20 immoralOther immoralSelf mismatch n n 1 0.7005 
31-May-2018_14:02:51 Exp 7333 24 female R 3 4 21 immoralSelf immoralSelf match m m 1 0.7866 
31-May-2018_14:02:53 Exp 7333 24 female R 3 4 22 immoralOther immoralOther match m m 1 0.8727 
31-May-2018_14:02:56 Exp 7333 24 female R 3 4 23 moralOther moralOther match m NA -1 1.0849 
31-May-2018_14:02:58 Exp 7333 24 female R 3 4 24 immoralOther immoralOther match m m 1 0.5990 
31-May-2018_14:03:00 Exp 7333 24 female R 3 5 1 immoralOther immoralOther match m m 1 0.5371 
31-May-2018_14:03:03 Exp 7333 24 female R 3 5 2 moralOther moralOther match m m 1 0.8793 
31-May-2018_14:03:05 Exp 7333 24 female R 3 5 3 moralOther moralSelf mismatch n n 1 0.7773 
31-May-2018_14:03:08 Exp 7333 24 female R 3 5 4 immoralOther moralOther mismatch n n 1 0.7676 
31-May-2018_14:03:10 Exp 7333 24 female R 3 5 5 immoralOther moralSelf mismatch n n 1 0.7837 
31-May-2018_14:03:13 Exp 7333 24 female R 3 5 6 moralOther immoralSelf mismatch n n 1 0.8459 
31-May-2018_14:03:15 Exp 7333 24 female R 3 5 7 moralOther moralSelf mismatch n n 1 0.6800 
31-May-2018_14:03:17 Exp 7333 24 female R 3 5 8 moralSelf immoralOther mismatch n n 1 0.8181 
31-May-2018_14:03:20 Exp 7333 24 female R 3 5 9 moralOther moralOther match m m 1 0.9442 
31-May-2018_14:03:22 Exp 7333 24 female R 3 5 10 immoralSelf immoralSelf match m m 1 0.9184 
31-May-2018_14:03:25 Exp 7333 24 female R 3 5 11 moralSelf immoralOther mismatch n n 1 0.6486 
31-May-2018_14:03:27 Exp 7333 24 female R 3 5 12 immoralOther immoralOther match m m 1 0.8486 
31-May-2018_14:03:30 Exp 7333 24 female R 3 5 13 immoralSelf moralSelf mismatch n n 1 1.0088 
31-May-2018_14:03:32 Exp 7333 24 female R 3 5 14 immoralOther moralSelf mismatch n n 1 0.7529 
31-May-2018_14:03:35 Exp 7333 24 female R 3 5 15 moralOther moralOther match m m 1 0.6851 
31-May-2018_14:03:37 Exp 7333 24 female R 3 5 16 moralSelf immoralOther mismatch n n 1 0.6712 
31-May-2018_14:03:39 Exp 7333 24 female R 3 5 17 moralSelf moralSelf match m m 1 0.7955 
31-May-2018_14:03:41 Exp 7333 24 female R 3 5 18 immoralOther immoralOther match m m 1 0.6155 
31-May-2018_14:03:44 Exp 7333 24 female R 3 5 19 immoralSelf moralOther mismatch n n 1 0.7436 
31-May-2018_14:03:46 Exp 7333 24 female R 3 5 20 immoralSelf immoralSelf match m m 1 0.7578 
31-May-2018_14:03:48 Exp 7333 24 female R 3 5 21 immoralSelf immoralSelf match m m 1 0.5599 
31-May-2018_14:03:51 Exp 7333 24 female R 3 5 22 moralSelf moralSelf match m n 0 0.4900 
31-May-2018_14:03:53 Exp 7333 24 female R 3 5 23 immoralSelf moralOther mismatch n n 1 0.8022 
31-May-2018_14:03:55 Exp 7333 24 female R 3 5 24 moralSelf moralSelf match m m 1 0.7083 
Date Prac Sub Age Sex Hand Block Bin Trial Shape Label Match CorrResp Resp ACC RT
31-May-2018_14:08:48 Exp 7333 24 female R 1 1 1 immoralSelf immoralSelf match m n 0 0.9190 
31-May-2018_14:08:50 Exp 7333 24 female R 1 1 2 moralSelf moralOther mismatch n n 1 0.8153 
31-May-2018_14:08:53 Exp 7333 24 female R 1 1 3 moralSelf moralSelf match m m 1 0.6374 
31-May-2018_14:08:55 Exp 7333 24 female R 1 1 4 immoralOther immoralSelf mismatch n n 1 0.5915 
31-May-2018_14:08:57 Exp 7333 24 female R 1 1 5 moralOther moralOther match m m 1 0.7317 
31-May-2018_14:08:59 Exp 7333 24 female R 1 1 6 immoralSelf moralOther mismatch n n 1 0.6119 
31-May-2018_14:09:02 Exp 7333 24 female R 1 1 7 immoralSelf moralOther mismatch n n 1 0.6119 
31-May-2018_14:09:04 Exp 7333 24 female R 1 1 8 moralSelf moralSelf match m m 1 0.8680 
31-May-2018_14:09:06 Exp 7333 24 female R 1 1 9 immoralOther immoralOther match m m 1 0.7202 
31-May-2018_14:09:09 Exp 7333 24 female R 1 1 10 moralOther moralSelf mismatch n n 1 0.7783 
31-May-2018_14:09:11 Exp 7333 24 female R 1 1 11 moralOther moralOther match m m 1 0.8005 
31-May-2018_14:09:14 Exp 7333 24 female R 1 1 12 moralSelf immoralSelf mismatch n n 1 0.8746 
31-May-2018_14:09:16 Exp 7333 24 female R 1 1 13 immoralSelf immoralOther mismatch n n 1 0.8387 
31-May-2018_14:09:19 Exp 7333 24 female R 1 1 14 immoralOther immoralOther match m m 1 0.6648 
31-May-2018_14:09:21 Exp 7333 24 female R 1 1 15 immoralSelf immoralSelf match m m 1 0.8151 
31-May-2018_14:09:23 Exp 7333 24 female R 1 1 16 moralSelf immoralSelf mismatch n n 1 0.8071 
31-May-2018_14:09:26 Exp 7333 24 female R 1 1 17 immoralSelf immoralSelf match m m 1 0.5112 
31-May-2018_14:09:28 Exp 7333 24 female R 1 1 18 moralOther moralOther match m m 1 0.7313 
31-May-2018_14:09:30 Exp 7333 24 female R 1 1 19 immoralOther immoralOther match m m 1 0.5876 
31-May-2018_14:09:32 Exp 7333 24 female R 1 1 20 moralSelf moralSelf match m m 1 0.6796 
31-May-2018_14:09:35 Exp 7333 24 female R 1 1 21 moralOther moralSelf mismatch n n 1 0.7697 
31-May-2018_14:09:37 Exp 7333 24 female R 1 1 22 immoralOther moralSelf mismatch n n 1 0.5939 
31-May-2018_14:09:39 Exp 7333 24 female R 1 1 23 moralOther immoralOther mismatch n n 1 0.6781 
31-May-2018_14:09:42 Exp 7333 24 female R 1 1 24 immoralOther immoralSelf mismatch n n 1 0.6242 
31-May-2018_14:09:44 Exp 7333 24 female R 1 2 1 immoralOther moralSelf mismatch n n 1 0.6703 
31-May-2018_14:09:46 Exp 7333 24 female R 1 2 2 moralOther moralOther match m m 1 0.8265 
31-May-2018_14:09:49 Exp 7333 24 female R 1 2 3 immoralOther immoralOther match m m 1 0.5926 
31-May-2018_14:09:51 Exp 7333 24 female R 1 2 4 moralSelf moralSelf match m m 1 0.5728 
31-May-2018_14:09:53 Exp 7333 24 female R 1 2 5 immoralSelf immoralSelf match m m 1 0.7327 
31-May-2018_14:09:55 Exp 7333 24 female R 1 2 6 moralOther moralOther match m m 1 0.6449 
31-May-2018_14:09:58 Exp 7333 24 female R 1 2 7 moralOther moralOther match m m 1 1.0391 
31-May-2018_14:10:00 Exp 7333 24 female R 1 2 8 moralSelf moralSelf match m m 1 0.7293 
31-May-2018_14:10:03 Exp 7333 24 female R 1 2 9 immoralSelf moralSelf mismatch n n 1 0.8974 
31-May-2018_14:10:06 Exp 7333 24 female R 1 2 10 moralSelf immoralSelf mismatch n n 1 0.8875 
31-May-2018_14:10:08 Exp 7333 24 female R 1 2 11 moralSelf immoralSelf mismatch n n 1 0.9037 
31-May-2018_14:10:10 Exp 7333 24 female R 1 2 12 immoralSelf moralSelf mismatch n n 1 0.7019 
31-May-2018_14:10:13 Exp 7333 24 female R 1 2 13 moralOther immoralOther mismatch n n 1 0.7159 
31-May-2018_14:10:15 Exp 7333 24 female R 1 2 14 moralSelf immoralSelf mismatch n n 1 0.7601 
31-May-2018_14:10:18 Exp 7333 24 female R 1 2 15 immoralOther immoralSelf mismatch n n 1 0.7623 
31-May-2018_14:10:20 Exp 7333 24 female R 1 2 16 moralOther moralSelf mismatch n n 1 0.7164 
31-May-2018_14:10:22 Exp 7333 24 female R 1 2 17 moralSelf moralSelf match m m 1 0.6805 
31-May-2018_14:10:25 Exp 7333 24 female R 1 2 18 immoralSelf immoralSelf match m m 1 0.7389 
31-May-2018_14:10:27 Exp 7333 24 female R 1 2 19 immoralOther immoralOther match m m 1 0.6648 
31-May-2018_14:10:29 Exp 7333 24 female R 1 2 20 moralOther immoralOther mismatch n n 1 0.7329 
31-May-2018_14:10:32 Exp 7333 24 female R 1 2 21 immoralOther moralOther mismatch n n 1 0.8450 
31-May-2018_14:10:34 Exp 7333 24 female R 1 2 22 immoralOther immoralOther match m m 1 0.7271 
31-May-2018_14:10:36 Exp 7333 24 female R 1 2 23 immoralSelf immoralSelf match m m 1 0.7194 
31-May-2018_14:10:39 Exp 7333 24 female R 1 2 24 immoralSelf moralOther mismatch n n 1 0.7534 
Date Prac Sub Age Sex Hand Block Bin Trial Shape Label Match CorrResp Resp ACC RT
31-May-2018_14:15:26 Exp 7333 24 female R 1 1 1 immoralSelf immoralSelf match m m 1 0.7339 
31-May-2018_14:15:28 Exp 7333 24 female R 1 1 2 moralOther immoralOther mismatch n n 1 0.7981 
31-May-2018_14:15:31 Exp 7333 24 female R 1 1 3 moralOther moralSelf mismatch n n 1 0.7763 
31-May-2018_14:15:33 Exp 7333 24 female R 1 1 4 immoralSelf immoralSelf match m m 1 0.7203 
31-May-2018_14:15:36 Exp 7333 24 female R 1 1 5 moralOther moralOther match m m 1 0.7544 
31-May-2018_14:15:38 Exp 7333 24 female R 1 1 6 moralSelf immoralSelf mismatch n n 1 0.7026 
31-May-2018_14:15:40 Exp 7333 24 female R 1 1 7 immoralSelf immoralSelf match m m 1 0.5887 
31-May-2018_14:15:43 Exp 7333 24 female R 1 1 8 moralSelf immoralOther mismatch n n 1 0.7769 
31-May-2018_14:15:45 Exp 7333 24 female R 1 1 9 moralSelf immoralSelf mismatch n n 1 0.6730 
31-May-2018_14:15:47 Exp 7333 24 female R 1 1 10 immoralOther immoralOther match m m 1 0.5971 
31-May-2018_14:15:49 Exp 7333 24 female R 1 1 11 immoralOther moralSelf mismatch n n 1 0.7832 
31-May-2018_14:15:52 Exp 7333 24 female R 1 1 12 immoralOther moralSelf mismatch n n 1 0.5894 
31-May-2018_14:15:54 Exp 7333 24 female R 1 1 13 moralSelf moralSelf match m m 1 0.4736 
31-May-2018_14:15:56 Exp 7333 24 female R 1 1 14 immoralSelf moralSelf mismatch n n 1 0.7338 
31-May-2018_14:15:58 Exp 7333 24 female R 1 1 15 moralSelf moralSelf match m m 1 0.5098 
31-May-2018_14:16:01 Exp 7333 24 female R 1 1 16 immoralOther immoralOther match m m 1 0.6819 
31-May-2018_14:16:03 Exp 7333 24 female R 1 1 17 moralOther moralOther match m m 1 0.7961 
31-May-2018_14:16:05 Exp 7333 24 female R 1 1 18 moralSelf moralSelf match m m 1 0.5522 
31-May-2018_14:16:08 Exp 7333 24 female R 1 1 19 moralOther moralOther match m m 1 0.7324 
31-May-2018_14:16:10 Exp 7333 24 female R 1 1 20 immoralOther immoralSelf mismatch n n 1 0.6605 
31-May-2018_14:16:12 Exp 7333 24 female R 1 1 21 immoralOther immoralOther match m m 1 0.5465 
31-May-2018_14:16:14 Exp 7333 24 female R 1 1 22 moralOther immoralSelf mismatch n n 1 0.7047 
31-May-2018_14:16:17 Exp 7333 24 female R 1 1 23 immoralSelf moralOther mismatch n n 1 0.6309 
31-May-2018_14:16:19 Exp 7333 24 female R 1 1 24 immoralSelf immoralOther mismatch n n 1 0.9870 
31-May-2018_14:16:21 Exp 7333 24 female R 1 2 1 immoralSelf immoralSelf match m m 1 0.4891 
31-May-2018_14:16:24 Exp 7333 24 female R 1 2 2 immoralOther moralOther mismatch n n 1 0.6252 
31-May-2018_14:16:26 Exp 7333 24 female R 1 2 3 immoralOther moralOther mismatch n n 1 0.6633 
31-May-2018_14:16:28 Exp 7333 24 female R 1 2 4 moralOther moralOther match m m 1 0.6376 
31-May-2018_14:16:30 Exp 7333 24 female R 1 2 5 immoralSelf moralSelf mismatch n n 1 0.6476 
31-May-2018_14:16:33 Exp 7333 24 female R 1 2 6 immoralSelf moralOther mismatch n n 1 0.9199 
31-May-2018_14:16:35 Exp 7333 24 female R 1 2 7 immoralOther immoralOther match m m 1 0.5619 
31-May-2018_14:16:37 Exp 7333 24 female R 1 2 8 moralSelf moralSelf match m m 1 0.5800 
31-May-2018_14:16:40 Exp 7333 24 female R 1 2 9 immoralSelf immoralSelf match m m 1 0.9141 
31-May-2018_14:16:42 Exp 7333 24 female R 1 2 10 immoralSelf immoralSelf match m m 1 0.6063 
31-May-2018_14:16:45 Exp 7333 24 female R 1 2 11 moralSelf immoralSelf mismatch n n 1 0.7685 
31-May-2018_14:16:47 Exp 7333 24 female R 1 2 12 moralSelf moralSelf match m m 1 0.5847 
31-May-2018_14:16:49 Exp 7333 24 female R 1 2 13 moralSelf moralOther mismatch n n 1 0.5907 
31-May-2018_14:16:51 Exp 7333 24 female R 1 2 14 moralSelf immoralSelf mismatch n n 1 0.6829 
31-May-2018_14:16:54 Exp 7333 24 female R 1 2 15 immoralSelf moralSelf mismatch n n 1 0.7490 
31-May-2018_14:16:56 Exp 7333 24 female R 1 2 16 moralOther immoralSelf mismatch n n 1 0.7052 
31-May-2018_14:16:59 Exp 7333 24 female R 1 2 17 moralOther immoralOther mismatch n n 1 0.8632 
31-May-2018_14:17:01 Exp 7333 24 female R 1 2 18 immoralOther moralSelf mismatch n n 1 0.8135 
31-May-2018_14:17:03 Exp 7333 24 female R 1 2 19 moralOther moralSelf mismatch n n 1 0.8055 
31-May-2018_14:17:06 Exp 7333 24 female R 1 2 20 immoralOther immoralOther match m m 1 0.5996 
31-May-2018_14:17:08 Exp 7333 24 female R 1 2 21 moralOther moralOther match m m 1 0.4738 
31-May-2018_14:17:10 Exp 7333 24 female R 1 2 22 immoralOther immoralOther match m n 0 0.6299 
31-May-2018_14:17:12 Exp 7333 24 female R 1 2 23 moralSelf moralSelf match m m 1 0.7220 
31-May-2018_14:17:15 Exp 7333 24 female R 1 2 24 moralOther moralOther match m m 1 0.8842 
Date Prac Sub Age Sex Hand Block Bin Trial Shape Label Match CorrResp Resp ACC RT
31-May-2018_14:21:54 Exp 7333 24 female R 1 1 1 moralOther moralOther match m n 0 0.6102 
31-May-2018_14:21:57 Exp 7333 24 female R 1 1 2 moralSelf immoralOther mismatch n n 1 0.6584 
31-May-2018_14:21:59 Exp 7333 24 female R 1 1 3 moralOther moralSelf mismatch n n 1 0.7525 
31-May-2018_14:22:01 Exp 7333 24 female R 1 1 4 moralOther immoralSelf mismatch n n 1 0.7486 
31-May-2018_14:22:04 Exp 7333 24 female R 1 1 5 immoralOther moralSelf mismatch n n 1 0.7128 
31-May-2018_14:22:06 Exp 7333 24 female R 1 1 6 moralOther immoralSelf mismatch n n 1 0.7570 
31-May-2018_14:22:08 Exp 7333 24 female R 1 1 7 immoralOther immoralOther match m m 1 0.6250 
31-May-2018_14:22:11 Exp 7333 24 female R 1 1 8 immoralOther moralSelf mismatch n n 1 0.8152 
31-May-2018_14:22:13 Exp 7333 24 female R 1 1 9 immoralSelf moralSelf mismatch n n 1 0.6713 
31-May-2018_14:22:15 Exp 7333 24 female R 1 1 10 immoralOther immoralOther match m m 1 0.6595 
31-May-2018_14:22:18 Exp 7333 24 female R 1 1 11 immoralSelf immoralSelf match m m 1 0.6476 
31-May-2018_14:22:20 Exp 7333 24 female R 1 1 12 moralSelf moralOther mismatch n n 1 0.7997 
31-May-2018_14:22:22 Exp 7333 24 female R 1 1 13 immoralOther immoralOther match m m 1 0.6345 
31-May-2018_14:22:25 Exp 7333 24 female R 1 1 14 moralSelf immoralOther mismatch n n 1 0.9180 
31-May-2018_14:22:27 Exp 7333 24 female R 1 1 15 immoralSelf immoralSelf match m m 1 0.6562 
31-May-2018_14:22:30 Exp 7333 24 female R 1 1 16 immoralOther moralSelf mismatch n n 1 0.8883 
31-May-2018_14:22:32 Exp 7333 24 female R 1 1 17 immoralSelf immoralSelf match m m 1 0.9044 
31-May-2018_14:22:35 Exp 7333 24 female R 1 1 18 immoralSelf moralSelf mismatch n n 1 0.7507 
31-May-2018_14:22:37 Exp 7333 24 female R 1 1 19 immoralSelf moralSelf mismatch n n 1 0.8028 
31-May-2018_14:22:39 Exp 7333 24 female R 1 1 20 moralOther moralOther match m m 1 0.9008 
31-May-2018_14:22:42 Exp 7333 24 female R 1 1 21 moralSelf moralSelf match m n 0 0.6430 
31-May-2018_14:22:44 Exp 7333 24 female R 1 1 22 moralSelf moralSelf match m m 1 1.0373 
31-May-2018_14:22:47 Exp 7333 24 female R 1 1 23 moralSelf moralSelf match m m 1 0.5032 
31-May-2018_14:22:49 Exp 7333 24 female R 1 1 24 moralOther moralOther match m m 1 0.6135 
31-May-2018_14:22:51 Exp 7333 24 female R 1 2 1 immoralSelf moralOther mismatch n n 1 0.6615 
31-May-2018_14:22:53 Exp 7333 24 female R 1 2 2 immoralSelf immoralSelf match m m 1 0.7482 
31-May-2018_14:22:56 Exp 7333 24 female R 1 2 3 moralOther immoralOther mismatch n n 1 0.7438 
31-May-2018_14:22:58 Exp 7333 24 female R 1 2 4 immoralOther immoralOther match m m 1 0.6059 
31-May-2018_14:23:00 Exp 7333 24 female R 1 2 5 immoralOther moralSelf mismatch n n 1 0.6881 
31-May-2018_14:23:03 Exp 7333 24 female R 1 2 6 immoralOther immoralOther match m m 1 0.7362 
31-May-2018_14:23:05 Exp 7333 24 female R 1 2 7 moralOther moralOther match m m 1 0.6644 
31-May-2018_14:23:07 Exp 7333 24 female R 1 2 8 immoralOther immoralSelf mismatch n n 1 0.6304 
31-May-2018_14:23:10 Exp 7333 24 female R 1 2 9 moralOther moralOther match m m 1 0.6025 
31-May-2018_14:23:12 Exp 7333 24 female R 1 2 10 immoralSelf immoralSelf match m m 1 0.7167 
31-May-2018_14:23:14 Exp 7333 24 female R 1 2 11 moralSelf immoralOther mismatch n n 1 0.6328 
31-May-2018_14:23:16 Exp 7333 24 female R 1 2 12 immoralSelf moralSelf mismatch n m 0 0.6690 
31-May-2018_14:23:19 Exp 7333 24 female R 1 2 13 immoralSelf immoralSelf match m m 1 0.7528 
31-May-2018_14:23:21 Exp 7333 24 female R 1 2 14 moralSelf immoralOther mismatch n n 1 0.6210 
31-May-2018_14:23:23 Exp 7333 24 female R 1 2 15 moralOther moralOther match m m 1 0.7074 
31-May-2018_14:23:26 Exp 7333 24 female R 1 2 16 moralSelf moralSelf match m n 0 0.6875 
31-May-2018_14:23:28 Exp 7333 24 female R 1 2 17 moralOther moralSelf mismatch n n 1 0.9598 
31-May-2018_14:23:30 Exp 7333 24 female R 1 2 18 moralSelf moralSelf match m m 1 0.5377 
31-May-2018_14:23:33 Exp 7333 24 female R 1 2 19 moralSelf immoralSelf mismatch n n 1 0.6079 
31-May-2018_14:23:35 Exp 7333 24 female R 1 2 20 moralOther immoralSelf mismatch n n 1 0.7920 
31-May-2018_14:23:37 Exp 7333 24 female R 1 2 21 immoralSelf moralSelf mismatch n n 1 0.7082 
31-May-2018_14:23:40 Exp 7333 24 female R 1 2 22 immoralOther immoralSelf mismatch n n 1 0.6483 
31-May-2018_14:23:42 Exp 7333 24 female R 1 2 23 moralSelf moralSelf match m m 1 0.7045 
31-May-2018_14:23:44 Exp 7333 24 female R 1 2 24 immoralOther immoralOther match m m 1 0.7106 
Date Prac Sub Age Sex Hand Block Bin Trial Shape Label Match CorrResp Resp ACC RT
31-May-2018_14:28:19 Exp 7333 24 female R 1 1 1 immoralOther moralOther mismatch n n 1 0.7624 
31-May-2018_14:28:21 Exp 7333 24 female R 1 1 2 immoralOther immoralOther match m m 1 0.7484 
31-May-2018_14:28:24 Exp 7333 24 female R 1 1 3 moralOther moralOther match m m 1 0.9926 
31-May-2018_14:28:26 Exp 7333 24 female R 1 1 4 moralOther moralOther match m m 1 0.5807 
31-May-2018_14:28:28 Exp 7333 24 female R 1 1 5 moralOther moralOther match m m 1 0.4589 
31-May-2018_14:28:31 Exp 7333 24 female R 1 1 6 immoralSelf moralSelf mismatch n n 1 0.6570 
31-May-2018_14:28:33 Exp 7333 24 female R 1 1 7 moralSelf moralSelf match m m 1 0.6411 
31-May-2018_14:28:35 Exp 7333 24 female R 1 1 8 immoralOther immoralOther match m m 1 0.7156 
31-May-2018_14:28:37 Exp 7333 24 female R 1 1 9 moralOther immoralOther mismatch n n 1 0.6635 
31-May-2018_14:28:40 Exp 7333 24 female R 1 1 10 moralOther moralSelf mismatch n n 1 0.7415 
31-May-2018_14:28:42 Exp 7333 24 female R 1 1 11 immoralOther immoralSelf mismatch n n 1 0.8356 
31-May-2018_14:28:45 Exp 7333 24 female R 1 1 12 immoralSelf moralSelf mismatch n n 1 0.7678 
31-May-2018_14:28:47 Exp 7333 24 female R 1 1 13 moralSelf immoralSelf mismatch n n 1 0.6400 
31-May-2018_14:28:49 Exp 7333 24 female R 1 1 14 moralSelf moralSelf match m m 1 0.5781 
31-May-2018_14:28:51 Exp 7333 24 female R 1 1 15 moralSelf moralOther mismatch n n 1 0.5842 
31-May-2018_14:28:54 Exp 7333 24 female R 1 1 16 immoralOther immoralOther match m n 0 0.7343 
31-May-2018_14:28:56 Exp 7333 24 female R 1 1 17 immoralSelf immoralSelf match m m 1 0.7345 
31-May-2018_14:28:59 Exp 7333 24 female R 1 1 18 immoralSelf immoralSelf match m m 1 0.8786 
31-May-2018_14:29:01 Exp 7333 24 female R 1 1 19 moralOther immoralOther mismatch n n 1 0.6887 
31-May-2018_14:29:03 Exp 7333 24 female R 1 1 20 immoralSelf moralOther mismatch n n 1 0.6969 
31-May-2018_14:29:06 Exp 7333 24 female R 1 1 21 immoralSelf immoralSelf match m m 1 0.8169 
31-May-2018_14:29:08 Exp 7333 24 female R 1 1 22 moralSelf moralOther mismatch n n 1 0.8551 
31-May-2018_14:29:10 Exp 7333 24 female R 1 1 23 moralSelf moralSelf match m m 1 0.5833 
31-May-2018_14:29:13 Exp 7333 24 female R 1 1 24 immoralOther moralOther mismatch n n 1 0.5495 
31-May-2018_14:29:15 Exp 7333 24 female R 1 2 1 immoralOther immoralSelf mismatch n n 1 0.8336 
31-May-2018_14:29:17 Exp 7333 24 female R 1 2 2 moralSelf immoralSelf mismatch n n 1 0.6298 
31-May-2018_14:29:20 Exp 7333 24 female R 1 2 3 immoralSelf moralSelf mismatch n n 1 0.7698 
31-May-2018_14:29:22 Exp 7333 24 female R 1 2 4 moralOther moralOther match m m 1 0.6819 
31-May-2018_14:29:24 Exp 7333 24 female R 1 2 5 immoralSelf immoralSelf match m m 1 0.7641 
31-May-2018_14:29:27 Exp 7333 24 female R 1 2 6 moralSelf moralSelf match m m 1 0.7662 
31-May-2018_14:29:29 Exp 7333 24 female R 1 2 7 moralSelf immoralOther mismatch n n 1 0.6483 
31-May-2018_14:29:31 Exp 7333 24 female R 1 2 8 immoralOther moralSelf mismatch n n 1 0.6726 
31-May-2018_14:29:34 Exp 7333 24 female R 1 2 9 immoralSelf immoralSelf match m m 1 0.6368 
31-May-2018_14:29:36 Exp 7333 24 female R 1 2 10 moralSelf immoralSelf mismatch n n 1 0.6168 
31-May-2018_14:29:38 Exp 7333 24 female R 1 2 11 immoralOther moralOther mismatch n n 1 0.7608 
31-May-2018_14:29:41 Exp 7333 24 female R 1 2 12 moralSelf moralSelf match m m 1 0.7310 
31-May-2018_14:29:43 Exp 7333 24 female R 1 2 13 moralOther immoralSelf mismatch n n 1 0.9071 
31-May-2018_14:29:46 Exp 7333 24 female R 1 2 14 immoralOther immoralOther match m m 1 0.9753 
31-May-2018_14:29:48 Exp 7333 24 female R 1 2 15 moralOther immoralOther mismatch n n 1 0.6954 
31-May-2018_14:29:51 Exp 7333 24 female R 1 2 16 immoralOther immoralOther match m m 1 0.8796 
31-May-2018_14:29:53 Exp 7333 24 female R 1 2 17 moralOther moralOther match m NA -1 1.0850 
31-May-2018_14:29:56 Exp 7333 24 female R 1 2 18 immoralSelf immoralOther mismatch n n 1 0.6659 
31-May-2018_14:29:58 Exp 7333 24 female R 1 2 19 immoralSelf immoralSelf match m m 1 0.7120 
31-May-2018_14:30:00 Exp 7333 24 female R 1 2 20 moralOther immoralSelf mismatch n n 1 0.7562 
31-May-2018_14:30:03 Exp 7333 24 female R 1 2 21 immoralSelf moralSelf mismatch n n 1 0.8082 
31-May-2018_14:30:05 Exp 7333 24 female R 1 2 22 immoralOther immoralOther match m m 1 0.5365 
31-May-2018_14:30:07 Exp 7333 24 female R 1 2 23 moralOther moralOther match m m 1 0.7045 
31-May-2018_14:30:09 Exp 7333 24 female R 1 2 24 moralSelf moralSelf match m m 1 0.5346 
Date Prac Sub Age Sex Hand Block Bin Trial Shape Label Match CorrResp Resp ACC RT
31-May-2018_14:34:46 Exp 7333 24 female R 1 1 1 immoralOther moralOther mismatch n n 1 0.7765 
31-May-2018_14:34:48 Exp 7333 24 female R 1 1 2 immoralOther immoralSelf mismatch n n 1 0.7046 
31-May-2018_14:34:51 Exp 7333 24 female R 1 1 3 immoralSelf immoralSelf match m m 1 0.8548 
31-May-2018_14:34:53 Exp 7333 24 female R 1 1 4 immoralOther immoralOther match m m 1 0.6470 
31-May-2018_14:34:55 Exp 7333 24 female R 1 1 5 moralOther immoralSelf mismatch n n 1 0.7512 
31-May-2018_14:34:58 Exp 7333 24 female R 1 1 6 immoralSelf immoralSelf match m m 1 0.6832 
31-May-2018_14:35:00 Exp 7333 24 female R 1 1 7 moralSelf moralSelf match m m 1 0.5814 
31-May-2018_14:35:02 Exp 7333 24 female R 1 1 8 moralOther moralOther match m m 1 0.5715 
31-May-2018_14:35:04 Exp 7333 24 female R 1 1 9 immoralSelf immoralOther mismatch n n 1 0.7157 
31-May-2018_14:35:07 Exp 7333 24 female R 1 1 10 moralOther moralOther match m m 1 0.7278 
31-May-2018_14:35:09 Exp 7333 24 female R 1 1 11 immoralSelf immoralOther mismatch n n 1 0.7919 
31-May-2018_14:35:11 Exp 7333 24 female R 1 1 12 moralOther immoralOther mismatch n n 1 0.6681 
31-May-2018_14:35:14 Exp 7333 24 female R 1 1 13 moralSelf immoralSelf mismatch n n 1 0.7841 
31-May-2018_14:35:16 Exp 7333 24 female R 1 1 14 moralOther immoralOther mismatch n n 1 0.7343 
31-May-2018_14:35:18 Exp 7333 24 female R 1 1 15 moralSelf moralSelf match m m 1 0.5825 
31-May-2018_14:35:21 Exp 7333 24 female R 1 1 16 immoralSelf immoralOther mismatch n n 1 0.6287 
31-May-2018_14:35:23 Exp 7333 24 female R 1 1 17 immoralSelf immoralSelf match m m 1 0.6487 
31-May-2018_14:35:25 Exp 7333 24 female R 1 1 18 moralSelf moralOther mismatch n n 1 0.5929 
31-May-2018_14:35:27 Exp 7333 24 female R 1 1 19 immoralOther moralOther mismatch n n 1 0.6210 
31-May-2018_14:35:30 Exp 7333 24 female R 1 1 20 moralSelf moralSelf match m m 1 0.5792 
31-May-2018_14:35:32 Exp 7333 24 female R 1 1 21 immoralOther immoralOther match m m 1 0.7292 
31-May-2018_14:35:34 Exp 7333 24 female R 1 1 22 immoralOther immoralOther match m m 1 0.5614 
31-May-2018_14:35:36 Exp 7333 24 female R 1 1 23 moralSelf immoralOther mismatch n n 1 0.5874 
31-May-2018_14:35:39 Exp 7333 24 female R 1 1 24 moralOther moralOther match m m 1 0.6316 
31-May-2018_14:35:41 Exp 7333 24 female R 1 2 1 immoralOther immoralOther match m n 0 0.6197 
31-May-2018_14:35:43 Exp 7333 24 female R 1 2 2 moralOther moralOther match m m 1 0.7458 
31-May-2018_14:35:46 Exp 7333 24 female R 1 2 3 immoralOther immoralOther match m m 1 0.6000 
31-May-2018_14:35:48 Exp 7333 24 female R 1 2 4 moralSelf moralSelf match m m 1 0.6262 
31-May-2018_14:35:50 Exp 7333 24 female R 1 2 5 moralSelf moralSelf match m m 1 0.6643 
31-May-2018_14:35:52 Exp 7333 24 female R 1 2 6 immoralSelf moralSelf mismatch n n 1 0.6944 
31-May-2018_14:35:55 Exp 7333 24 female R 1 2 7 immoralSelf immoralOther mismatch n n 1 1.0706 
31-May-2018_14:35:57 Exp 7333 24 female R 1 2 8 immoralOther moralOther mismatch n n 1 0.6267 
31-May-2018_14:36:00 Exp 7333 24 female R 1 2 9 moralSelf immoralSelf mismatch n n 1 1.0408 
31-May-2018_14:36:02 Exp 7333 24 female R 1 2 10 immoralOther immoralOther match m m 1 0.5309 
31-May-2018_14:36:05 Exp 7333 24 female R 1 2 11 moralOther moralOther match m m 1 0.6911 
31-May-2018_14:36:07 Exp 7333 24 female R 1 2 12 moralOther immoralOther mismatch n n 1 0.8432 
31-May-2018_14:36:09 Exp 7333 24 female R 1 2 13 moralSelf moralOther mismatch n n 1 0.7174 
31-May-2018_14:36:12 Exp 7333 24 female R 1 2 14 immoralSelf immoralOther mismatch n n 1 0.7755 
31-May-2018_14:36:14 Exp 7333 24 female R 1 2 15 moralOther immoralSelf mismatch n n 1 0.7037 
31-May-2018_14:36:16 Exp 7333 24 female R 1 2 16 moralOther moralSelf mismatch n n 1 0.6218 
31-May-2018_14:36:18 Exp 7333 24 female R 1 2 17 immoralOther moralSelf mismatch n n 1 0.5400 
31-May-2018_14:36:21 Exp 7333 24 female R 1 2 18 immoralSelf immoralSelf match m m 1 0.8901 
31-May-2018_14:36:24 Exp 7333 24 female R 1 2 19 moralSelf moralOther mismatch n NA -1 1.0850 
31-May-2018_14:36:26 Exp 7333 24 female R 1 2 20 immoralSelf immoralSelf match m m 1 0.6123 
31-May-2018_14:36:28 Exp 7333 24 female R 1 2 21 moralOther moralOther match m m 1 0.6765 
31-May-2018_14:36:30 Exp 7333 24 female R 1 2 22 immoralSelf immoralSelf match m m 1 0.6166 
31-May-2018_14:36:33 Exp 7333 24 female R 1 2 23 moralSelf moralSelf match m m 1 0.6728 
31-May-2018_14:36:35 Exp 7333 24 female R 1 2 24 immoralOther moralSelf mismatch n n 1 0.6448 
