Date Prac Sub Age Sex Hand Block Bin Trial Shape Label Match CorrResp Resp ACC RT
02-Jun-2018_15:09:35 Exp 7338 20 female R 1 1 1 immoralSelf immoralSelf match n m 0 0.8551 
02-Jun-2018_15:09:37 Exp 7338 20 female R 1 1 2 immoralSelf moralOther mismatch m m 1 0.8370 
02-Jun-2018_15:09:39 Exp 7338 20 female R 1 1 3 moralOther moralOther match n n 1 0.4785 
02-Jun-2018_15:09:42 Exp 7338 20 female R 1 1 4 moralSelf immoralOther mismatch m m 1 0.7647 
02-Jun-2018_15:09:44 Exp 7338 20 female R 1 1 5 immoralOther moralSelf mismatch m m 1 0.7168 
02-Jun-2018_15:09:47 Exp 7338 20 female R 1 1 6 immoralOther moralSelf mismatch m NA -1 1.0841 
02-Jun-2018_15:09:49 Exp 7338 20 female R 1 1 7 moralOther immoralOther mismatch m n 0 0.3664 
02-Jun-2018_15:09:51 Exp 7338 20 female R 1 1 8 immoralOther immoralOther match n n 1 1.0304 
02-Jun-2018_15:09:54 Exp 7338 20 female R 1 1 9 immoralSelf moralSelf mismatch m n 0 1.0198 
02-Jun-2018_15:09:56 Exp 7338 20 female R 1 1 10 immoralOther immoralOther match n m 0 0.6368 
02-Jun-2018_15:09:59 Exp 7338 20 female R 1 1 11 moralOther immoralSelf mismatch m m 1 0.6304 
02-Jun-2018_15:10:01 Exp 7338 20 female R 1 1 12 moralOther moralOther match n n 1 0.5956 
02-Jun-2018_15:10:03 Exp 7338 20 female R 1 1 13 immoralSelf immoralSelf match n m 0 0.6602 
02-Jun-2018_15:10:06 Exp 7338 20 female R 1 1 14 moralSelf immoralOther mismatch m m 1 0.9021 
02-Jun-2018_15:10:08 Exp 7338 20 female R 1 1 15 immoralSelf moralSelf mismatch m NA -1 1.0841 
02-Jun-2018_15:10:11 Exp 7338 20 female R 1 1 16 immoralOther immoralOther match n n 1 0.9192 
02-Jun-2018_15:10:13 Exp 7338 20 female R 1 1 17 moralSelf immoralOther mismatch m m 1 0.7105 
02-Jun-2018_15:10:16 Exp 7338 20 female R 1 1 18 moralSelf moralSelf match n n 1 0.6573 
02-Jun-2018_15:10:18 Exp 7338 20 female R 1 1 19 moralOther immoralSelf mismatch m m 1 0.7073 
02-Jun-2018_15:10:21 Exp 7338 20 female R 1 1 20 moralSelf moralSelf match n NA -1 1.0841 
02-Jun-2018_15:10:23 Exp 7338 20 female R 1 1 21 moralSelf moralSelf match n n 1 0.6407 
02-Jun-2018_15:10:25 Exp 7338 20 female R 1 1 22 moralOther moralOther match n n 1 0.4742 
02-Jun-2018_15:10:27 Exp 7338 20 female R 1 1 23 immoralOther moralOther mismatch m m 1 0.7204 
02-Jun-2018_15:10:30 Exp 7338 20 female R 1 1 24 immoralSelf immoralSelf match n n 1 0.8796 
02-Jun-2018_15:10:32 Exp 7338 20 female R 1 2 1 immoralOther immoralOther match n m 0 0.8303 
02-Jun-2018_15:10:35 Exp 7338 20 female R 1 2 2 moralOther moralSelf mismatch m n 0 0.6915 
02-Jun-2018_15:10:37 Exp 7338 20 female R 1 2 3 immoralSelf immoralSelf match n m 0 0.7061 
02-Jun-2018_15:10:39 Exp 7338 20 female R 1 2 4 moralSelf moralSelf match n n 1 0.7411 
02-Jun-2018_15:10:42 Exp 7338 20 female R 1 2 5 moralOther immoralOther mismatch m m 1 0.7087 
02-Jun-2018_15:10:44 Exp 7338 20 female R 1 2 6 moralSelf moralSelf match n m 0 0.8397 
02-Jun-2018_15:10:47 Exp 7338 20 female R 1 2 7 immoralOther immoralSelf mismatch m n 0 0.8651 
02-Jun-2018_15:10:49 Exp 7338 20 female R 1 2 8 immoralSelf moralOther mismatch m NA -1 1.0841 
02-Jun-2018_15:10:52 Exp 7338 20 female R 1 2 9 moralOther immoralSelf mismatch m m 1 0.7095 
02-Jun-2018_15:10:54 Exp 7338 20 female R 1 2 10 immoralSelf immoralSelf match n n 1 1.0005 
02-Jun-2018_15:10:57 Exp 7338 20 female R 1 2 11 moralSelf moralSelf match n NA -1 1.0841 
02-Jun-2018_15:11:00 Exp 7338 20 female R 1 2 12 immoralSelf immoralSelf match n n 1 0.9837 
02-Jun-2018_15:11:02 Exp 7338 20 female R 1 2 13 moralSelf immoralOther mismatch m m 1 0.7881 
02-Jun-2018_15:11:04 Exp 7338 20 female R 1 2 14 moralOther moralOther match n n 1 0.5326 
02-Jun-2018_15:11:07 Exp 7338 20 female R 1 2 15 immoralOther moralSelf mismatch m m 1 0.9120 
02-Jun-2018_15:11:09 Exp 7338 20 female R 1 2 16 moralSelf immoralSelf mismatch m n 0 0.9229 
02-Jun-2018_15:11:12 Exp 7338 20 female R 1 2 17 immoralOther immoralOther match n NA -1 1.0841 
02-Jun-2018_15:11:14 Exp 7338 20 female R 1 2 18 moralOther moralOther match n n 1 0.5805 
02-Jun-2018_15:11:16 Exp 7338 20 female R 1 2 19 moralOther moralOther match n n 1 0.5290 
02-Jun-2018_15:11:19 Exp 7338 20 female R 1 2 20 immoralOther immoralSelf mismatch m n 0 0.8282 
02-Jun-2018_15:11:21 Exp 7338 20 female R 1 2 21 immoralSelf moralSelf mismatch m m 1 0.8895 
02-Jun-2018_15:11:24 Exp 7338 20 female R 1 2 22 immoralOther immoralOther match n n 1 0.9401 
02-Jun-2018_15:11:27 Exp 7338 20 female R 1 2 23 immoralSelf moralSelf mismatch m NA -1 1.0841 
02-Jun-2018_15:11:29 Exp 7338 20 female R 1 2 24 moralSelf immoralSelf mismatch m m 1 0.7820 
02-Jun-2018_15:11:31 Exp 7338 20 female R 1 3 1 moralOther moralOther match n n 1 0.4749 
02-Jun-2018_15:11:34 Exp 7338 20 female R 1 3 2 moralOther moralSelf mismatch m n 0 0.7130 
02-Jun-2018_15:11:36 Exp 7338 20 female R 1 3 3 moralSelf moralOther mismatch m n 0 0.5080 
02-Jun-2018_15:11:38 Exp 7338 20 female R 1 3 4 immoralSelf immoralSelf match n m 0 0.5429 
02-Jun-2018_15:11:40 Exp 7338 20 female R 1 3 5 moralOther immoralSelf mismatch m m 1 0.7105 
02-Jun-2018_15:11:43 Exp 7338 20 female R 1 3 6 immoralSelf moralOther mismatch m m 1 0.8414 
02-Jun-2018_15:11:45 Exp 7338 20 female R 1 3 7 moralSelf moralOther mismatch m m 1 0.8109 
02-Jun-2018_15:11:48 Exp 7338 20 female R 1 3 8 immoralOther immoralOther match n n 1 0.9639 
02-Jun-2018_15:11:50 Exp 7338 20 female R 1 3 9 immoralOther immoralOther match n n 1 0.5561 
02-Jun-2018_15:11:52 Exp 7338 20 female R 1 3 10 immoralOther moralSelf mismatch m m 1 0.7199 
02-Jun-2018_15:11:55 Exp 7338 20 female R 1 3 11 moralSelf moralSelf match n n 1 0.7590 
02-Jun-2018_15:11:57 Exp 7338 20 female R 1 3 12 moralSelf moralSelf match n n 1 0.6589 
02-Jun-2018_15:11:59 Exp 7338 20 female R 1 3 13 immoralOther moralOther mismatch m m 1 0.8048 
02-Jun-2018_15:12:02 Exp 7338 20 female R 1 3 14 immoralOther moralOther mismatch m m 1 0.7057 
02-Jun-2018_15:12:05 Exp 7338 20 female R 1 3 15 moralSelf moralSelf match n NA -1 1.0841 
02-Jun-2018_15:12:07 Exp 7338 20 female R 1 3 16 moralSelf moralOther mismatch m m 1 0.7111 
02-Jun-2018_15:12:09 Exp 7338 20 female R 1 3 17 immoralSelf immoralOther mismatch m m 1 0.8260 
02-Jun-2018_15:12:12 Exp 7338 20 female R 1 3 18 immoralOther immoralOther match n n 1 0.9993 
02-Jun-2018_15:12:15 Exp 7338 20 female R 1 3 19 immoralSelf immoralSelf match n n 1 1.0200 
02-Jun-2018_15:12:17 Exp 7338 20 female R 1 3 20 immoralSelf immoralOther mismatch m m 1 0.5811 
02-Jun-2018_15:12:19 Exp 7338 20 female R 1 3 21 moralOther moralSelf mismatch m m 1 0.6094 
02-Jun-2018_15:12:21 Exp 7338 20 female R 1 3 22 immoralSelf immoralSelf match n n 1 0.7544 
02-Jun-2018_15:12:24 Exp 7338 20 female R 1 3 23 moralOther moralOther match n n 1 0.5583 
02-Jun-2018_15:12:26 Exp 7338 20 female R 1 3 24 moralOther moralOther match n n 1 0.5301 
02-Jun-2018_15:12:59 Exp 7338 20 female R 1 4 1 moralSelf immoralOther mismatch m NA -1 1.0841 
02-Jun-2018_15:13:02 Exp 7338 20 female R 1 4 2 immoralOther immoralOther match n n 1 0.7292 
02-Jun-2018_15:13:04 Exp 7338 20 female R 1 4 3 moralSelf moralSelf match n n 1 0.6926 
02-Jun-2018_15:13:07 Exp 7338 20 female R 1 4 4 immoralOther immoralOther match n n 1 0.9393 
02-Jun-2018_15:13:09 Exp 7338 20 female R 1 4 5 immoralOther moralOther mismatch m m 1 0.6749 
02-Jun-2018_15:13:11 Exp 7338 20 female R 1 4 6 moralOther moralOther match n n 1 0.4811 
02-Jun-2018_15:13:13 Exp 7338 20 female R 1 4 7 immoralOther immoralSelf mismatch m n 0 0.7715 
02-Jun-2018_15:13:16 Exp 7338 20 female R 1 4 8 immoralSelf moralSelf mismatch m m 1 0.9476 
02-Jun-2018_15:13:19 Exp 7338 20 female R 1 4 9 immoralSelf immoralSelf match n n 1 1.0672 
02-Jun-2018_15:13:21 Exp 7338 20 female R 1 4 10 immoralSelf immoralSelf match n n 1 0.7333 
02-Jun-2018_15:13:23 Exp 7338 20 female R 1 4 11 moralSelf moralSelf match n n 1 0.5446 
02-Jun-2018_15:13:25 Exp 7338 20 female R 1 4 12 immoralSelf moralSelf mismatch m n 0 0.6243 
02-Jun-2018_15:13:28 Exp 7338 20 female R 1 4 13 immoralSelf immoralSelf match n n 1 0.7576 
02-Jun-2018_15:13:30 Exp 7338 20 female R 1 4 14 moralOther moralOther match n n 1 0.5453 
02-Jun-2018_15:13:33 Exp 7338 20 female R 1 4 15 moralSelf immoralSelf mismatch m m 1 1.0810 
02-Jun-2018_15:13:35 Exp 7338 20 female R 1 4 16 immoralSelf immoralOther mismatch m m 1 0.9955 
02-Jun-2018_15:13:38 Exp 7338 20 female R 1 4 17 moralOther immoralOther mismatch m m 1 0.6361 
02-Jun-2018_15:13:40 Exp 7338 20 female R 1 4 18 moralOther moralOther match n n 1 0.5895 
02-Jun-2018_15:13:42 Exp 7338 20 female R 1 4 19 moralSelf moralSelf match n n 1 0.5180 
02-Jun-2018_15:13:44 Exp 7338 20 female R 1 4 20 moralOther immoralOther mismatch m m 1 0.7492 
02-Jun-2018_15:13:47 Exp 7338 20 female R 1 4 21 immoralOther immoralOther match n m 0 0.7969 
02-Jun-2018_15:13:49 Exp 7338 20 female R 1 4 22 immoralOther moralSelf mismatch m m 1 0.8775 
02-Jun-2018_15:13:52 Exp 7338 20 female R 1 4 23 moralOther moralSelf mismatch m m 1 0.7636 
02-Jun-2018_15:13:54 Exp 7338 20 female R 1 4 24 moralSelf moralOther mismatch m m 1 0.8677 
02-Jun-2018_15:13:57 Exp 7338 20 female R 1 5 1 moralSelf immoralOther mismatch m m 1 0.7700 
02-Jun-2018_15:13:59 Exp 7338 20 female R 1 5 2 moralOther immoralOther mismatch m m 1 0.7780 
02-Jun-2018_15:14:01 Exp 7338 20 female R 1 5 3 moralOther moralOther match n n 1 0.6543 
02-Jun-2018_15:14:04 Exp 7338 20 female R 1 5 4 immoralSelf immoralOther mismatch m m 1 0.8121 
02-Jun-2018_15:14:06 Exp 7338 20 female R 1 5 5 moralOther moralOther match n n 1 0.6131 
02-Jun-2018_15:14:09 Exp 7338 20 female R 1 5 6 immoralSelf immoralSelf match n n 1 0.8862 
02-Jun-2018_15:14:11 Exp 7338 20 female R 1 5 7 immoralOther immoralOther match n n 1 1.0086 
02-Jun-2018_15:14:13 Exp 7338 20 female R 1 5 8 immoralOther immoralOther match n n 1 0.5815 
02-Jun-2018_15:14:16 Exp 7338 20 female R 1 5 9 immoralSelf immoralOther mismatch m m 1 0.7297 
02-Jun-2018_15:14:18 Exp 7338 20 female R 1 5 10 immoralSelf immoralSelf match n n 1 0.6931 
02-Jun-2018_15:14:21 Exp 7338 20 female R 1 5 11 moralSelf moralSelf match n n 1 1.0678 
02-Jun-2018_15:14:23 Exp 7338 20 female R 1 5 12 moralSelf moralOther mismatch m m 1 0.7460 
02-Jun-2018_15:14:25 Exp 7338 20 female R 1 5 13 moralOther moralOther match n n 1 0.6016 
02-Jun-2018_15:14:28 Exp 7338 20 female R 1 5 14 moralOther immoralOther mismatch m m 1 0.6866 
02-Jun-2018_15:14:30 Exp 7338 20 female R 1 5 15 immoralSelf moralSelf mismatch m NA -1 1.0841 
02-Jun-2018_15:14:33 Exp 7338 20 female R 1 5 16 immoralOther immoralSelf mismatch m m 1 0.8354 
02-Jun-2018_15:14:35 Exp 7338 20 female R 1 5 17 immoralSelf immoralSelf match n n 1 0.7168 
02-Jun-2018_15:14:38 Exp 7338 20 female R 1 5 18 moralOther immoralOther mismatch m m 1 0.6681 
02-Jun-2018_15:14:40 Exp 7338 20 female R 1 5 19 moralSelf moralOther mismatch m m 1 0.8983 
02-Jun-2018_15:14:43 Exp 7338 20 female R 1 5 20 immoralOther moralOther mismatch m m 1 0.8089 
02-Jun-2018_15:14:45 Exp 7338 20 female R 1 5 21 immoralOther immoralOther match n n 1 0.6985 
02-Jun-2018_15:14:48 Exp 7338 20 female R 1 5 22 moralSelf moralSelf match n n 1 1.0086 
02-Jun-2018_15:14:50 Exp 7338 20 female R 1 5 23 immoralOther immoralSelf mismatch m m 1 0.8135 
02-Jun-2018_15:14:53 Exp 7338 20 female R 1 5 24 moralSelf moralSelf match n n 1 0.9345 
02-Jun-2018_15:14:58 Exp 7338 20 female R 2 1 1 moralSelf moralSelf match n n 1 0.9346 
02-Jun-2018_15:15:01 Exp 7338 20 female R 2 1 2 immoralOther immoralOther match n n 1 0.8421 
02-Jun-2018_15:15:03 Exp 7338 20 female R 2 1 3 immoralSelf immoralSelf match n NA -1 1.0841 
02-Jun-2018_15:15:06 Exp 7338 20 female R 2 1 4 immoralSelf moralOther mismatch m m 1 0.6781 
02-Jun-2018_15:15:08 Exp 7338 20 female R 2 1 5 moralOther moralOther match n n 1 0.5802 
02-Jun-2018_15:15:10 Exp 7338 20 female R 2 1 6 moralOther moralSelf mismatch m m 1 0.7765 
02-Jun-2018_15:15:13 Exp 7338 20 female R 2 1 7 immoralSelf moralSelf mismatch m n 0 0.9809 
02-Jun-2018_15:15:15 Exp 7338 20 female R 2 1 8 immoralOther moralSelf mismatch m m 1 0.7612 
02-Jun-2018_15:15:18 Exp 7338 20 female R 2 1 9 immoralOther immoralOther match n n 1 0.7010 
02-Jun-2018_15:15:20 Exp 7338 20 female R 2 1 10 immoralSelf immoralSelf match n n 1 0.9238 
02-Jun-2018_15:15:23 Exp 7338 20 female R 2 1 11 immoralSelf moralOther mismatch m m 1 0.7550 
02-Jun-2018_15:15:25 Exp 7338 20 female R 2 1 12 immoralOther immoralSelf mismatch m m 1 0.9187 
02-Jun-2018_15:15:27 Exp 7338 20 female R 2 1 13 moralOther moralOther match n n 1 0.5339 
02-Jun-2018_15:15:30 Exp 7338 20 female R 2 1 14 immoralSelf immoralSelf match n n 1 0.7693 
02-Jun-2018_15:15:32 Exp 7338 20 female R 2 1 15 moralSelf immoralSelf mismatch m m 1 0.7534 
02-Jun-2018_15:15:34 Exp 7338 20 female R 2 1 16 moralOther moralOther match n n 1 0.5093 
02-Jun-2018_15:15:36 Exp 7338 20 female R 2 1 17 moralOther immoralSelf mismatch m m 1 0.6802 
02-Jun-2018_15:15:39 Exp 7338 20 female R 2 1 18 moralSelf immoralSelf mismatch m m 1 0.8986 
02-Jun-2018_15:15:41 Exp 7338 20 female R 2 1 19 moralOther immoralSelf mismatch m m 1 0.6894 
02-Jun-2018_15:15:44 Exp 7338 20 female R 2 1 20 immoralOther immoralOther match n n 1 0.5638 
02-Jun-2018_15:15:46 Exp 7338 20 female R 2 1 21 moralSelf moralSelf match n n 1 0.6119 
02-Jun-2018_15:15:48 Exp 7338 20 female R 2 1 22 moralSelf moralSelf match n n 1 0.5730 
02-Jun-2018_15:15:50 Exp 7338 20 female R 2 1 23 moralSelf immoralOther mismatch m m 1 0.6210 
02-Jun-2018_15:15:53 Exp 7338 20 female R 2 1 24 immoralOther immoralSelf mismatch m m 1 0.7942 
02-Jun-2018_15:15:55 Exp 7338 20 female R 2 2 1 moralOther moralOther match n n 1 0.5947 
02-Jun-2018_15:15:57 Exp 7338 20 female R 2 2 2 immoralSelf immoralSelf match n n 1 0.7474 
02-Jun-2018_15:16:00 Exp 7338 20 female R 2 2 3 immoralSelf immoralOther mismatch m m 1 0.6350 
02-Jun-2018_15:16:02 Exp 7338 20 female R 2 2 4 moralSelf moralSelf match n m 0 0.8446 
02-Jun-2018_15:16:04 Exp 7338 20 female R 2 2 5 immoralSelf immoralSelf match n n 1 0.7222 
02-Jun-2018_15:16:07 Exp 7338 20 female R 2 2 6 immoralSelf immoralSelf match n n 1 0.7774 
02-Jun-2018_15:16:09 Exp 7338 20 female R 2 2 7 immoralOther immoralOther match n n 1 0.8617 
02-Jun-2018_15:16:12 Exp 7338 20 female R 2 2 8 moralOther immoralSelf mismatch m m 1 0.7116 
02-Jun-2018_15:16:14 Exp 7338 20 female R 2 2 9 moralOther moralOther match n n 1 0.5146 
02-Jun-2018_15:16:16 Exp 7338 20 female R 2 2 10 immoralOther immoralSelf mismatch m n 0 0.7895 
02-Jun-2018_15:16:19 Exp 7338 20 female R 2 2 11 immoralSelf moralSelf mismatch m n 0 0.7660 
02-Jun-2018_15:16:21 Exp 7338 20 female R 2 2 12 moralSelf immoralSelf mismatch m n 0 0.7982 
02-Jun-2018_15:16:23 Exp 7338 20 female R 2 2 13 immoralOther immoralOther match n n 1 0.6270 
02-Jun-2018_15:16:26 Exp 7338 20 female R 2 2 14 moralOther moralSelf mismatch m m 1 0.7362 
02-Jun-2018_15:16:28 Exp 7338 20 female R 2 2 15 moralSelf moralOther mismatch m n 0 0.5956 
02-Jun-2018_15:16:30 Exp 7338 20 female R 2 2 16 immoralOther immoralOther match n n 1 0.6281 
02-Jun-2018_15:16:32 Exp 7338 20 female R 2 2 17 moralOther moralSelf mismatch m m 1 0.7294 
02-Jun-2018_15:16:35 Exp 7338 20 female R 2 2 18 moralSelf immoralOther mismatch m m 1 0.8289 
02-Jun-2018_15:16:37 Exp 7338 20 female R 2 2 19 immoralSelf immoralOther mismatch m m 1 0.8582 
02-Jun-2018_15:16:40 Exp 7338 20 female R 2 2 20 moralSelf moralSelf match n n 1 0.7961 
02-Jun-2018_15:16:42 Exp 7338 20 female R 2 2 21 immoralOther immoralSelf mismatch m m 1 0.7407 
02-Jun-2018_15:16:45 Exp 7338 20 female R 2 2 22 moralSelf moralSelf match n n 1 0.7563 
02-Jun-2018_15:16:47 Exp 7338 20 female R 2 2 23 moralOther moralOther match n n 1 0.5524 
02-Jun-2018_15:16:49 Exp 7338 20 female R 2 2 24 immoralOther immoralSelf mismatch m m 1 0.7159 
02-Jun-2018_15:16:51 Exp 7338 20 female R 2 3 1 immoralOther immoralOther match n n 1 0.6591 
02-Jun-2018_15:16:54 Exp 7338 20 female R 2 3 2 moralOther immoralOther mismatch m m 1 0.8051 
02-Jun-2018_15:16:56 Exp 7338 20 female R 2 3 3 moralSelf moralSelf match n n 1 0.8339 
02-Jun-2018_15:16:59 Exp 7338 20 female R 2 3 4 moralOther immoralSelf mismatch m m 1 0.8434 
02-Jun-2018_15:17:01 Exp 7338 20 female R 2 3 5 moralOther moralOther match n n 1 0.5329 
02-Jun-2018_15:17:04 Exp 7338 20 female R 2 3 6 immoralSelf immoralSelf match n n 1 0.8723 
02-Jun-2018_15:17:06 Exp 7338 20 female R 2 3 7 immoralOther immoralSelf mismatch m m 1 0.9024 
02-Jun-2018_15:17:08 Exp 7338 20 female R 2 3 8 immoralSelf immoralSelf match n n 1 0.7492 
02-Jun-2018_15:17:11 Exp 7338 20 female R 2 3 9 immoralSelf moralOther mismatch m m 1 0.8288 
02-Jun-2018_15:17:13 Exp 7338 20 female R 2 3 10 moralSelf moralSelf match n n 1 0.6662 
02-Jun-2018_15:17:15 Exp 7338 20 female R 2 3 11 immoralSelf moralOther mismatch m m 1 0.6521 
02-Jun-2018_15:17:18 Exp 7338 20 female R 2 3 12 immoralOther immoralOther match n n 1 0.8898 
02-Jun-2018_15:17:21 Exp 7338 20 female R 2 3 13 moralSelf immoralSelf mismatch m m 1 1.0282 
02-Jun-2018_15:17:23 Exp 7338 20 female R 2 3 14 immoralSelf immoralSelf match n n 1 0.7135 
02-Jun-2018_15:17:25 Exp 7338 20 female R 2 3 15 moralOther immoralSelf mismatch m m 1 0.6524 
02-Jun-2018_15:17:28 Exp 7338 20 female R 2 3 16 moralSelf immoralSelf mismatch m n 0 0.7141 
02-Jun-2018_15:17:30 Exp 7338 20 female R 2 3 17 immoralOther moralOther mismatch m m 1 0.8372 
02-Jun-2018_15:17:32 Exp 7338 20 female R 2 3 18 moralSelf moralSelf match n m 0 0.6946 
02-Jun-2018_15:17:35 Exp 7338 20 female R 2 3 19 moralSelf immoralOther mismatch m m 1 0.7973 
02-Jun-2018_15:17:37 Exp 7338 20 female R 2 3 20 moralOther moralOther match n n 1 0.5942 
02-Jun-2018_15:17:40 Exp 7338 20 female R 2 3 21 immoralSelf moralOther mismatch m m 1 0.9465 
02-Jun-2018_15:17:42 Exp 7338 20 female R 2 3 22 immoralOther immoralOther match n n 1 0.6902 
02-Jun-2018_15:17:45 Exp 7338 20 female R 2 3 23 immoralOther immoralSelf mismatch m m 1 0.9886 
02-Jun-2018_15:17:47 Exp 7338 20 female R 2 3 24 moralOther moralOther match n n 1 0.6053 
02-Jun-2018_15:18:07 Exp 7338 20 female R 2 4 1 moralOther moralOther match n n 1 0.4959 
02-Jun-2018_15:18:09 Exp 7338 20 female R 2 4 2 moralOther immoralSelf mismatch m m 1 0.6547 
02-Jun-2018_15:18:11 Exp 7338 20 female R 2 4 3 moralSelf moralSelf match n m 0 0.9563 
02-Jun-2018_15:18:14 Exp 7338 20 female R 2 4 4 immoralSelf immoralSelf match n n 1 0.7442 
02-Jun-2018_15:18:16 Exp 7338 20 female R 2 4 5 immoralSelf immoralSelf match n n 1 0.8078 
02-Jun-2018_15:18:19 Exp 7338 20 female R 2 4 6 immoralOther immoralSelf mismatch m m 1 0.7966 
02-Jun-2018_15:18:21 Exp 7338 20 female R 2 4 7 moralOther immoralSelf mismatch m m 1 0.8452 
02-Jun-2018_15:18:24 Exp 7338 20 female R 2 4 8 moralSelf immoralSelf mismatch m m 1 0.8590 
02-Jun-2018_15:18:26 Exp 7338 20 female R 2 4 9 immoralOther moralSelf mismatch m m 1 0.7489 
02-Jun-2018_15:18:28 Exp 7338 20 female R 2 4 10 moralOther moralOther match n n 1 0.5805 
02-Jun-2018_15:18:31 Exp 7338 20 female R 2 4 11 immoralSelf moralSelf mismatch m n 0 0.9609 
02-Jun-2018_15:18:33 Exp 7338 20 female R 2 4 12 moralSelf immoralSelf mismatch m n 0 0.7647 
02-Jun-2018_15:18:36 Exp 7338 20 female R 2 4 13 immoralOther immoralSelf mismatch m m 1 0.7648 
02-Jun-2018_15:18:38 Exp 7338 20 female R 2 4 14 moralSelf moralSelf match n m 0 0.8049 
02-Jun-2018_15:18:41 Exp 7338 20 female R 2 4 15 moralOther moralSelf mismatch m m 1 0.8897 
02-Jun-2018_15:18:43 Exp 7338 20 female R 2 4 16 moralSelf moralSelf match n n 1 0.9241 
02-Jun-2018_15:18:46 Exp 7338 20 female R 2 4 17 immoralOther immoralOther match n n 1 0.7552 
02-Jun-2018_15:18:48 Exp 7338 20 female R 2 4 18 moralSelf immoralOther mismatch m m 1 0.7432 
02-Jun-2018_15:18:50 Exp 7338 20 female R 2 4 19 immoralSelf immoralSelf match n n 1 0.7747 
02-Jun-2018_15:18:53 Exp 7338 20 female R 2 4 20 moralOther moralOther match n n 1 0.5791 
02-Jun-2018_15:18:55 Exp 7338 20 female R 2 4 21 immoralOther immoralOther match n n 1 0.5675 
02-Jun-2018_15:18:57 Exp 7338 20 female R 2 4 22 immoralSelf moralSelf mismatch m n 0 0.7355 
02-Jun-2018_15:19:00 Exp 7338 20 female R 2 4 23 immoralOther immoralOther match n n 1 0.7789 
02-Jun-2018_15:19:02 Exp 7338 20 female R 2 4 24 immoralSelf immoralOther mismatch m m 1 0.8713 
02-Jun-2018_15:19:04 Exp 7338 20 female R 2 5 1 immoralOther immoralOther match n n 1 0.8055 
02-Jun-2018_15:19:07 Exp 7338 20 female R 2 5 2 moralOther immoralSelf mismatch m m 1 0.7382 
02-Jun-2018_15:19:09 Exp 7338 20 female R 2 5 3 immoralSelf immoralSelf match n n 1 0.8899 
02-Jun-2018_15:19:12 Exp 7338 20 female R 2 5 4 immoralOther immoralSelf mismatch m m 1 0.7484 
02-Jun-2018_15:19:14 Exp 7338 20 female R 2 5 5 moralOther immoralOther mismatch m m 1 0.7639 
02-Jun-2018_15:19:16 Exp 7338 20 female R 2 5 6 moralOther moralOther match n n 1 0.6681 
02-Jun-2018_15:19:19 Exp 7338 20 female R 2 5 7 immoralOther immoralOther match n n 1 0.7063 
02-Jun-2018_15:19:21 Exp 7338 20 female R 2 5 8 moralSelf moralOther mismatch m m 1 0.8371 
02-Jun-2018_15:19:24 Exp 7338 20 female R 2 5 9 immoralSelf immoralOther mismatch m n 0 0.7987 
02-Jun-2018_15:19:26 Exp 7338 20 female R 2 5 10 immoralSelf moralSelf mismatch m n 0 0.9554 
02-Jun-2018_15:19:29 Exp 7338 20 female R 2 5 11 moralSelf moralOther mismatch m m 1 0.7593 
02-Jun-2018_15:19:31 Exp 7338 20 female R 2 5 12 moralSelf moralSelf match n n 1 0.7552 
02-Jun-2018_15:19:34 Exp 7338 20 female R 2 5 13 moralSelf immoralSelf mismatch m NA -1 1.0841 
02-Jun-2018_15:19:36 Exp 7338 20 female R 2 5 14 immoralOther moralSelf mismatch m m 1 0.7375 
02-Jun-2018_15:19:38 Exp 7338 20 female R 2 5 15 moralSelf moralSelf match n m 0 0.7089 
02-Jun-2018_15:19:41 Exp 7338 20 female R 2 5 16 immoralSelf immoralSelf match n n 1 0.7198 
02-Jun-2018_15:19:43 Exp 7338 20 female R 2 5 17 immoralOther immoralOther match n n 1 0.7110 
02-Jun-2018_15:19:46 Exp 7338 20 female R 2 5 18 immoralSelf immoralOther mismatch m m 1 1.0098 
02-Jun-2018_15:19:48 Exp 7338 20 female R 2 5 19 immoralOther moralOther mismatch m n 0 1.0189 
02-Jun-2018_15:19:51 Exp 7338 20 female R 2 5 20 moralOther moralOther match n n 1 0.5800 
02-Jun-2018_15:19:53 Exp 7338 20 female R 2 5 21 immoralSelf immoralSelf match n m 0 0.8003 
02-Jun-2018_15:19:55 Exp 7338 20 female R 2 5 22 moralOther moralOther match n n 1 0.6052 
02-Jun-2018_15:19:58 Exp 7338 20 female R 2 5 23 moralOther immoralOther mismatch m m 1 0.7698 
02-Jun-2018_15:20:00 Exp 7338 20 female R 2 5 24 moralSelf moralSelf match n n 1 0.6740 
02-Jun-2018_15:20:06 Exp 7338 20 female R 3 1 1 moralSelf moralSelf match n n 1 1.0210 
02-Jun-2018_15:20:08 Exp 7338 20 female R 3 1 2 moralOther immoralSelf mismatch m m 1 0.7142 
02-Jun-2018_15:20:10 Exp 7338 20 female R 3 1 3 immoralSelf immoralSelf match n n 1 0.7732 
02-Jun-2018_15:20:13 Exp 7338 20 female R 3 1 4 moralOther immoralOther mismatch m m 1 0.7173 
02-Jun-2018_15:20:16 Exp 7338 20 female R 3 1 5 immoralOther immoralSelf mismatch m m 1 1.0445 
02-Jun-2018_15:20:18 Exp 7338 20 female R 3 1 6 moralSelf immoralOther mismatch m m 1 0.8261 
02-Jun-2018_15:20:20 Exp 7338 20 female R 3 1 7 immoralOther immoralOther match n n 1 0.7194 
02-Jun-2018_15:20:23 Exp 7338 20 female R 3 1 8 moralOther moralOther match n n 1 0.6305 
02-Jun-2018_15:20:25 Exp 7338 20 female R 3 1 9 immoralOther moralSelf mismatch m m 1 0.8919 
02-Jun-2018_15:20:27 Exp 7338 20 female R 3 1 10 moralOther immoralSelf mismatch m m 1 0.6985 
02-Jun-2018_15:20:30 Exp 7338 20 female R 3 1 11 moralSelf moralSelf match n m 0 0.8252 
02-Jun-2018_15:20:32 Exp 7338 20 female R 3 1 12 immoralOther immoralOther match n n 1 0.6305 
02-Jun-2018_15:20:35 Exp 7338 20 female R 3 1 13 immoralSelf moralOther mismatch m m 1 0.7478 
02-Jun-2018_15:20:37 Exp 7338 20 female R 3 1 14 immoralSelf immoralSelf match n n 1 0.7234 
02-Jun-2018_15:20:40 Exp 7338 20 female R 3 1 15 moralSelf immoralSelf mismatch m m 1 1.0106 
02-Jun-2018_15:20:42 Exp 7338 20 female R 3 1 16 moralOther moralOther match n n 1 0.6356 
02-Jun-2018_15:20:44 Exp 7338 20 female R 3 1 17 moralOther moralOther match n n 1 0.5492 
02-Jun-2018_15:20:46 Exp 7338 20 female R 3 1 18 immoralSelf immoralSelf match n n 1 0.7968 
02-Jun-2018_15:20:49 Exp 7338 20 female R 3 1 19 immoralSelf moralOther mismatch m m 1 0.7413 
02-Jun-2018_15:20:51 Exp 7338 20 female R 3 1 20 moralSelf moralSelf match n n 1 0.8208 
02-Jun-2018_15:20:54 Exp 7338 20 female R 3 1 21 immoralSelf immoralOther mismatch m m 1 0.7382 
02-Jun-2018_15:20:56 Exp 7338 20 female R 3 1 22 immoralOther moralOther mismatch m m 1 0.9138 
02-Jun-2018_15:20:59 Exp 7338 20 female R 3 1 23 immoralOther immoralOther match n n 1 0.7727 
02-Jun-2018_15:21:01 Exp 7338 20 female R 3 1 24 moralSelf immoralSelf mismatch m m 1 0.9488 
02-Jun-2018_15:21:04 Exp 7338 20 female R 3 2 1 moralSelf moralOther mismatch m m 1 0.7725 
02-Jun-2018_15:21:06 Exp 7338 20 female R 3 2 2 moralOther moralOther match n n 1 0.6045 
02-Jun-2018_15:21:08 Exp 7338 20 female R 3 2 3 immoralOther immoralOther match n n 1 0.7053 
02-Jun-2018_15:21:11 Exp 7338 20 female R 3 2 4 moralOther immoralOther mismatch m m 1 0.7722 
02-Jun-2018_15:21:13 Exp 7338 20 female R 3 2 5 moralOther moralOther match n n 1 0.7004 
02-Jun-2018_15:21:15 Exp 7338 20 female R 3 2 6 immoralSelf immoralSelf match n n 1 0.8350 
02-Jun-2018_15:21:18 Exp 7338 20 female R 3 2 7 moralOther moralSelf mismatch m m 1 0.7405 
02-Jun-2018_15:21:20 Exp 7338 20 female R 3 2 8 immoralSelf immoralOther mismatch m m 1 0.6922 
02-Jun-2018_15:21:22 Exp 7338 20 female R 3 2 9 immoralSelf immoralSelf match n n 1 0.6269 
02-Jun-2018_15:21:25 Exp 7338 20 female R 3 2 10 moralSelf moralSelf match n n 1 0.6400 
02-Jun-2018_15:21:27 Exp 7338 20 female R 3 2 11 immoralSelf immoralSelf match n n 1 0.7776 
02-Jun-2018_15:21:29 Exp 7338 20 female R 3 2 12 moralOther moralOther match n n 1 0.5900 
02-Jun-2018_15:21:32 Exp 7338 20 female R 3 2 13 moralSelf moralOther mismatch m m 1 0.7825 
02-Jun-2018_15:21:34 Exp 7338 20 female R 3 2 14 immoralOther moralSelf mismatch m m 1 0.8187 
02-Jun-2018_15:21:37 Exp 7338 20 female R 3 2 15 immoralOther moralSelf mismatch m m 1 0.8758 
02-Jun-2018_15:21:39 Exp 7338 20 female R 3 2 16 immoralOther moralOther mismatch m m 1 0.8180 
02-Jun-2018_15:21:41 Exp 7338 20 female R 3 2 17 moralSelf moralSelf match n n 1 0.7390 
02-Jun-2018_15:21:44 Exp 7338 20 female R 3 2 18 moralSelf moralOther mismatch m m 1 0.6348 
02-Jun-2018_15:21:46 Exp 7338 20 female R 3 2 19 immoralSelf moralSelf mismatch m m 1 0.8522 
02-Jun-2018_15:21:49 Exp 7338 20 female R 3 2 20 immoralSelf moralSelf mismatch m m 1 0.7539 
02-Jun-2018_15:21:51 Exp 7338 20 female R 3 2 21 moralSelf moralSelf match n n 1 0.7018 
02-Jun-2018_15:21:53 Exp 7338 20 female R 3 2 22 moralOther immoralOther mismatch m m 1 0.7645 
02-Jun-2018_15:21:56 Exp 7338 20 female R 3 2 23 immoralOther immoralOther match n n 1 0.6766 
02-Jun-2018_15:21:58 Exp 7338 20 female R 3 2 24 immoralOther immoralOther match n n 1 0.5868 
02-Jun-2018_15:22:00 Exp 7338 20 female R 3 3 1 immoralSelf immoralSelf match n n 1 0.8113 
02-Jun-2018_15:22:03 Exp 7338 20 female R 3 3 2 immoralOther immoralOther match n n 1 0.7724 
02-Jun-2018_15:22:05 Exp 7338 20 female R 3 3 3 immoralOther immoralOther match n n 1 0.6444 
02-Jun-2018_15:22:07 Exp 7338 20 female R 3 3 4 immoralOther immoralSelf mismatch m m 1 0.7782 
02-Jun-2018_15:22:10 Exp 7338 20 female R 3 3 5 moralOther moralOther match n n 1 0.6145 
02-Jun-2018_15:22:12 Exp 7338 20 female R 3 3 6 immoralOther moralOther mismatch m m 1 0.9435 
02-Jun-2018_15:22:15 Exp 7338 20 female R 3 3 7 immoralSelf moralSelf mismatch m m 1 1.0711 
02-Jun-2018_15:22:17 Exp 7338 20 female R 3 3 8 moralOther immoralSelf mismatch m m 1 0.7174 
02-Jun-2018_15:22:20 Exp 7338 20 female R 3 3 9 moralOther moralSelf mismatch m n 0 0.7486 
02-Jun-2018_15:22:22 Exp 7338 20 female R 3 3 10 immoralSelf moralOther mismatch m m 1 0.8922 
02-Jun-2018_15:22:25 Exp 7338 20 female R 3 3 11 moralSelf immoralOther mismatch m m 1 0.9948 
02-Jun-2018_15:22:27 Exp 7338 20 female R 3 3 12 immoralSelf immoralSelf match n n 1 0.8434 
02-Jun-2018_15:22:30 Exp 7338 20 female R 3 3 13 immoralOther moralOther mismatch m m 1 0.7010 
02-Jun-2018_15:22:32 Exp 7338 20 female R 3 3 14 moralSelf moralSelf match n n 1 0.7876 
02-Jun-2018_15:22:34 Exp 7338 20 female R 3 3 15 moralSelf moralSelf match n n 1 0.6763 
02-Jun-2018_15:22:37 Exp 7338 20 female R 3 3 16 moralOther moralOther match n n 1 0.8264 
02-Jun-2018_15:22:39 Exp 7338 20 female R 3 3 17 moralSelf immoralOther mismatch m m 1 0.9596 
02-Jun-2018_15:22:42 Exp 7338 20 female R 3 3 18 moralOther immoralSelf mismatch m m 1 0.8115 
02-Jun-2018_15:22:44 Exp 7338 20 female R 3 3 19 immoralSelf immoralSelf match n n 1 0.7646 
02-Jun-2018_15:22:47 Exp 7338 20 female R 3 3 20 moralSelf moralSelf match n n 1 1.0287 
02-Jun-2018_15:22:49 Exp 7338 20 female R 3 3 21 immoralSelf moralOther mismatch m m 1 0.7860 
02-Jun-2018_15:22:51 Exp 7338 20 female R 3 3 22 moralOther moralOther match n n 1 0.5465 
02-Jun-2018_15:22:54 Exp 7338 20 female R 3 3 23 immoralOther immoralOther match n n 1 0.6660 
02-Jun-2018_15:22:56 Exp 7338 20 female R 3 3 24 moralSelf moralOther mismatch m m 1 0.8041 
02-Jun-2018_15:23:17 Exp 7338 20 female R 3 4 1 immoralSelf immoralSelf match n n 1 0.7169 
02-Jun-2018_15:23:20 Exp 7338 20 female R 3 4 2 immoralOther immoralSelf mismatch m m 1 0.8600 
02-Jun-2018_15:23:22 Exp 7338 20 female R 3 4 3 moralSelf moralSelf match n n 1 0.8380 
02-Jun-2018_15:23:24 Exp 7338 20 female R 3 4 4 immoralSelf immoralSelf match n n 1 0.7596 
02-Jun-2018_15:23:27 Exp 7338 20 female R 3 4 5 moralSelf moralSelf match n n 1 0.6674 
02-Jun-2018_15:23:29 Exp 7338 20 female R 3 4 6 immoralOther moralSelf mismatch m m 1 0.6854 
02-Jun-2018_15:23:31 Exp 7338 20 female R 3 4 7 immoralSelf immoralSelf match n n 1 0.7038 
02-Jun-2018_15:23:34 Exp 7338 20 female R 3 4 8 moralSelf immoralOther mismatch m m 1 0.6428 
02-Jun-2018_15:23:36 Exp 7338 20 female R 3 4 9 moralOther immoralOther mismatch m m 1 0.7003 
02-Jun-2018_15:23:38 Exp 7338 20 female R 3 4 10 immoralSelf moralOther mismatch m m 1 0.7469 
02-Jun-2018_15:23:41 Exp 7338 20 female R 3 4 11 moralOther moralOther match n n 1 0.6026 
02-Jun-2018_15:23:43 Exp 7338 20 female R 3 4 12 moralOther moralOther match n n 1 0.5993 
02-Jun-2018_15:23:45 Exp 7338 20 female R 3 4 13 moralOther immoralOther mismatch m m 1 0.5881 
02-Jun-2018_15:23:47 Exp 7338 20 female R 3 4 14 immoralSelf immoralOther mismatch m m 1 0.7166 
02-Jun-2018_15:23:50 Exp 7338 20 female R 3 4 15 moralSelf moralSelf match n n 1 0.6998 
02-Jun-2018_15:23:52 Exp 7338 20 female R 3 4 16 moralSelf immoralOther mismatch m m 1 0.9865 
02-Jun-2018_15:23:55 Exp 7338 20 female R 3 4 17 immoralOther immoralOther match n n 1 0.5710 
02-Jun-2018_15:23:57 Exp 7338 20 female R 3 4 18 immoralSelf moralOther mismatch m m 1 0.6512 
02-Jun-2018_15:23:59 Exp 7338 20 female R 3 4 19 moralOther moralOther match n n 1 0.6570 
02-Jun-2018_15:24:01 Exp 7338 20 female R 3 4 20 moralOther immoralOther mismatch m m 1 0.6589 
02-Jun-2018_15:24:04 Exp 7338 20 female R 3 4 21 immoralOther moralOther mismatch m n 0 0.7408 
02-Jun-2018_15:24:06 Exp 7338 20 female R 3 4 22 immoralOther immoralOther match n m 0 0.5724 
02-Jun-2018_15:24:08 Exp 7338 20 female R 3 4 23 immoralOther immoralOther match n n 1 0.5966 
02-Jun-2018_15:24:11 Exp 7338 20 female R 3 4 24 moralSelf moralOther mismatch m m 1 0.7171 
02-Jun-2018_15:24:13 Exp 7338 20 female R 3 5 1 moralSelf moralSelf match n n 1 0.8123 
02-Jun-2018_15:24:15 Exp 7338 20 female R 3 5 2 immoralSelf immoralSelf match n n 1 0.5653 
02-Jun-2018_15:24:18 Exp 7338 20 female R 3 5 3 immoralOther immoralOther match n n 1 0.8854 
02-Jun-2018_15:24:20 Exp 7338 20 female R 3 5 4 immoralSelf moralSelf mismatch m m 1 0.8478 
02-Jun-2018_15:24:22 Exp 7338 20 female R 3 5 5 moralSelf moralSelf match n n 1 0.6695 
02-Jun-2018_15:24:25 Exp 7338 20 female R 3 5 6 moralOther immoralSelf mismatch m m 1 0.6918 
02-Jun-2018_15:24:27 Exp 7338 20 female R 3 5 7 moralOther immoralOther mismatch m m 1 0.7225 
02-Jun-2018_15:24:30 Exp 7338 20 female R 3 5 8 immoralOther moralOther mismatch m m 1 0.7697 
02-Jun-2018_15:24:32 Exp 7338 20 female R 3 5 9 moralOther moralOther match n n 1 0.7138 
02-Jun-2018_15:24:34 Exp 7338 20 female R 3 5 10 immoralSelf moralOther mismatch m m 1 0.7166 
02-Jun-2018_15:24:37 Exp 7338 20 female R 3 5 11 immoralOther immoralOther match n n 1 0.6758 
02-Jun-2018_15:24:39 Exp 7338 20 female R 3 5 12 moralSelf immoralOther mismatch m m 1 0.6980 
02-Jun-2018_15:24:41 Exp 7338 20 female R 3 5 13 immoralOther immoralOther match n n 1 0.6087 
02-Jun-2018_15:24:43 Exp 7338 20 female R 3 5 14 moralOther moralSelf mismatch m m 1 0.6535 
02-Jun-2018_15:24:46 Exp 7338 20 female R 3 5 15 immoralSelf immoralSelf match n n 1 0.7711 
02-Jun-2018_15:24:48 Exp 7338 20 female R 3 5 16 moralSelf moralOther mismatch m m 1 0.7072 
02-Jun-2018_15:24:51 Exp 7338 20 female R 3 5 17 immoralSelf immoralSelf match n n 1 0.7102 
02-Jun-2018_15:24:53 Exp 7338 20 female R 3 5 18 moralOther moralOther match n n 1 0.5932 
02-Jun-2018_15:24:55 Exp 7338 20 female R 3 5 19 immoralOther moralOther mismatch m m 1 0.6898 
02-Jun-2018_15:24:57 Exp 7338 20 female R 3 5 20 moralSelf moralSelf match n n 1 0.6121 
02-Jun-2018_15:25:00 Exp 7338 20 female R 3 5 21 immoralSelf moralOther mismatch m m 1 0.6771 
02-Jun-2018_15:25:02 Exp 7338 20 female R 3 5 22 moralOther moralOther match n n 1 0.6274 
02-Jun-2018_15:25:04 Exp 7338 20 female R 3 5 23 immoralOther moralOther mismatch m m 1 0.6886 
02-Jun-2018_15:25:07 Exp 7338 20 female R 3 5 24 moralSelf immoralOther mismatch m m 1 1.0430 
Date Prac Sub Age Sex Hand Block Bin Trial Shape Label Match CorrResp Resp ACC RT
02-Jun-2018_15:30:00 Exp 7338 20 female R 1 1 1 moralSelf moralSelf match n n 1 0.6167 
02-Jun-2018_15:30:02 Exp 7338 20 female R 1 1 2 immoralOther moralOther mismatch m m 1 0.7618 
02-Jun-2018_15:30:05 Exp 7338 20 female R 1 1 3 immoralSelf moralSelf mismatch m m 1 0.9060 
02-Jun-2018_15:30:07 Exp 7338 20 female R 1 1 4 moralOther moralOther match n n 1 0.5168 
02-Jun-2018_15:30:09 Exp 7338 20 female R 1 1 5 moralSelf moralSelf match n n 1 0.6359 
02-Jun-2018_15:30:12 Exp 7338 20 female R 1 1 6 immoralSelf immoralSelf match n n 1 0.6055 
02-Jun-2018_15:30:14 Exp 7338 20 female R 1 1 7 moralSelf moralOther mismatch m m 1 0.8022 
02-Jun-2018_15:30:16 Exp 7338 20 female R 1 1 8 immoralSelf moralSelf mismatch m m 1 0.8470 
02-Jun-2018_15:30:19 Exp 7338 20 female R 1 1 9 immoralOther moralOther mismatch m m 1 0.7407 
02-Jun-2018_15:30:21 Exp 7338 20 female R 1 1 10 immoralOther immoralOther match n n 1 0.6604 
02-Jun-2018_15:30:23 Exp 7338 20 female R 1 1 11 immoralSelf immoralSelf match n n 1 0.6223 
02-Jun-2018_15:30:26 Exp 7338 20 female R 1 1 12 immoralOther immoralOther match n n 1 0.6996 
02-Jun-2018_15:30:28 Exp 7338 20 female R 1 1 13 immoralOther immoralOther match n n 1 0.8264 
02-Jun-2018_15:30:30 Exp 7338 20 female R 1 1 14 moralOther moralOther match n n 1 0.5596 
02-Jun-2018_15:30:33 Exp 7338 20 female R 1 1 15 moralOther immoralSelf mismatch m m 1 0.6835 
02-Jun-2018_15:30:35 Exp 7338 20 female R 1 1 16 moralSelf moralSelf match n n 1 0.5500 
02-Jun-2018_15:30:37 Exp 7338 20 female R 1 1 17 moralOther immoralOther mismatch m m 1 0.6817 
02-Jun-2018_15:30:39 Exp 7338 20 female R 1 1 18 moralOther moralOther match n n 1 0.6442 
02-Jun-2018_15:30:42 Exp 7338 20 female R 1 1 19 immoralSelf immoralSelf match n n 1 0.6259 
02-Jun-2018_15:30:44 Exp 7338 20 female R 1 1 20 moralOther immoralSelf mismatch m m 1 0.6232 
02-Jun-2018_15:30:46 Exp 7338 20 female R 1 1 21 moralSelf immoralOther mismatch m m 1 0.7324 
02-Jun-2018_15:30:49 Exp 7338 20 female R 1 1 22 immoralOther immoralSelf mismatch m m 1 0.7278 
02-Jun-2018_15:30:51 Exp 7338 20 female R 1 1 23 immoralSelf moralOther mismatch m m 1 0.8752 
02-Jun-2018_15:30:54 Exp 7338 20 female R 1 1 24 moralSelf immoralOther mismatch m m 1 0.7295 
02-Jun-2018_15:30:56 Exp 7338 20 female R 1 2 1 moralOther moralSelf mismatch m m 1 0.6527 
02-Jun-2018_15:30:59 Exp 7338 20 female R 1 2 2 immoralSelf moralSelf mismatch m NA -1 1.0841 
02-Jun-2018_15:31:01 Exp 7338 20 female R 1 2 3 immoralSelf immoralSelf match n n 1 0.6530 
02-Jun-2018_15:31:03 Exp 7338 20 female R 1 2 4 moralOther immoralOther mismatch m m 1 0.9148 
02-Jun-2018_15:31:06 Exp 7338 20 female R 1 2 5 moralOther moralOther match n n 1 0.8258 
02-Jun-2018_15:31:08 Exp 7338 20 female R 1 2 6 moralOther moralOther match n n 1 0.5270 
02-Jun-2018_15:31:10 Exp 7338 20 female R 1 2 7 immoralOther immoralOther match n n 1 0.6105 
02-Jun-2018_15:31:13 Exp 7338 20 female R 1 2 8 immoralOther moralSelf mismatch m m 1 0.6595 
02-Jun-2018_15:31:15 Exp 7338 20 female R 1 2 9 moralSelf immoralOther mismatch m m 1 0.6216 
02-Jun-2018_15:31:17 Exp 7338 20 female R 1 2 10 immoralSelf immoralOther mismatch m m 1 0.8748 
02-Jun-2018_15:31:20 Exp 7338 20 female R 1 2 11 moralOther moralOther match n n 1 0.6570 
02-Jun-2018_15:31:22 Exp 7338 20 female R 1 2 12 moralSelf moralSelf match n n 1 1.0590 
02-Jun-2018_15:31:25 Exp 7338 20 female R 1 2 13 immoralSelf moralSelf mismatch m m 1 0.7809 
02-Jun-2018_15:31:27 Exp 7338 20 female R 1 2 14 moralSelf moralOther mismatch m m 1 0.7053 
02-Jun-2018_15:31:30 Exp 7338 20 female R 1 2 15 immoralOther immoralOther match n n 1 0.9562 
02-Jun-2018_15:31:32 Exp 7338 20 female R 1 2 16 moralSelf immoralSelf mismatch m m 1 0.9121 
02-Jun-2018_15:31:34 Exp 7338 20 female R 1 2 17 immoralSelf immoralSelf match n n 1 0.6669 
02-Jun-2018_15:31:37 Exp 7338 20 female R 1 2 18 immoralSelf immoralSelf match n n 1 0.5969 
02-Jun-2018_15:31:39 Exp 7338 20 female R 1 2 19 moralOther immoralOther mismatch m m 1 0.7057 
02-Jun-2018_15:31:41 Exp 7338 20 female R 1 2 20 immoralOther immoralOther match n n 1 0.6767 
02-Jun-2018_15:31:44 Exp 7338 20 female R 1 2 21 moralSelf moralSelf match n n 1 0.9228 
02-Jun-2018_15:31:46 Exp 7338 20 female R 1 2 22 immoralOther moralOther mismatch m m 1 0.7061 
02-Jun-2018_15:31:49 Exp 7338 20 female R 1 2 23 moralSelf moralSelf match n n 1 0.6690 
02-Jun-2018_15:31:51 Exp 7338 20 female R 1 2 24 immoralOther moralSelf mismatch m m 1 0.7551 
Date Prac Sub Age Sex Hand Block Bin Trial Shape Label Match CorrResp Resp ACC RT
02-Jun-2018_15:36:19 Exp 7338 20 female R 1 1 1 immoralSelf immoralSelf match n n 1 0.6726 
02-Jun-2018_15:36:21 Exp 7338 20 female R 1 1 2 immoralOther immoralOther match n n 1 0.6549 
02-Jun-2018_15:36:23 Exp 7338 20 female R 1 1 3 immoralOther immoralSelf mismatch m m 1 0.7328 
02-Jun-2018_15:36:26 Exp 7338 20 female R 1 1 4 immoralSelf immoralOther mismatch m m 1 0.8401 
02-Jun-2018_15:36:28 Exp 7338 20 female R 1 1 5 moralOther immoralOther mismatch m m 1 0.6416 
02-Jun-2018_15:36:30 Exp 7338 20 female R 1 1 6 moralOther moralOther match n n 1 0.4832 
02-Jun-2018_15:36:33 Exp 7338 20 female R 1 1 7 moralOther immoralOther mismatch m m 1 0.5655 
02-Jun-2018_15:36:35 Exp 7338 20 female R 1 1 8 moralSelf moralOther mismatch m m 1 0.6537 
02-Jun-2018_15:36:37 Exp 7338 20 female R 1 1 9 moralSelf moralSelf match n n 1 0.4433 
02-Jun-2018_15:36:39 Exp 7338 20 female R 1 1 10 moralSelf immoralOther mismatch m m 1 0.6369 
02-Jun-2018_15:36:42 Exp 7338 20 female R 1 1 11 immoralSelf moralOther mismatch m m 1 0.8863 
02-Jun-2018_15:36:44 Exp 7338 20 female R 1 1 12 immoralOther immoralOther match n n 1 0.7207 
02-Jun-2018_15:36:46 Exp 7338 20 female R 1 1 13 immoralOther immoralOther match n n 1 0.5200 
02-Jun-2018_15:36:48 Exp 7338 20 female R 1 1 14 moralOther immoralSelf mismatch m m 1 0.6392 
02-Jun-2018_15:36:51 Exp 7338 20 female R 1 1 15 moralOther moralOther match n n 1 0.4645 
02-Jun-2018_15:36:53 Exp 7338 20 female R 1 1 16 moralSelf immoralSelf mismatch m m 1 0.8105 
02-Jun-2018_15:36:55 Exp 7338 20 female R 1 1 17 moralSelf moralSelf match n n 1 0.8356 
02-Jun-2018_15:36:58 Exp 7338 20 female R 1 1 18 moralOther moralOther match n n 1 0.5651 
02-Jun-2018_15:37:00 Exp 7338 20 female R 1 1 19 immoralSelf moralSelf mismatch m m 1 0.8292 
02-Jun-2018_15:37:02 Exp 7338 20 female R 1 1 20 immoralOther moralSelf mismatch m m 1 0.7304 
02-Jun-2018_15:37:05 Exp 7338 20 female R 1 1 21 immoralOther immoralSelf mismatch m m 1 0.9178 
02-Jun-2018_15:37:07 Exp 7338 20 female R 1 1 22 immoralSelf immoralSelf match n n 1 0.7330 
02-Jun-2018_15:37:10 Exp 7338 20 female R 1 1 23 immoralSelf immoralSelf match n m 0 0.6563 
02-Jun-2018_15:37:12 Exp 7338 20 female R 1 1 24 moralSelf moralSelf match n n 1 0.8743 
02-Jun-2018_15:37:14 Exp 7338 20 female R 1 2 1 immoralSelf immoralSelf match n n 1 0.6085 
02-Jun-2018_15:37:17 Exp 7338 20 female R 1 2 2 immoralOther immoralOther match n n 1 0.6214 
02-Jun-2018_15:37:19 Exp 7338 20 female R 1 2 3 moralOther moralOther match n n 1 0.4265 
02-Jun-2018_15:37:21 Exp 7338 20 female R 1 2 4 moralOther immoralOther mismatch m m 1 0.6398 
02-Jun-2018_15:37:23 Exp 7338 20 female R 1 2 5 moralSelf moralOther mismatch m m 1 0.7294 
02-Jun-2018_15:37:26 Exp 7338 20 female R 1 2 6 immoralOther moralOther mismatch m m 1 1.0687 
02-Jun-2018_15:37:28 Exp 7338 20 female R 1 2 7 moralSelf moralSelf match n n 1 0.6910 
02-Jun-2018_15:37:31 Exp 7338 20 female R 1 2 8 immoralSelf immoralSelf match n n 1 0.5697 
02-Jun-2018_15:37:33 Exp 7338 20 female R 1 2 9 moralSelf moralSelf match n n 1 0.6337 
02-Jun-2018_15:37:36 Exp 7338 20 female R 1 2 10 moralSelf immoralSelf mismatch m m 1 1.0272 
02-Jun-2018_15:37:38 Exp 7338 20 female R 1 2 11 immoralSelf moralSelf mismatch m m 1 0.8327 
02-Jun-2018_15:37:40 Exp 7338 20 female R 1 2 12 immoralOther immoralSelf mismatch m m 1 0.7620 
02-Jun-2018_15:37:43 Exp 7338 20 female R 1 2 13 immoralSelf moralSelf mismatch m m 1 0.8021 
02-Jun-2018_15:37:45 Exp 7338 20 female R 1 2 14 immoralSelf immoralSelf match n n 1 0.6549 
02-Jun-2018_15:37:47 Exp 7338 20 female R 1 2 15 immoralOther immoralOther match n n 1 0.6847 
02-Jun-2018_15:37:50 Exp 7338 20 female R 1 2 16 moralOther immoralSelf mismatch m m 1 0.6631 
02-Jun-2018_15:37:52 Exp 7338 20 female R 1 2 17 moralOther immoralSelf mismatch m m 1 0.7131 
02-Jun-2018_15:37:54 Exp 7338 20 female R 1 2 18 moralSelf moralSelf match n n 1 0.7079 
02-Jun-2018_15:37:57 Exp 7338 20 female R 1 2 19 immoralSelf immoralOther mismatch m m 1 0.6949 
02-Jun-2018_15:37:59 Exp 7338 20 female R 1 2 20 immoralOther moralOther mismatch m m 1 0.7655 
02-Jun-2018_15:38:01 Exp 7338 20 female R 1 2 21 moralOther moralOther match n n 1 0.5176 
02-Jun-2018_15:38:04 Exp 7338 20 female R 1 2 22 moralSelf moralOther mismatch m n 0 0.6609 
02-Jun-2018_15:38:06 Exp 7338 20 female R 1 2 23 immoralOther immoralOther match n n 1 0.6707 
02-Jun-2018_15:38:08 Exp 7338 20 female R 1 2 24 moralOther moralOther match n n 1 0.5570 
Date Prac Sub Age Sex Hand Block Bin Trial Shape Label Match CorrResp Resp ACC RT
02-Jun-2018_15:43:05 Exp 7338 20 female R 1 1 1 moralOther moralSelf mismatch m m 1 0.7989 
02-Jun-2018_15:43:08 Exp 7338 20 female R 1 1 2 immoralSelf immoralSelf match n n 1 0.6278 
02-Jun-2018_15:43:10 Exp 7338 20 female R 1 1 3 moralSelf immoralOther mismatch m m 1 0.7450 
02-Jun-2018_15:43:12 Exp 7338 20 female R 1 1 4 immoralOther moralSelf mismatch m m 1 0.6566 
02-Jun-2018_15:43:15 Exp 7338 20 female R 1 1 5 moralOther immoralSelf mismatch m m 1 0.6026 
02-Jun-2018_15:43:17 Exp 7338 20 female R 1 1 6 immoralOther immoralOther match n n 1 0.5995 
02-Jun-2018_15:43:19 Exp 7338 20 female R 1 1 7 immoralSelf immoralSelf match n n 1 0.6042 
02-Jun-2018_15:43:21 Exp 7338 20 female R 1 1 8 moralOther moralOther match n n 1 0.6010 
02-Jun-2018_15:43:24 Exp 7338 20 female R 1 1 9 moralSelf immoralOther mismatch m n 0 0.7339 
02-Jun-2018_15:43:26 Exp 7338 20 female R 1 1 10 moralSelf moralSelf match n n 1 0.8492 
02-Jun-2018_15:43:29 Exp 7338 20 female R 1 1 11 immoralOther immoralOther match n n 1 0.7749 
02-Jun-2018_15:43:31 Exp 7338 20 female R 1 1 12 immoralOther immoralSelf mismatch m m 1 0.6672 
02-Jun-2018_15:43:33 Exp 7338 20 female R 1 1 13 moralOther moralOther match n n 1 0.5892 
02-Jun-2018_15:43:35 Exp 7338 20 female R 1 1 14 moralOther moralOther match n n 1 0.5738 
02-Jun-2018_15:43:38 Exp 7338 20 female R 1 1 15 moralSelf moralSelf match n n 1 0.9221 
02-Jun-2018_15:43:40 Exp 7338 20 female R 1 1 16 immoralSelf moralOther mismatch m m 1 0.7853 
02-Jun-2018_15:43:43 Exp 7338 20 female R 1 1 17 immoralSelf immoralOther mismatch m m 1 0.6819 
02-Jun-2018_15:43:45 Exp 7338 20 female R 1 1 18 immoralOther immoralOther match n n 1 0.7723 
02-Jun-2018_15:43:47 Exp 7338 20 female R 1 1 19 moralSelf immoralOther mismatch m m 1 0.6444 
02-Jun-2018_15:43:49 Exp 7338 20 female R 1 1 20 moralSelf moralSelf match n n 1 0.5062 
02-Jun-2018_15:43:52 Exp 7338 20 female R 1 1 21 moralOther moralSelf mismatch m m 1 0.6050 
02-Jun-2018_15:43:54 Exp 7338 20 female R 1 1 22 immoralOther moralSelf mismatch m m 1 0.9057 
02-Jun-2018_15:43:57 Exp 7338 20 female R 1 1 23 immoralSelf immoralSelf match n n 1 0.7007 
02-Jun-2018_15:43:59 Exp 7338 20 female R 1 1 24 immoralSelf immoralOther mismatch m m 1 0.6593 
02-Jun-2018_15:44:01 Exp 7338 20 female R 1 2 1 moralSelf moralOther mismatch m m 1 0.7014 
02-Jun-2018_15:44:03 Exp 7338 20 female R 1 2 2 moralOther immoralSelf mismatch m m 1 0.6200 
02-Jun-2018_15:44:06 Exp 7338 20 female R 1 2 3 immoralSelf immoralSelf match n n 1 0.7251 
02-Jun-2018_15:44:08 Exp 7338 20 female R 1 2 4 moralSelf moralSelf match n n 1 0.7162 
02-Jun-2018_15:44:10 Exp 7338 20 female R 1 2 5 immoralSelf moralOther mismatch m m 1 0.6194 
02-Jun-2018_15:44:13 Exp 7338 20 female R 1 2 6 moralSelf immoralSelf mismatch m m 1 0.7164 
02-Jun-2018_15:44:15 Exp 7338 20 female R 1 2 7 moralOther moralOther match n n 1 0.4835 
02-Jun-2018_15:44:17 Exp 7338 20 female R 1 2 8 moralSelf moralSelf match n n 1 0.7979 
02-Jun-2018_15:44:19 Exp 7338 20 female R 1 2 9 immoralOther immoralOther match n n 1 0.5468 
02-Jun-2018_15:44:22 Exp 7338 20 female R 1 2 10 immoralSelf immoralOther mismatch m m 1 0.6904 
02-Jun-2018_15:44:24 Exp 7338 20 female R 1 2 11 immoralOther immoralOther match n n 1 0.7168 
02-Jun-2018_15:44:26 Exp 7338 20 female R 1 2 12 immoralOther moralSelf mismatch m m 1 0.6520 
02-Jun-2018_15:44:29 Exp 7338 20 female R 1 2 13 immoralSelf immoralSelf match n n 1 0.7137 
02-Jun-2018_15:44:31 Exp 7338 20 female R 1 2 14 immoralOther moralOther mismatch m m 1 0.8606 
02-Jun-2018_15:44:33 Exp 7338 20 female R 1 2 15 moralSelf moralSelf match n n 1 0.5266 
02-Jun-2018_15:44:36 Exp 7338 20 female R 1 2 16 immoralSelf immoralSelf match n n 1 0.8101 
02-Jun-2018_15:44:38 Exp 7338 20 female R 1 2 17 moralSelf immoralSelf mismatch m m 1 0.7070 
02-Jun-2018_15:44:41 Exp 7338 20 female R 1 2 18 moralOther immoralOther mismatch m m 1 0.7740 
02-Jun-2018_15:44:43 Exp 7338 20 female R 1 2 19 immoralOther immoralSelf mismatch m m 1 1.0102 
02-Jun-2018_15:44:45 Exp 7338 20 female R 1 2 20 moralOther moralOther match n n 1 0.5954 
02-Jun-2018_15:44:48 Exp 7338 20 female R 1 2 21 moralOther immoralSelf mismatch m m 1 0.6038 
02-Jun-2018_15:44:50 Exp 7338 20 female R 1 2 22 moralOther moralOther match n n 1 0.6327 
02-Jun-2018_15:44:52 Exp 7338 20 female R 1 2 23 immoralSelf moralOther mismatch m m 1 0.6101 
02-Jun-2018_15:44:55 Exp 7338 20 female R 1 2 24 immoralOther immoralOther match n n 1 0.8351 
Date Prac Sub Age Sex Hand Block Bin Trial Shape Label Match CorrResp Resp ACC RT
02-Jun-2018_15:50:02 Exp 7338 20 female R 1 1 1 moralOther immoralOther mismatch m m 1 0.6779 
02-Jun-2018_15:50:04 Exp 7338 20 female R 1 1 2 moralSelf moralSelf match n n 1 0.5482 
02-Jun-2018_15:50:06 Exp 7338 20 female R 1 1 3 moralOther immoralSelf mismatch m m 1 0.5958 
02-Jun-2018_15:50:09 Exp 7338 20 female R 1 1 4 immoralOther immoralOther match n n 1 0.6364 
02-Jun-2018_15:50:11 Exp 7338 20 female R 1 1 5 immoralSelf immoralOther mismatch m m 1 0.5579 
02-Jun-2018_15:50:13 Exp 7338 20 female R 1 1 6 immoralSelf immoralSelf match n n 1 0.6658 
02-Jun-2018_15:50:15 Exp 7338 20 female R 1 1 7 immoralOther moralOther mismatch m n 0 0.7397 
02-Jun-2018_15:50:18 Exp 7338 20 female R 1 1 8 immoralSelf immoralOther mismatch m m 1 0.7154 
02-Jun-2018_15:50:20 Exp 7338 20 female R 1 1 9 immoralOther immoralOther match n n 1 0.5624 
02-Jun-2018_15:50:22 Exp 7338 20 female R 1 1 10 moralOther moralOther match n n 1 0.6666 
02-Jun-2018_15:50:25 Exp 7338 20 female R 1 1 11 immoralSelf immoralOther mismatch m m 1 0.6845 
02-Jun-2018_15:50:27 Exp 7338 20 female R 1 1 12 immoralOther moralOther mismatch m m 1 0.8789 
02-Jun-2018_15:50:29 Exp 7338 20 female R 1 1 13 moralSelf immoralSelf mismatch m m 1 0.7731 
02-Jun-2018_15:50:32 Exp 7338 20 female R 1 1 14 moralSelf immoralSelf mismatch m m 1 0.5972 
02-Jun-2018_15:50:34 Exp 7338 20 female R 1 1 15 immoralSelf immoralSelf match n n 1 0.6660 
02-Jun-2018_15:50:36 Exp 7338 20 female R 1 1 16 moralOther immoralSelf mismatch m m 1 0.5560 
02-Jun-2018_15:50:39 Exp 7338 20 female R 1 1 17 immoralSelf immoralSelf match n n 1 0.8239 
02-Jun-2018_15:50:41 Exp 7338 20 female R 1 1 18 immoralOther immoralOther match n n 1 0.9171 
02-Jun-2018_15:50:43 Exp 7338 20 female R 1 1 19 moralOther moralOther match n n 1 0.4682 
02-Jun-2018_15:50:45 Exp 7338 20 female R 1 1 20 moralOther moralOther match n n 1 0.4746 
02-Jun-2018_15:50:48 Exp 7338 20 female R 1 1 21 immoralOther moralOther mismatch m m 1 1.0088 
02-Jun-2018_15:50:50 Exp 7338 20 female R 1 1 22 moralSelf immoralOther mismatch m m 1 0.6258 
02-Jun-2018_15:50:53 Exp 7338 20 female R 1 1 23 moralSelf moralSelf match n n 1 0.6069 
02-Jun-2018_15:50:55 Exp 7338 20 female R 1 1 24 moralSelf moralSelf match n n 1 0.5159 
02-Jun-2018_15:50:57 Exp 7338 20 female R 1 2 1 moralOther moralSelf mismatch m m 1 0.6232 
02-Jun-2018_15:50:59 Exp 7338 20 female R 1 2 2 immoralOther immoralOther match n n 1 0.6284 
02-Jun-2018_15:51:02 Exp 7338 20 female R 1 2 3 moralSelf moralOther mismatch m m 1 0.7057 
02-Jun-2018_15:51:04 Exp 7338 20 female R 1 2 4 immoralSelf immoralOther mismatch m m 1 0.8366 
02-Jun-2018_15:51:06 Exp 7338 20 female R 1 2 5 immoralSelf immoralSelf match n n 1 0.5582 
02-Jun-2018_15:51:09 Exp 7338 20 female R 1 2 6 moralSelf moralOther mismatch m m 1 0.7699 
02-Jun-2018_15:51:11 Exp 7338 20 female R 1 2 7 immoralOther moralSelf mismatch m m 1 0.8341 
02-Jun-2018_15:51:13 Exp 7338 20 female R 1 2 8 immoralSelf immoralSelf match n n 1 0.7396 
02-Jun-2018_15:51:16 Exp 7338 20 female R 1 2 9 moralSelf moralSelf match n n 1 0.5311 
02-Jun-2018_15:51:18 Exp 7338 20 female R 1 2 10 moralSelf immoralSelf mismatch m m 1 0.6385 
02-Jun-2018_15:51:20 Exp 7338 20 female R 1 2 11 immoralOther immoralOther match n n 1 0.6720 
02-Jun-2018_15:51:23 Exp 7338 20 female R 1 2 12 immoralSelf moralOther mismatch m m 1 0.6463 
02-Jun-2018_15:51:25 Exp 7338 20 female R 1 2 13 moralOther moralOther match n n 1 0.5561 
02-Jun-2018_15:51:27 Exp 7338 20 female R 1 2 14 immoralOther immoralOther match n n 1 0.5920 
02-Jun-2018_15:51:29 Exp 7338 20 female R 1 2 15 moralOther moralOther match n m 0 0.5924 
02-Jun-2018_15:51:32 Exp 7338 20 female R 1 2 16 immoralSelf moralOther mismatch m m 1 0.7930 
02-Jun-2018_15:51:34 Exp 7338 20 female R 1 2 17 moralSelf moralSelf match n n 1 0.8895 
02-Jun-2018_15:51:36 Exp 7338 20 female R 1 2 18 moralOther moralSelf mismatch m m 1 0.6439 
02-Jun-2018_15:51:39 Exp 7338 20 female R 1 2 19 immoralOther moralSelf mismatch m m 1 0.7735 
02-Jun-2018_15:51:41 Exp 7338 20 female R 1 2 20 immoralSelf immoralSelf match n n 1 0.6019 
02-Jun-2018_15:51:43 Exp 7338 20 female R 1 2 21 moralOther immoralSelf mismatch m m 1 0.7266 
02-Jun-2018_15:51:46 Exp 7338 20 female R 1 2 22 immoralOther moralOther mismatch m m 1 0.9860 
02-Jun-2018_15:51:48 Exp 7338 20 female R 1 2 23 moralSelf moralSelf match n n 1 0.6746 
02-Jun-2018_15:51:51 Exp 7338 20 female R 1 2 24 moralOther moralOther match n n 1 0.5687 
Date Prac Sub Age Sex Hand Block Bin Trial Shape Label Match CorrResp Resp ACC RT
02-Jun-2018_15:57:45 Exp 7338 20 female R 1 1 1 immoralSelf immoralSelf match n n 1 0.5718 
02-Jun-2018_15:57:47 Exp 7338 20 female R 1 1 2 immoralOther moralSelf mismatch m m 1 0.7239 
02-Jun-2018_15:57:49 Exp 7338 20 female R 1 1 3 immoralOther moralOther mismatch m m 1 0.9310 
02-Jun-2018_15:57:52 Exp 7338 20 female R 1 1 4 immoralOther moralOther mismatch m m 1 0.9185 
02-Jun-2018_15:57:55 Exp 7338 20 female R 1 1 5 moralOther moralSelf mismatch m NA -1 1.0841 
02-Jun-2018_15:57:57 Exp 7338 20 female R 1 1 6 immoralOther immoralOther match n n 1 0.7121 
02-Jun-2018_15:58:00 Exp 7338 20 female R 1 1 7 moralOther immoralSelf mismatch m m 1 0.8510 
02-Jun-2018_15:58:02 Exp 7338 20 female R 1 1 8 moralSelf moralSelf match n n 1 0.9528 
02-Jun-2018_15:58:04 Exp 7338 20 female R 1 1 9 immoralOther immoralOther match n n 1 0.7006 
02-Jun-2018_15:58:07 Exp 7338 20 female R 1 1 10 immoralSelf immoralSelf match n n 1 0.6193 
02-Jun-2018_15:58:09 Exp 7338 20 female R 1 1 11 moralSelf immoralSelf mismatch m m 1 0.7884 
02-Jun-2018_15:58:12 Exp 7338 20 female R 1 1 12 immoralSelf moralSelf mismatch m m 1 0.8449 
02-Jun-2018_15:58:14 Exp 7338 20 female R 1 1 13 immoralSelf immoralOther mismatch m n 0 0.8107 
02-Jun-2018_15:58:16 Exp 7338 20 female R 1 1 14 immoralSelf immoralSelf match n n 1 0.6756 
02-Jun-2018_15:58:19 Exp 7338 20 female R 1 1 15 moralSelf immoralSelf mismatch m m 1 0.6817 
02-Jun-2018_15:58:21 Exp 7338 20 female R 1 1 16 moralOther immoralOther mismatch m m 1 0.6763 
02-Jun-2018_15:58:23 Exp 7338 20 female R 1 1 17 immoralSelf immoralOther mismatch m m 1 0.6185 
02-Jun-2018_15:58:26 Exp 7338 20 female R 1 1 18 moralSelf moralSelf match n n 1 0.8195 
02-Jun-2018_15:58:28 Exp 7338 20 female R 1 1 19 immoralOther immoralOther match n n 1 0.7086 
02-Jun-2018_15:58:30 Exp 7338 20 female R 1 1 20 moralOther moralOther match n n 1 0.5195 
02-Jun-2018_15:58:32 Exp 7338 20 female R 1 1 21 moralOther moralOther match n n 1 0.5107 
02-Jun-2018_15:58:35 Exp 7338 20 female R 1 1 22 moralSelf moralSelf match n n 1 0.8415 
02-Jun-2018_15:58:37 Exp 7338 20 female R 1 1 23 moralSelf immoralSelf mismatch m m 1 0.6990 
02-Jun-2018_15:58:39 Exp 7338 20 female R 1 1 24 moralOther moralOther match n n 1 0.5297 
02-Jun-2018_15:58:41 Exp 7338 20 female R 1 2 1 moralOther moralOther match n n 1 0.5251 
02-Jun-2018_15:58:44 Exp 7338 20 female R 1 2 2 moralSelf immoralOther mismatch m m 1 0.7002 
02-Jun-2018_15:58:46 Exp 7338 20 female R 1 2 3 immoralSelf immoralSelf match n n 1 0.6269 
02-Jun-2018_15:58:48 Exp 7338 20 female R 1 2 4 moralOther moralOther match n n 1 0.5363 
02-Jun-2018_15:58:50 Exp 7338 20 female R 1 2 5 moralOther immoralSelf mismatch m m 1 0.5795 
02-Jun-2018_15:58:53 Exp 7338 20 female R 1 2 6 immoralOther immoralOther match n n 1 0.5599 
02-Jun-2018_15:58:55 Exp 7338 20 female R 1 2 7 immoralOther immoralSelf mismatch m m 1 0.5637 
02-Jun-2018_15:58:57 Exp 7338 20 female R 1 2 8 immoralSelf immoralSelf match n n 1 0.6758 
02-Jun-2018_15:58:59 Exp 7338 20 female R 1 2 9 immoralSelf moralOther mismatch m m 1 0.5860 
02-Jun-2018_15:59:02 Exp 7338 20 female R 1 2 10 immoralSelf immoralOther mismatch m m 1 0.5305 
02-Jun-2018_15:59:04 Exp 7338 20 female R 1 2 11 moralSelf immoralSelf mismatch m m 1 0.6459 
02-Jun-2018_15:59:06 Exp 7338 20 female R 1 2 12 moralSelf moralSelf match n n 1 0.7077 
02-Jun-2018_15:59:08 Exp 7338 20 female R 1 2 13 moralSelf moralSelf match n n 1 0.5665 
02-Jun-2018_15:59:11 Exp 7338 20 female R 1 2 14 immoralOther immoralSelf mismatch m m 1 0.6226 
02-Jun-2018_15:59:13 Exp 7338 20 female R 1 2 15 immoralOther immoralOther match n n 1 0.8039 
02-Jun-2018_15:59:15 Exp 7338 20 female R 1 2 16 immoralOther immoralOther match n n 1 0.4807 
02-Jun-2018_15:59:17 Exp 7338 20 female R 1 2 17 moralSelf moralOther mismatch m m 1 0.6752 
02-Jun-2018_15:59:20 Exp 7338 20 female R 1 2 18 immoralSelf immoralSelf match n n 1 0.7853 
02-Jun-2018_15:59:22 Exp 7338 20 female R 1 2 19 moralOther moralOther match n n 1 0.5379 
02-Jun-2018_15:59:24 Exp 7338 20 female R 1 2 20 moralOther moralSelf mismatch m m 1 0.6773 
02-Jun-2018_15:59:27 Exp 7338 20 female R 1 2 21 immoralOther immoralSelf mismatch m m 1 0.7314 
02-Jun-2018_15:59:29 Exp 7338 20 female R 1 2 22 moralOther immoralOther mismatch m m 1 0.7029 
02-Jun-2018_15:59:32 Exp 7338 20 female R 1 2 23 moralSelf moralSelf match n m 0 0.9298 
02-Jun-2018_15:59:34 Exp 7338 20 female R 1 2 24 immoralSelf moralSelf mismatch m m 1 0.9332 
