Date Sub Age Sex Hand Block Bin Trial Task Shape corrResp Resp ACC RT
30-May-2018_15:59:48 7332 20 female R 1 1 1 self moralOther J h 0 1.0076 
30-May-2018_15:59:50 7332 20 female R 1 1 2 self immoralSelf H h 1 0.9657 
30-May-2018_15:59:52 7332 20 female R 1 1 3 self immoralSelf H j 0 1.0058 
30-May-2018_15:59:54 7332 20 female R 1 1 4 self immoralOther J j 1 0.7579 
30-May-2018_15:59:56 7332 20 female R 1 1 5 self immoralOther J j 1 0.6080 
30-May-2018_15:59:58 7332 20 female R 1 1 6 self moralSelf H h 1 0.6682 
30-May-2018_16:00:00 7332 20 female R 1 1 7 self immoralSelf H h 1 0.6064 
30-May-2018_16:00:02 7332 20 female R 1 1 8 self moralOther J j 1 0.4244 
30-May-2018_16:00:04 7332 20 female R 1 1 9 self moralOther J j 1 0.5665 
30-May-2018_16:00:05 7332 20 female R 1 1 10 self immoralOther J j 1 0.6706 
30-May-2018_16:00:08 7332 20 female R 1 1 11 self moralSelf H h 1 0.9287 
30-May-2018_16:00:10 7332 20 female R 1 1 12 self moralOther J j 1 0.6968 
30-May-2018_16:00:12 7332 20 female R 1 1 13 self immoralOther J NA -1 1.1570 
30-May-2018_16:00:13 7332 20 female R 1 1 14 self moralOther J j 1 0.1004 
30-May-2018_16:00:15 7332 20 female R 1 1 15 self immoralSelf H h 1 0.7112 
30-May-2018_16:00:17 7332 20 female R 1 1 16 self immoralSelf H h 1 0.7773 
30-May-2018_16:00:19 7332 20 female R 1 1 17 self moralSelf H h 1 0.4274 
30-May-2018_16:00:20 7332 20 female R 1 1 18 self moralSelf H h 1 0.3895 
30-May-2018_16:00:22 7332 20 female R 1 1 19 self immoralOther J j 1 0.3236 
30-May-2018_16:00:23 7332 20 female R 1 1 20 self moralOther J j 1 0.4497 
30-May-2018_16:00:25 7332 20 female R 1 1 21 self immoralOther J j 1 0.5758 
30-May-2018_16:00:27 7332 20 female R 1 1 22 self moralSelf H h 1 0.5278 
30-May-2018_16:00:28 7332 20 female R 1 1 23 self moralSelf H h 1 0.4599 
30-May-2018_16:00:30 7332 20 female R 1 1 24 self immoralSelf H h 1 0.5201 
30-May-2018_16:00:32 7332 20 female R 1 2 1 self moralOther J j 1 0.6822 
30-May-2018_16:00:34 7332 20 female R 1 2 2 self moralOther J j 1 0.5843 
30-May-2018_16:00:35 7332 20 female R 1 2 3 self moralSelf H h 1 0.5544 
30-May-2018_16:00:37 7332 20 female R 1 2 4 self immoralOther J h 0 0.3704 
30-May-2018_16:00:38 7332 20 female R 1 2 5 self moralOther J j 1 0.7925 
30-May-2018_16:00:40 7332 20 female R 1 2 6 self moralSelf H h 1 0.4766 
30-May-2018_16:00:42 7332 20 female R 1 2 7 self moralOther J j 1 0.5708 
30-May-2018_16:00:44 7332 20 female R 1 2 8 self immoralSelf H h 1 0.6949 
30-May-2018_16:00:46 7332 20 female R 1 2 9 self immoralSelf H h 1 0.5090 
30-May-2018_16:00:47 7332 20 female R 1 2 10 self moralSelf H h 1 0.4050 
30-May-2018_16:00:49 7332 20 female R 1 2 11 self moralOther J j 1 0.5672 
30-May-2018_16:00:51 7332 20 female R 1 2 12 self immoralOther J h 0 0.6653 
30-May-2018_16:00:53 7332 20 female R 1 2 13 self immoralOther J j 1 0.5154 
30-May-2018_16:00:55 7332 20 female R 1 2 14 self immoralSelf H h 1 0.5035 
30-May-2018_16:00:56 7332 20 female R 1 2 15 self immoralSelf H h 1 0.4496 
30-May-2018_16:00:58 7332 20 female R 1 2 16 self moralOther J j 1 0.5536 
30-May-2018_16:01:00 7332 20 female R 1 2 17 self moralSelf H h 1 0.5877 
30-May-2018_16:01:02 7332 20 female R 1 2 18 self immoralSelf H j 0 0.6839 
30-May-2018_16:01:04 7332 20 female R 1 2 19 self moralSelf H h 1 0.5900 
30-May-2018_16:01:06 7332 20 female R 1 2 20 self immoralOther J j 1 0.6221 
30-May-2018_16:01:07 7332 20 female R 1 2 21 self moralSelf H h 1 0.6723 
30-May-2018_16:01:09 7332 20 female R 1 2 22 self immoralOther J NA -1 1.1570 
30-May-2018_16:01:12 7332 20 female R 1 2 23 self immoralOther J j 1 0.8804 
30-May-2018_16:01:14 7332 20 female R 1 2 24 self immoralSelf H h 1 0.5525 
30-May-2018_16:01:29 7332 20 female R 1 3 1 self moralOther J j 1 0.5734 
30-May-2018_16:01:31 7332 20 female R 1 3 2 self immoralOther J j 1 0.6376 
30-May-2018_16:01:33 7332 20 female R 1 3 3 self immoralOther J j 1 0.5437 
30-May-2018_16:01:34 7332 20 female R 1 3 4 self immoralSelf H j 0 0.3679 
30-May-2018_16:01:37 7332 20 female R 1 3 5 self immoralSelf H h 1 0.6458 
30-May-2018_16:01:38 7332 20 female R 1 3 6 self immoralOther J j 1 0.5660 
30-May-2018_16:01:40 7332 20 female R 1 3 7 self moralOther J j 1 0.5181 
30-May-2018_16:01:42 7332 20 female R 1 3 8 self immoralOther J j 1 0.4582 
30-May-2018_16:01:44 7332 20 female R 1 3 9 self immoralSelf H h 1 0.5243 
30-May-2018_16:01:46 7332 20 female R 1 3 10 self immoralSelf H h 1 0.6644 
30-May-2018_16:01:47 7332 20 female R 1 3 11 self moralOther J j 1 0.5445 
30-May-2018_16:01:49 7332 20 female R 1 3 12 self moralSelf H h 1 0.5466 
30-May-2018_16:01:50 7332 20 female R 1 3 13 self immoralSelf H h 1 0.4227 
30-May-2018_16:01:52 7332 20 female R 1 3 14 self immoralSelf H h 1 0.5127 
30-May-2018_16:01:53 7332 20 female R 1 3 15 self moralSelf H h 1 0.5069 
30-May-2018_16:01:55 7332 20 female R 1 3 16 self immoralOther J j 1 0.7070 
30-May-2018_16:01:57 7332 20 female R 1 3 17 self moralSelf H h 1 0.6991 
30-May-2018_16:01:59 7332 20 female R 1 3 18 self moralSelf H h 1 0.6433 
30-May-2018_16:02:01 7332 20 female R 1 3 19 self moralOther J j 1 0.6333 
30-May-2018_16:02:03 7332 20 female R 1 3 20 self moralSelf H h 1 0.5974 
30-May-2018_16:02:05 7332 20 female R 1 3 21 self immoralOther J j 1 0.5795 
30-May-2018_16:02:07 7332 20 female R 1 3 22 self moralSelf H h 1 0.5816 
30-May-2018_16:02:08 7332 20 female R 1 3 23 self moralOther J j 1 0.5117 
30-May-2018_16:02:10 7332 20 female R 1 3 24 self moralOther J j 1 0.5818 
30-May-2018_16:02:12 7332 20 female R 1 4 1 self immoralOther J j 1 0.5999 
30-May-2018_16:02:14 7332 20 female R 1 4 2 self moralOther J j 1 0.5561 
30-May-2018_16:02:16 7332 20 female R 1 4 3 self moralOther J j 1 0.7061 
30-May-2018_16:02:17 7332 20 female R 1 4 4 self immoralOther J j 1 0.6022 
30-May-2018_16:02:19 7332 20 female R 1 4 5 self immoralSelf H h 1 0.6004 
30-May-2018_16:02:21 7332 20 female R 1 4 6 self immoralSelf H h 1 0.6364 
30-May-2018_16:02:23 7332 20 female R 1 4 7 self moralSelf H h 1 0.4906 
30-May-2018_16:02:24 7332 20 female R 1 4 8 self moralSelf H h 1 0.2827 
30-May-2018_16:02:26 7332 20 female R 1 4 9 self immoralOther J j 1 0.5547 
30-May-2018_16:02:27 7332 20 female R 1 4 10 self immoralOther J j 1 0.4448 
30-May-2018_16:02:29 7332 20 female R 1 4 11 self immoralOther J j 1 0.3989 
30-May-2018_16:02:31 7332 20 female R 1 4 12 self immoralSelf H h 1 0.6290 
30-May-2018_16:02:32 7332 20 female R 1 4 13 self immoralOther J j 1 0.6051 
30-May-2018_16:02:35 7332 20 female R 1 4 14 self moralOther J NA -1 1.1570 
30-May-2018_16:02:37 7332 20 female R 1 4 15 self moralSelf H h 1 0.6693 
30-May-2018_16:02:38 7332 20 female R 1 4 16 self immoralSelf H h 1 0.6914 
30-May-2018_16:02:40 7332 20 female R 1 4 17 self moralOther J j 1 0.5855 
30-May-2018_16:02:42 7332 20 female R 1 4 18 self moralOther J j 1 0.5437 
30-May-2018_16:02:44 7332 20 female R 1 4 19 self moralSelf H h 1 0.4418 
30-May-2018_16:02:46 7332 20 female R 1 4 20 self moralSelf H h 1 0.5919 
30-May-2018_16:02:48 7332 20 female R 1 4 21 self moralOther J j 1 0.5480 
30-May-2018_16:02:50 7332 20 female R 1 4 22 self immoralSelf H h 1 0.9182 
30-May-2018_16:02:52 7332 20 female R 1 4 23 self moralSelf H h 1 0.6062 
30-May-2018_16:02:54 7332 20 female R 1 4 24 self immoralSelf H h 1 0.8444 
30-May-2018_16:03:13 7332 20 female R 1 5 1 self immoralSelf H h 1 0.5794 
30-May-2018_16:03:14 7332 20 female R 1 5 2 self immoralOther J j 1 0.5595 
30-May-2018_16:03:16 7332 20 female R 1 5 3 self immoralSelf H h 1 0.9617 
30-May-2018_16:03:18 7332 20 female R 1 5 4 self immoralSelf H j 0 0.5317 
30-May-2018_16:03:20 7332 20 female R 1 5 5 self moralOther J j 1 0.6399 
30-May-2018_16:03:21 7332 20 female R 1 5 6 self moralSelf H h 1 0.4320 
30-May-2018_16:03:23 7332 20 female R 1 5 7 self moralOther J j 1 0.5340 
30-May-2018_16:03:25 7332 20 female R 1 5 8 self immoralSelf H h 1 0.6222 
30-May-2018_16:03:26 7332 20 female R 1 5 9 self moralOther J j 1 0.7942 
30-May-2018_16:03:28 7332 20 female R 1 5 10 self immoralOther J j 1 0.6143 
30-May-2018_16:03:30 7332 20 female R 1 5 11 self moralSelf H h 1 0.4384 
30-May-2018_16:03:32 7332 20 female R 1 5 12 self immoralOther J j 1 0.5746 
30-May-2018_16:03:33 7332 20 female R 1 5 13 self moralSelf H h 1 0.7426 
30-May-2018_16:03:35 7332 20 female R 1 5 14 self moralSelf H h 1 0.3533 
30-May-2018_16:03:37 7332 20 female R 1 5 15 self moralOther J j 1 0.3768 
30-May-2018_16:03:38 7332 20 female R 1 5 16 self moralSelf H h 1 0.4209 
30-May-2018_16:03:40 7332 20 female R 1 5 17 self moralOther J j 1 0.4450 
30-May-2018_16:03:42 7332 20 female R 1 5 18 self immoralOther J j 1 0.5391 
30-May-2018_16:03:44 7332 20 female R 1 5 19 self moralSelf H h 1 0.4532 
30-May-2018_16:03:45 7332 20 female R 1 5 20 self immoralSelf H j 0 0.4054 
30-May-2018_16:03:47 7332 20 female R 1 5 21 self immoralSelf H h 1 0.7734 
30-May-2018_16:03:49 7332 20 female R 1 5 22 self immoralOther J j 1 0.5476 
30-May-2018_16:03:50 7332 20 female R 1 5 23 self moralOther J j 1 0.4777 
30-May-2018_16:03:51 7332 20 female R 1 5 24 self immoralOther J j 1 0.4037 
Date Sub Age Sex Hand Block Bin Trial Task Shape corrResp Resp ACC RT
30-May-2018_16:06:17 7332 20 female R 2 1 1 moral moralOther Y y 1 0.6380 
30-May-2018_16:06:19 7332 20 female R 2 1 2 moral immoralOther U u 1 0.6022 
30-May-2018_16:06:21 7332 20 female R 2 1 3 moral moralOther Y y 1 0.6843 
30-May-2018_16:06:22 7332 20 female R 2 1 4 moral immoralSelf U u 1 0.7984 
30-May-2018_16:06:24 7332 20 female R 2 1 5 moral moralSelf Y y 1 0.5764 
30-May-2018_16:06:26 7332 20 female R 2 1 6 moral immoralSelf U u 1 0.7226 
30-May-2018_16:06:28 7332 20 female R 2 1 7 moral moralSelf Y y 1 0.5227 
30-May-2018_16:06:30 7332 20 female R 2 1 8 moral moralOther Y y 1 0.6828 
30-May-2018_16:06:32 7332 20 female R 2 1 9 moral moralOther Y y 1 0.5550 
30-May-2018_16:06:34 7332 20 female R 2 1 10 moral moralSelf Y y 1 0.4790 
30-May-2018_16:06:35 7332 20 female R 2 1 11 moral moralSelf Y y 1 0.4411 
30-May-2018_16:06:37 7332 20 female R 2 1 12 moral moralSelf Y y 1 0.6073 
30-May-2018_16:06:39 7332 20 female R 2 1 13 moral immoralOther U u 1 0.5834 
30-May-2018_16:06:41 7332 20 female R 2 1 14 moral immoralSelf U u 1 1.0115 
30-May-2018_16:06:43 7332 20 female R 2 1 15 moral moralOther Y u 0 0.9755 
30-May-2018_16:06:45 7332 20 female R 2 1 16 moral immoralOther U u 1 0.5937 
30-May-2018_16:06:47 7332 20 female R 2 1 17 moral immoralOther U u 1 0.5318 
30-May-2018_16:06:49 7332 20 female R 2 1 18 moral immoralSelf U y 0 0.8239 
30-May-2018_16:06:51 7332 20 female R 2 1 19 moral moralOther Y u 0 0.6860 
30-May-2018_16:06:53 7332 20 female R 2 1 20 moral immoralSelf U u 1 1.1402 
30-May-2018_16:06:55 7332 20 female R 2 1 21 moral moralSelf Y y 1 0.5742 
30-May-2018_16:06:56 7332 20 female R 2 1 22 moral immoralOther U u 1 0.6263 
30-May-2018_16:06:58 7332 20 female R 2 1 23 moral immoralSelf U u 1 0.6445 
30-May-2018_16:07:00 7332 20 female R 2 1 24 moral immoralOther U u 1 0.6365 
30-May-2018_16:07:02 7332 20 female R 2 2 1 moral moralOther Y y 1 0.4647 
30-May-2018_16:07:04 7332 20 female R 2 2 2 moral moralOther Y u 0 0.4388 
30-May-2018_16:07:05 7332 20 female R 2 2 3 moral moralOther Y y 1 0.5188 
30-May-2018_16:07:07 7332 20 female R 2 2 4 moral moralSelf Y y 1 0.4730 
30-May-2018_16:07:09 7332 20 female R 2 2 5 moral immoralOther U u 1 0.4651 
30-May-2018_16:07:11 7332 20 female R 2 2 6 moral immoralSelf U u 1 0.7751 
30-May-2018_16:07:13 7332 20 female R 2 2 7 moral moralSelf Y y 1 0.5012 
30-May-2018_16:07:14 7332 20 female R 2 2 8 moral immoralSelf U u 1 0.6273 
30-May-2018_16:07:16 7332 20 female R 2 2 9 moral moralSelf Y y 1 0.4115 
30-May-2018_16:07:18 7332 20 female R 2 2 10 moral immoralOther U u 1 0.4556 
30-May-2018_16:07:19 7332 20 female R 2 2 11 moral immoralOther U u 1 0.4937 
30-May-2018_16:07:21 7332 20 female R 2 2 12 moral moralOther Y y 1 0.8118 
30-May-2018_16:07:23 7332 20 female R 2 2 13 moral immoralSelf U u 1 0.4939 
30-May-2018_16:07:25 7332 20 female R 2 2 14 moral immoralSelf U NA -1 1.1570 
30-May-2018_16:07:27 7332 20 female R 2 2 15 moral immoralOther U u 1 0.6081 
30-May-2018_16:07:29 7332 20 female R 2 2 16 moral moralOther Y y 1 0.6222 
30-May-2018_16:07:31 7332 20 female R 2 2 17 moral moralSelf Y y 1 0.4464 
30-May-2018_16:07:32 7332 20 female R 2 2 18 moral moralSelf Y y 1 0.3884 
30-May-2018_16:07:34 7332 20 female R 2 2 19 moral immoralOther U u 1 0.4525 
30-May-2018_16:07:36 7332 20 female R 2 2 20 moral immoralSelf U u 1 0.8786 
30-May-2018_16:07:38 7332 20 female R 2 2 21 moral immoralSelf U u 1 0.6228 
30-May-2018_16:07:40 7332 20 female R 2 2 22 moral moralOther Y u 0 0.5969 
30-May-2018_16:07:42 7332 20 female R 2 2 23 moral moralSelf Y y 1 0.4090 
30-May-2018_16:07:44 7332 20 female R 2 2 24 moral immoralOther U u 1 0.4771 
30-May-2018_16:07:57 7332 20 female R 2 3 1 moral moralSelf Y NA -1 1.1570 
30-May-2018_16:07:59 7332 20 female R 2 3 2 moral immoralOther U u 1 0.6720 
30-May-2018_16:08:00 7332 20 female R 2 3 3 moral moralSelf Y y 1 0.4801 
30-May-2018_16:08:02 7332 20 female R 2 3 4 moral immoralSelf U u 1 0.4301 
30-May-2018_16:08:04 7332 20 female R 2 3 5 moral immoralOther U u 1 0.5222 
30-May-2018_16:08:05 7332 20 female R 2 3 6 moral moralOther Y y 1 0.5064 
30-May-2018_16:08:07 7332 20 female R 2 3 7 moral moralOther Y y 1 0.5345 
30-May-2018_16:08:09 7332 20 female R 2 3 8 moral immoralOther U u 1 0.5506 
30-May-2018_16:08:10 7332 20 female R 2 3 9 moral moralSelf Y y 1 0.5526 
30-May-2018_16:08:12 7332 20 female R 2 3 10 moral immoralOther U u 1 0.6068 
30-May-2018_16:08:14 7332 20 female R 2 3 11 moral moralOther Y y 1 0.5328 
30-May-2018_16:08:15 7332 20 female R 2 3 12 moral moralSelf Y y 1 0.5229 
30-May-2018_16:08:17 7332 20 female R 2 3 13 moral moralSelf Y y 1 0.5770 
30-May-2018_16:08:19 7332 20 female R 2 3 14 moral immoralOther U u 1 0.4911 
30-May-2018_16:08:21 7332 20 female R 2 3 15 moral moralOther Y y 1 0.6552 
30-May-2018_16:08:23 7332 20 female R 2 3 16 moral immoralSelf U u 1 0.8653 
30-May-2018_16:08:25 7332 20 female R 2 3 17 moral immoralSelf U u 1 0.6294 
30-May-2018_16:08:27 7332 20 female R 2 3 18 moral moralOther Y y 1 1.0055 
30-May-2018_16:08:29 7332 20 female R 2 3 19 moral moralOther Y y 1 0.5737 
30-May-2018_16:08:31 7332 20 female R 2 3 20 moral moralSelf Y y 1 0.3699 
30-May-2018_16:08:32 7332 20 female R 2 3 21 moral immoralSelf U u 1 0.4458 
30-May-2018_16:08:34 7332 20 female R 2 3 22 moral immoralSelf U u 1 0.5380 
30-May-2018_16:08:36 7332 20 female R 2 3 23 moral immoralSelf U u 1 0.3141 
30-May-2018_16:08:38 7332 20 female R 2 3 24 moral immoralOther U u 1 0.6982 
30-May-2018_16:08:40 7332 20 female R 2 4 1 moral immoralSelf U u 1 0.6064 
30-May-2018_16:08:41 7332 20 female R 2 4 2 moral moralSelf Y y 1 0.6024 
30-May-2018_16:08:43 7332 20 female R 2 4 3 moral moralOther Y u 0 0.6705 
30-May-2018_16:08:45 7332 20 female R 2 4 4 moral moralSelf Y y 1 0.5407 
30-May-2018_16:08:47 7332 20 female R 2 4 5 moral immoralSelf U u 1 0.6407 
30-May-2018_16:08:49 7332 20 female R 2 4 6 moral immoralOther U u 1 0.6149 
30-May-2018_16:08:51 7332 20 female R 2 4 7 moral moralOther Y y 1 0.6970 
30-May-2018_16:08:53 7332 20 female R 2 4 8 moral immoralOther U u 1 0.4791 
30-May-2018_16:08:54 7332 20 female R 2 4 9 moral moralOther Y y 1 0.5092 
30-May-2018_16:08:56 7332 20 female R 2 4 10 moral immoralSelf U u 1 0.6232 
30-May-2018_16:08:58 7332 20 female R 2 4 11 moral immoralOther U u 1 0.6853 
30-May-2018_16:09:00 7332 20 female R 2 4 12 moral immoralOther U u 1 0.4755 
30-May-2018_16:09:02 7332 20 female R 2 4 13 moral moralOther Y y 1 0.7256 
30-May-2018_16:09:03 7332 20 female R 2 4 14 moral immoralSelf U u 1 0.6157 
30-May-2018_16:09:05 7332 20 female R 2 4 15 moral moralSelf Y y 1 0.4077 
30-May-2018_16:09:07 7332 20 female R 2 4 16 moral moralOther Y u 0 0.5059 
30-May-2018_16:09:08 7332 20 female R 2 4 17 moral moralOther Y y 1 0.5400 
30-May-2018_16:09:10 7332 20 female R 2 4 18 moral immoralOther U u 1 0.5560 
30-May-2018_16:09:11 7332 20 female R 2 4 19 moral moralSelf Y y 1 0.2881 
30-May-2018_16:09:14 7332 20 female R 2 4 20 moral immoralSelf U u 1 0.7582 
30-May-2018_16:09:15 7332 20 female R 2 4 21 moral immoralSelf U u 1 0.6063 
30-May-2018_16:09:17 7332 20 female R 2 4 22 moral immoralOther U u 1 0.6265 
30-May-2018_16:09:19 7332 20 female R 2 4 23 moral moralSelf Y y 1 0.6946 
30-May-2018_16:09:21 7332 20 female R 2 4 24 moral moralSelf Y y 1 0.3647 
30-May-2018_16:09:32 7332 20 female R 2 5 1 moral moralOther Y u 0 0.8533 
30-May-2018_16:09:34 7332 20 female R 2 5 2 moral immoralSelf U u 1 0.7414 
30-May-2018_16:09:37 7332 20 female R 2 5 3 moral moralOther Y NA -1 1.1570 
30-May-2018_16:09:40 7332 20 female R 2 5 4 moral moralSelf Y NA -1 1.1570 
30-May-2018_16:09:41 7332 20 female R 2 5 5 moral immoralSelf U u 1 0.6818 
30-May-2018_16:09:43 7332 20 female R 2 5 6 moral immoralSelf U u 1 0.5040 
30-May-2018_16:09:45 7332 20 female R 2 5 7 moral moralSelf Y y 1 0.4321 
30-May-2018_16:09:46 7332 20 female R 2 5 8 moral immoralOther U u 1 0.5101 
30-May-2018_16:09:48 7332 20 female R 2 5 9 moral moralOther Y y 1 0.4082 
30-May-2018_16:09:49 7332 20 female R 2 5 10 moral moralSelf Y y 1 0.4544 
30-May-2018_16:09:51 7332 20 female R 2 5 11 moral moralSelf Y y 1 0.3364 
30-May-2018_16:09:53 7332 20 female R 2 5 12 moral moralOther Y u 0 0.4126 
30-May-2018_16:09:54 7332 20 female R 2 5 13 moral immoralOther U u 1 0.5766 
30-May-2018_16:09:56 7332 20 female R 2 5 14 moral immoralOther U u 1 0.4147 
30-May-2018_16:09:58 7332 20 female R 2 5 15 moral immoralSelf U u 1 0.7948 
30-May-2018_16:10:00 7332 20 female R 2 5 16 moral immoralOther U u 1 0.5089 
30-May-2018_16:10:01 7332 20 female R 2 5 17 moral moralOther Y y 1 0.4851 
30-May-2018_16:10:03 7332 20 female R 2 5 18 moral immoralSelf U u 1 0.6132 
30-May-2018_16:10:05 7332 20 female R 2 5 19 moral moralSelf Y y 1 0.3472 
30-May-2018_16:10:06 7332 20 female R 2 5 20 moral immoralOther U u 1 0.5013 
30-May-2018_16:10:08 7332 20 female R 2 5 21 moral immoralOther U u 1 0.5234 
30-May-2018_16:10:10 7332 20 female R 2 5 22 moral immoralSelf U u 1 0.6535 
30-May-2018_16:10:11 7332 20 female R 2 5 23 moral moralOther Y u 0 0.3956 
30-May-2018_16:10:13 7332 20 female R 2 5 24 moral moralSelf Y y 1 0.3077 
Date Sub Age Sex Hand Block Bin Trial Task Shape corrResp Resp ACC RT
30-May-2018_16:12:22 7332 20 female R 3 1 1 moral immoralSelf U u 1 0.9431 
30-May-2018_16:12:24 7332 20 female R 3 1 2 moral moralOther Y y 1 0.4393 
30-May-2018_16:12:26 7332 20 female R 3 1 3 moral immoralOther U u 1 0.4813 
30-May-2018_16:12:27 7332 20 female R 3 1 4 moral immoralSelf U y 0 0.2275 
30-May-2018_16:12:29 7332 20 female R 3 1 5 moral moralSelf Y y 1 0.4875 
30-May-2018_16:12:31 7332 20 female R 3 1 6 moral immoralSelf U u 1 0.6136 
30-May-2018_16:12:32 7332 20 female R 3 1 7 moral moralSelf Y y 1 0.4178 
30-May-2018_16:12:34 7332 20 female R 3 1 8 moral immoralSelf U u 1 0.5558 
30-May-2018_16:12:35 7332 20 female R 3 1 9 moral moralOther Y u 0 0.4120 
30-May-2018_16:12:37 7332 20 female R 3 1 10 moral moralOther Y u 0 0.4122 
30-May-2018_16:12:38 7332 20 female R 3 1 11 moral immoralSelf U u 1 0.5000 
30-May-2018_16:12:40 7332 20 female R 3 1 12 moral immoralOther U u 1 0.4782 
30-May-2018_16:12:41 7332 20 female R 3 1 13 moral immoralOther U u 1 0.4643 
30-May-2018_16:12:43 7332 20 female R 3 1 14 moral moralOther Y y 1 0.4344 
30-May-2018_16:12:45 7332 20 female R 3 1 15 moral moralOther Y y 1 0.2605 
30-May-2018_16:12:46 7332 20 female R 3 1 16 moral moralOther Y y 1 0.2606 
30-May-2018_16:12:47 7332 20 female R 3 1 17 moral moralSelf Y y 1 0.5726 
30-May-2018_16:12:49 7332 20 female R 3 1 18 moral immoralSelf U u 1 0.5787 
30-May-2018_16:12:51 7332 20 female R 3 1 19 moral moralSelf Y y 1 0.5468 
30-May-2018_16:12:52 7332 20 female R 3 1 20 moral moralSelf Y y 1 0.3329 
30-May-2018_16:12:54 7332 20 female R 3 1 21 moral moralSelf Y y 1 0.2590 
30-May-2018_16:12:55 7332 20 female R 3 1 22 moral immoralOther U u 1 0.4631 
30-May-2018_16:12:57 7332 20 female R 3 1 23 moral immoralOther U u 1 0.3732 
30-May-2018_16:12:59 7332 20 female R 3 1 24 moral immoralOther U u 1 0.2852 
30-May-2018_16:13:00 7332 20 female R 3 2 1 moral moralOther Y u 0 0.1173 
30-May-2018_16:13:02 7332 20 female R 3 2 2 moral immoralSelf U u 1 0.4695 
30-May-2018_16:13:04 7332 20 female R 3 2 3 moral moralOther Y y 1 1.0595 
30-May-2018_16:13:06 7332 20 female R 3 2 4 moral immoralSelf U u 1 0.4876 
30-May-2018_16:13:07 7332 20 female R 3 2 5 moral immoralSelf U u 1 0.4617 
30-May-2018_16:13:09 7332 20 female R 3 2 6 moral immoralOther U u 1 0.4939 
30-May-2018_16:13:10 7332 20 female R 3 2 7 moral immoralOther U u 1 0.3440 
30-May-2018_16:13:12 7332 20 female R 3 2 8 moral immoralSelf U u 1 0.2780 
30-May-2018_16:13:13 7332 20 female R 3 2 9 moral moralOther Y y 1 0.3481 
30-May-2018_16:13:15 7332 20 female R 3 2 10 moral moralSelf Y y 1 0.2902 
30-May-2018_16:13:17 7332 20 female R 3 2 11 moral immoralOther U u 1 0.4963 
30-May-2018_16:13:18 7332 20 female R 3 2 12 moral moralOther Y y 1 0.5764 
30-May-2018_16:13:20 7332 20 female R 3 2 13 moral moralOther Y y 1 0.4585 
30-May-2018_16:13:22 7332 20 female R 3 2 14 moral immoralOther U u 1 0.5427 
30-May-2018_16:13:23 7332 20 female R 3 2 15 moral moralSelf Y y 1 0.5087 
30-May-2018_16:13:25 7332 20 female R 3 2 16 moral moralSelf Y y 1 0.5428 
30-May-2018_16:13:27 7332 20 female R 3 2 17 moral moralSelf Y y 1 0.5528 
30-May-2018_16:13:28 7332 20 female R 3 2 18 moral moralSelf Y y 1 0.3771 
30-May-2018_16:13:30 7332 20 female R 3 2 19 moral moralOther Y y 1 0.6271 
30-May-2018_16:13:32 7332 20 female R 3 2 20 moral immoralSelf U u 1 0.5292 
30-May-2018_16:13:33 7332 20 female R 3 2 21 moral immoralSelf U u 1 0.5193 
30-May-2018_16:13:35 7332 20 female R 3 2 22 moral immoralOther U u 1 0.6354 
30-May-2018_16:13:37 7332 20 female R 3 2 23 moral moralSelf Y y 1 0.6994 
30-May-2018_16:13:39 7332 20 female R 3 2 24 moral immoralOther U u 1 0.6736 
30-May-2018_16:13:50 7332 20 female R 3 3 1 moral immoralOther U u 1 0.5622 
30-May-2018_16:13:51 7332 20 female R 3 3 2 moral moralSelf Y y 1 0.4043 
30-May-2018_16:13:53 7332 20 female R 3 3 3 moral moralSelf Y y 1 0.6124 
30-May-2018_16:13:54 7332 20 female R 3 3 4 moral moralSelf Y y 1 0.3205 
30-May-2018_16:13:56 7332 20 female R 3 3 5 moral immoralOther U u 1 0.4806 
30-May-2018_16:13:57 7332 20 female R 3 3 6 moral immoralSelf U u 1 0.4307 
30-May-2018_16:13:59 7332 20 female R 3 3 7 moral immoralSelf U u 1 0.5567 
30-May-2018_16:14:01 7332 20 female R 3 3 8 moral immoralSelf U u 1 0.3709 
30-May-2018_16:14:02 7332 20 female R 3 3 9 moral immoralOther U y 0 0.5429 
30-May-2018_16:14:04 7332 20 female R 3 3 10 moral immoralOther U u 1 0.3411 
30-May-2018_16:14:06 7332 20 female R 3 3 11 moral moralOther Y y 1 0.7071 
30-May-2018_16:14:07 7332 20 female R 3 3 12 moral moralSelf Y y 1 0.3692 
30-May-2018_16:14:09 7332 20 female R 3 3 13 moral moralSelf Y y 1 0.3173 
30-May-2018_16:14:11 7332 20 female R 3 3 14 moral moralOther Y y 1 0.1494 
30-May-2018_16:14:12 7332 20 female R 3 3 15 moral immoralSelf U u 1 0.4455 
30-May-2018_16:14:14 7332 20 female R 3 3 16 moral moralOther Y y 1 0.4856 
30-May-2018_16:14:15 7332 20 female R 3 3 17 moral immoralOther U u 1 0.4357 
30-May-2018_16:14:17 7332 20 female R 3 3 18 moral immoralSelf U u 1 0.4298 
30-May-2018_16:14:18 7332 20 female R 3 3 19 moral immoralSelf U u 1 0.3639 
30-May-2018_16:14:20 7332 20 female R 3 3 20 moral moralOther Y y 1 0.3019 
30-May-2018_16:14:21 7332 20 female R 3 3 21 moral moralOther Y y 1 0.4761 
30-May-2018_16:14:23 7332 20 female R 3 3 22 moral immoralOther U u 1 0.4901 
30-May-2018_16:14:25 7332 20 female R 3 3 23 moral moralOther Y y 1 0.4963 
30-May-2018_16:14:27 7332 20 female R 3 3 24 moral moralSelf Y y 1 0.5443 
30-May-2018_16:14:28 7332 20 female R 3 4 1 moral moralSelf Y y 1 0.3044 
30-May-2018_16:14:30 7332 20 female R 3 4 2 moral moralSelf Y y 1 0.2065 
30-May-2018_16:14:31 7332 20 female R 3 4 3 moral moralSelf Y y 1 0.2387 
30-May-2018_16:14:32 7332 20 female R 3 4 4 moral immoralOther U y 0 0.2407 
30-May-2018_16:14:34 7332 20 female R 3 4 5 moral moralOther Y u 0 0.4948 
30-May-2018_16:14:36 7332 20 female R 3 4 6 moral immoralOther U u 1 0.6248 
30-May-2018_16:14:38 7332 20 female R 3 4 7 moral moralOther Y u 0 0.8229 
30-May-2018_16:14:40 7332 20 female R 3 4 8 moral immoralSelf U u 1 0.6411 
30-May-2018_16:14:41 7332 20 female R 3 4 9 moral immoralSelf U u 1 0.4672 
30-May-2018_16:14:43 7332 20 female R 3 4 10 moral immoralOther U u 1 0.5394 
30-May-2018_16:14:45 7332 20 female R 3 4 11 moral moralOther Y y 1 0.4414 
30-May-2018_16:14:47 7332 20 female R 3 4 12 moral immoralSelf U u 1 0.4675 
30-May-2018_16:14:48 7332 20 female R 3 4 13 moral immoralOther U u 1 0.4836 
30-May-2018_16:14:50 7332 20 female R 3 4 14 moral immoralOther U u 1 0.4297 
30-May-2018_16:14:52 7332 20 female R 3 4 15 moral moralSelf Y y 1 0.5479 
30-May-2018_16:14:53 7332 20 female R 3 4 16 moral moralSelf Y y 1 0.5739 
30-May-2018_16:14:55 7332 20 female R 3 4 17 moral moralOther Y u 0 0.5719 
30-May-2018_16:14:56 7332 20 female R 3 4 18 moral immoralSelf U u 1 0.4941 
30-May-2018_16:14:58 7332 20 female R 3 4 19 moral immoralSelf U u 1 0.8700 
30-May-2018_16:15:00 7332 20 female R 3 4 20 moral moralOther Y y 1 0.4083 
30-May-2018_16:15:02 7332 20 female R 3 4 21 moral immoralOther U u 1 0.4703 
30-May-2018_16:15:04 7332 20 female R 3 4 22 moral moralOther Y y 1 0.4704 
30-May-2018_16:15:05 7332 20 female R 3 4 23 moral immoralSelf U u 1 0.4805 
30-May-2018_16:15:07 7332 20 female R 3 4 24 moral moralSelf Y y 1 0.4506 
30-May-2018_16:15:15 7332 20 female R 3 5 1 moral immoralOther U u 1 0.6132 
30-May-2018_16:15:17 7332 20 female R 3 5 2 moral moralOther Y y 1 0.3852 
30-May-2018_16:15:18 7332 20 female R 3 5 3 moral moralOther Y y 1 0.3254 
30-May-2018_16:15:20 7332 20 female R 3 5 4 moral moralOther Y y 1 0.3934 
30-May-2018_16:15:22 7332 20 female R 3 5 5 moral immoralSelf U u 1 0.4056 
30-May-2018_16:15:24 7332 20 female R 3 5 6 moral immoralOther U u 1 0.7836 
30-May-2018_16:15:25 7332 20 female R 3 5 7 moral moralSelf Y y 1 0.5038 
30-May-2018_16:15:27 7332 20 female R 3 5 8 moral immoralOther U u 1 0.5199 
30-May-2018_16:15:28 7332 20 female R 3 5 9 moral immoralSelf U y 0 0.3679 
30-May-2018_16:15:30 7332 20 female R 3 5 10 moral moralSelf Y y 1 0.5380 
30-May-2018_16:15:31 7332 20 female R 3 5 11 moral moralOther Y u 0 0.3902 
30-May-2018_16:15:33 7332 20 female R 3 5 12 moral immoralSelf U u 1 0.4322 
30-May-2018_16:15:35 7332 20 female R 3 5 13 moral moralOther Y y 1 0.4063 
30-May-2018_16:15:37 7332 20 female R 3 5 14 moral moralSelf Y y 1 0.4924 
30-May-2018_16:15:39 7332 20 female R 3 5 15 moral moralSelf Y NA -1 1.1570 
30-May-2018_16:15:41 7332 20 female R 3 5 16 moral immoralSelf U u 1 0.5586 
30-May-2018_16:15:43 7332 20 female R 3 5 17 moral immoralOther U u 1 0.8027 
30-May-2018_16:15:45 7332 20 female R 3 5 18 moral moralOther Y y 1 0.7368 
30-May-2018_16:15:47 7332 20 female R 3 5 19 moral moralSelf Y y 1 0.4948 
30-May-2018_16:15:49 7332 20 female R 3 5 20 moral immoralSelf U u 1 0.8470 
30-May-2018_16:15:50 7332 20 female R 3 5 21 moral moralSelf Y y 1 0.4092 
30-May-2018_16:15:52 7332 20 female R 3 5 22 moral immoralOther U u 1 0.6893 
30-May-2018_16:15:54 7332 20 female R 3 5 23 moral immoralOther U u 1 0.5134 
30-May-2018_16:15:55 7332 20 female R 3 5 24 moral immoralSelf U y 0 0.6214 
Date Sub Age Sex Hand Block Bin Trial Task Shape corrResp Resp ACC RT
30-May-2018_16:18:03 7332 20 female R 4 1 1 self immoralOther J h 0 0.8649 
30-May-2018_16:18:06 7332 20 female R 4 1 2 self immoralSelf H h 1 0.8810 
30-May-2018_16:18:08 7332 20 female R 4 1 3 self moralSelf H h 1 1.0591 
30-May-2018_16:18:10 7332 20 female R 4 1 4 self immoralOther J j 1 0.6233 
30-May-2018_16:18:11 7332 20 female R 4 1 5 self immoralOther J j 1 0.4254 
30-May-2018_16:18:13 7332 20 female R 4 1 6 self moralOther J j 1 0.7294 
30-May-2018_16:18:15 7332 20 female R 4 1 7 self immoralSelf H h 1 0.6816 
30-May-2018_16:18:17 7332 20 female R 4 1 8 self immoralOther J j 1 0.6916 
30-May-2018_16:18:19 7332 20 female R 4 1 9 self immoralSelf H h 1 0.5798 
30-May-2018_16:18:20 7332 20 female R 4 1 10 self moralOther J j 1 0.4178 
30-May-2018_16:18:22 7332 20 female R 4 1 11 self immoralSelf H h 1 0.4299 
30-May-2018_16:18:24 7332 20 female R 4 1 12 self moralOther J j 1 0.4880 
30-May-2018_16:18:25 7332 20 female R 4 1 13 self immoralSelf H h 1 0.4301 
30-May-2018_16:18:27 7332 20 female R 4 1 14 self moralOther J j 1 0.3542 
30-May-2018_16:18:28 7332 20 female R 4 1 15 self immoralOther J j 1 0.6723 
30-May-2018_16:18:30 7332 20 female R 4 1 16 self moralSelf H h 1 0.7604 
30-May-2018_16:18:32 7332 20 female R 4 1 17 self immoralOther J j 1 0.5785 
30-May-2018_16:18:34 7332 20 female R 4 1 18 self moralSelf H h 1 0.3567 
30-May-2018_16:18:36 7332 20 female R 4 1 19 self moralOther J j 1 0.7387 
30-May-2018_16:18:38 7332 20 female R 4 1 20 self moralOther J j 1 0.4569 
30-May-2018_16:18:40 7332 20 female R 4 1 21 self moralSelf H h 1 0.6049 
30-May-2018_16:18:41 7332 20 female R 4 1 22 self moralSelf H h 1 0.4271 
30-May-2018_16:18:43 7332 20 female R 4 1 23 self immoralSelf H h 1 0.7711 
30-May-2018_16:18:45 7332 20 female R 4 1 24 self moralSelf H h 1 0.5013 
30-May-2018_16:18:47 7332 20 female R 4 2 1 self moralOther J j 1 0.5053 
30-May-2018_16:18:48 7332 20 female R 4 2 2 self immoralSelf H h 1 0.5755 
30-May-2018_16:18:50 7332 20 female R 4 2 3 self immoralSelf H h 1 0.4695 
30-May-2018_16:18:51 7332 20 female R 4 2 4 self moralSelf H h 1 0.4116 
30-May-2018_16:18:53 7332 20 female R 4 2 5 self immoralSelf H h 1 0.2677 
30-May-2018_16:18:54 7332 20 female R 4 2 6 self moralSelf H h 1 0.3298 
30-May-2018_16:18:56 7332 20 female R 4 2 7 self moralSelf H h 1 0.4859 
30-May-2018_16:18:58 7332 20 female R 4 2 8 self immoralOther J j 1 0.4560 
30-May-2018_16:19:00 7332 20 female R 4 2 9 self moralOther J j 1 0.9182 
30-May-2018_16:19:02 7332 20 female R 4 2 10 self moralSelf H h 1 0.5802 
30-May-2018_16:19:03 7332 20 female R 4 2 11 self moralSelf H h 1 0.4324 
30-May-2018_16:19:05 7332 20 female R 4 2 12 self moralOther J j 1 0.6505 
30-May-2018_16:19:07 7332 20 female R 4 2 13 self immoralSelf H h 1 0.4405 
30-May-2018_16:19:09 7332 20 female R 4 2 14 self immoralOther J j 1 0.4986 
30-May-2018_16:19:11 7332 20 female R 4 2 15 self immoralSelf H h 1 0.6608 
30-May-2018_16:19:12 7332 20 female R 4 2 16 self immoralSelf H h 1 0.4928 
30-May-2018_16:19:14 7332 20 female R 4 2 17 self immoralOther J j 1 0.5549 
30-May-2018_16:19:16 7332 20 female R 4 2 18 self moralOther J j 1 0.9130 
30-May-2018_16:19:18 7332 20 female R 4 2 19 self moralOther J j 1 0.4811 
30-May-2018_16:19:19 7332 20 female R 4 2 20 self moralOther J j 1 0.3493 
30-May-2018_16:19:21 7332 20 female R 4 2 21 self moralSelf H j 0 0.3033 
30-May-2018_16:19:23 7332 20 female R 4 2 22 self immoralOther J j 1 0.5034 
30-May-2018_16:19:24 7332 20 female R 4 2 23 self immoralOther J j 1 0.6155 
30-May-2018_16:19:26 7332 20 female R 4 2 24 self immoralOther J j 1 0.5517 
30-May-2018_16:19:36 7332 20 female R 4 3 1 self moralSelf H h 1 0.4802 
30-May-2018_16:19:37 7332 20 female R 4 3 2 self moralSelf H h 1 0.3703 
30-May-2018_16:19:39 7332 20 female R 4 3 3 self moralOther J j 1 0.7284 
30-May-2018_16:19:41 7332 20 female R 4 3 4 self moralOther J j 1 0.5744 
30-May-2018_16:19:42 7332 20 female R 4 3 5 self moralSelf H h 1 0.3006 
30-May-2018_16:19:44 7332 20 female R 4 3 6 self immoralSelf H h 1 0.4967 
30-May-2018_16:19:45 7332 20 female R 4 3 7 self immoralSelf H h 1 0.3627 
30-May-2018_16:19:47 7332 20 female R 4 3 8 self moralOther J j 1 0.6748 
30-May-2018_16:19:49 7332 20 female R 4 3 9 self immoralSelf H h 1 0.4589 
30-May-2018_16:19:51 7332 20 female R 4 3 10 self immoralOther J j 1 0.5770 
30-May-2018_16:19:52 7332 20 female R 4 3 11 self immoralOther J j 1 0.4612 
30-May-2018_16:19:54 7332 20 female R 4 3 12 self moralSelf H h 1 0.4912 
30-May-2018_16:19:55 7332 20 female R 4 3 13 self immoralOther J j 1 0.3413 
30-May-2018_16:19:57 7332 20 female R 4 3 14 self immoralOther J j 1 0.4214 
30-May-2018_16:19:59 7332 20 female R 4 3 15 self moralOther J j 1 1.0455 
30-May-2018_16:20:01 7332 20 female R 4 3 16 self moralOther J j 1 0.4957 
30-May-2018_16:20:03 7332 20 female R 4 3 17 self immoralSelf H h 1 0.7298 
30-May-2018_16:20:04 7332 20 female R 4 3 18 self moralOther J j 1 0.6999 
30-May-2018_16:20:06 7332 20 female R 4 3 19 self immoralOther J j 1 0.5699 
30-May-2018_16:20:08 7332 20 female R 4 3 20 self immoralSelf H h 1 0.6901 
30-May-2018_16:20:10 7332 20 female R 4 3 21 self moralSelf H h 1 0.5382 
30-May-2018_16:20:12 7332 20 female R 4 3 22 self moralSelf H h 1 0.3742 
30-May-2018_16:20:13 7332 20 female R 4 3 23 self immoralOther J j 1 0.5144 
30-May-2018_16:20:15 7332 20 female R 4 3 24 self immoralSelf H h 1 0.4885 
30-May-2018_16:20:17 7332 20 female R 4 4 1 self moralOther J j 1 0.5605 
30-May-2018_16:20:18 7332 20 female R 4 4 2 self immoralSelf H h 1 0.3806 
30-May-2018_16:20:20 7332 20 female R 4 4 3 self immoralOther J j 1 0.4268 
30-May-2018_16:20:22 7332 20 female R 4 4 4 self immoralOther J j 1 0.5768 
30-May-2018_16:20:24 7332 20 female R 4 4 5 self immoralSelf H h 1 1.0289 
30-May-2018_16:20:26 7332 20 female R 4 4 6 self moralOther J j 1 0.7251 
30-May-2018_16:20:27 7332 20 female R 4 4 7 self moralOther J j 1 0.5012 
30-May-2018_16:20:29 7332 20 female R 4 4 8 self immoralSelf H h 1 0.7232 
30-May-2018_16:20:31 7332 20 female R 4 4 9 self moralSelf H h 1 0.5514 
30-May-2018_16:20:33 7332 20 female R 4 4 10 self immoralSelf H h 1 0.7175 
30-May-2018_16:20:34 7332 20 female R 4 4 11 self immoralSelf H h 1 0.3876 
30-May-2018_16:20:36 7332 20 female R 4 4 12 self moralSelf H h 1 0.3816 
30-May-2018_16:20:38 7332 20 female R 4 4 13 self moralSelf H h 1 0.5238 
30-May-2018_16:20:39 7332 20 female R 4 4 14 self moralSelf H h 1 0.3518 
30-May-2018_16:20:41 7332 20 female R 4 4 15 self immoralOther J j 1 0.5339 
30-May-2018_16:20:43 7332 20 female R 4 4 16 self immoralSelf H h 1 0.4961 
30-May-2018_16:20:45 7332 20 female R 4 4 17 self moralOther J j 1 0.6981 
30-May-2018_16:20:46 7332 20 female R 4 4 18 self moralSelf H h 1 0.3983 
30-May-2018_16:20:48 7332 20 female R 4 4 19 self moralOther J j 1 0.6583 
30-May-2018_16:20:50 7332 20 female R 4 4 20 self immoralOther J j 1 0.5964 
30-May-2018_16:20:52 7332 20 female R 4 4 21 self immoralOther J j 1 0.4605 
30-May-2018_16:20:53 7332 20 female R 4 4 22 self immoralOther J j 1 0.4027 
30-May-2018_16:20:55 7332 20 female R 4 4 23 self moralOther J j 1 0.6508 
30-May-2018_16:20:57 7332 20 female R 4 4 24 self moralSelf H h 1 0.6449 
30-May-2018_16:21:04 7332 20 female R 4 5 1 self moralOther J j 1 0.6712 
30-May-2018_16:21:05 7332 20 female R 4 5 2 self immoralOther J j 1 0.5854 
30-May-2018_16:21:07 7332 20 female R 4 5 3 self moralOther J j 1 0.5275 
30-May-2018_16:21:08 7332 20 female R 4 5 4 self moralSelf H h 1 0.4035 
30-May-2018_16:21:10 7332 20 female R 4 5 5 self moralOther J h 0 0.2757 
30-May-2018_16:21:11 7332 20 female R 4 5 6 self moralSelf H h 1 0.5918 
30-May-2018_16:21:13 7332 20 female R 4 5 7 self moralSelf H h 1 0.5938 
30-May-2018_16:21:15 7332 20 female R 4 5 8 self immoralOther J j 1 0.5579 
30-May-2018_16:21:17 7332 20 female R 4 5 9 self moralOther J j 1 0.5720 
30-May-2018_16:21:19 7332 20 female R 4 5 10 self immoralSelf H h 1 0.5801 
30-May-2018_16:21:21 7332 20 female R 4 5 11 self immoralOther J j 1 0.5722 
30-May-2018_16:21:22 7332 20 female R 4 5 12 self moralSelf H h 1 0.3944 
30-May-2018_16:21:24 7332 20 female R 4 5 13 self immoralOther J j 1 0.4385 
30-May-2018_16:21:26 7332 20 female R 4 5 14 self moralOther J j 1 0.4626 
30-May-2018_16:21:27 7332 20 female R 4 5 15 self immoralOther J j 1 0.5126 
30-May-2018_16:21:29 7332 20 female R 4 5 16 self moralOther J j 1 0.5147 
30-May-2018_16:21:31 7332 20 female R 4 5 17 self immoralSelf H h 1 0.5748 
30-May-2018_16:21:33 7332 20 female R 4 5 18 self immoralSelf H h 1 0.8650 
30-May-2018_16:21:35 7332 20 female R 4 5 19 self immoralSelf H h 1 0.4271 
30-May-2018_16:21:37 7332 20 female R 4 5 20 self immoralSelf H h 1 0.3452 
30-May-2018_16:21:38 7332 20 female R 4 5 21 self immoralSelf H h 1 0.3693 
30-May-2018_16:21:40 7332 20 female R 4 5 22 self moralSelf H h 1 0.4513 
30-May-2018_16:21:41 7332 20 female R 4 5 23 self moralSelf H h 1 0.2894 
30-May-2018_16:21:43 7332 20 female R 4 5 24 self immoralOther J j 1 0.5695 
Date Sub Age Sex Hand Block Bin Trial Task Shape corrResp Resp ACC RT
30-May-2018_16:24:00 7332 20 female R 5 1 1 self moralOther J NA -1 1.1570 
30-May-2018_16:24:02 7332 20 female R 5 1 2 self moralSelf H h 1 0.7096 
30-May-2018_16:24:04 7332 20 female R 5 1 3 self immoralSelf H h 1 0.5717 
30-May-2018_16:24:06 7332 20 female R 5 1 4 self immoralOther J j 1 0.5118 
30-May-2018_16:24:07 7332 20 female R 5 1 5 self immoralOther J j 1 0.5719 
30-May-2018_16:24:09 7332 20 female R 5 1 6 self moralSelf H h 1 0.5480 
30-May-2018_16:24:11 7332 20 female R 5 1 7 self moralSelf H h 1 0.5321 
30-May-2018_16:24:13 7332 20 female R 5 1 8 self immoralSelf H h 1 0.9101 
30-May-2018_16:24:14 7332 20 female R 5 1 9 self immoralSelf H h 1 0.3023 
30-May-2018_16:24:16 7332 20 female R 5 1 10 self immoralSelf H h 1 0.2864 
30-May-2018_16:24:17 7332 20 female R 5 1 11 self moralOther J h 0 0.2065 
30-May-2018_16:24:19 7332 20 female R 5 1 12 self immoralOther J j 1 0.6185 
30-May-2018_16:24:21 7332 20 female R 5 1 13 self moralSelf H h 1 0.4227 
30-May-2018_16:24:22 7332 20 female R 5 1 14 self moralOther J j 1 0.3788 
30-May-2018_16:24:24 7332 20 female R 5 1 15 self moralOther J j 1 0.4829 
30-May-2018_16:24:26 7332 20 female R 5 1 16 self moralOther J j 1 0.4170 
30-May-2018_16:24:28 7332 20 female R 5 1 17 self immoralSelf H h 1 0.8471 
30-May-2018_16:24:29 7332 20 female R 5 1 18 self immoralSelf H h 1 0.4072 
30-May-2018_16:24:31 7332 20 female R 5 1 19 self immoralOther J j 1 0.6052 
30-May-2018_16:24:33 7332 20 female R 5 1 20 self moralOther J j 1 0.5094 
30-May-2018_16:24:34 7332 20 female R 5 1 21 self moralSelf H h 1 0.4115 
30-May-2018_16:24:36 7332 20 female R 5 1 22 self immoralOther J j 1 0.4115 
30-May-2018_16:24:38 7332 20 female R 5 1 23 self moralSelf H h 1 0.3276 
30-May-2018_16:24:39 7332 20 female R 5 1 24 self immoralOther J j 1 0.3997 
30-May-2018_16:24:41 7332 20 female R 5 2 1 self moralSelf H h 1 0.3478 
30-May-2018_16:24:43 7332 20 female R 5 2 2 self immoralOther J j 1 0.3119 
30-May-2018_16:24:44 7332 20 female R 5 2 3 self immoralSelf H h 1 0.4401 
30-May-2018_16:24:47 7332 20 female R 5 2 4 self moralOther J j 1 0.7482 
30-May-2018_16:24:48 7332 20 female R 5 2 5 self moralOther J j 1 0.5143 
30-May-2018_16:24:50 7332 20 female R 5 2 6 self moralSelf H h 1 0.4724 
30-May-2018_16:24:51 7332 20 female R 5 2 7 self moralOther J j 1 0.2805 
30-May-2018_16:24:53 7332 20 female R 5 2 8 self immoralOther J j 1 0.5005 
30-May-2018_16:24:54 7332 20 female R 5 2 9 self immoralSelf H j 0 0.3546 
30-May-2018_16:24:57 7332 20 female R 5 2 10 self moralOther J NA -1 1.1570 
30-May-2018_16:24:58 7332 20 female R 5 2 11 self immoralSelf H h 1 0.6348 
30-May-2018_16:25:00 7332 20 female R 5 2 12 self immoralSelf H h 1 0.6429 
30-May-2018_16:25:02 7332 20 female R 5 2 13 self moralOther J j 1 0.7450 
30-May-2018_16:25:04 7332 20 female R 5 2 14 self immoralOther J j 1 0.5991 
30-May-2018_16:25:06 7332 20 female R 5 2 15 self moralSelf H h 1 0.4893 
30-May-2018_16:25:07 7332 20 female R 5 2 16 self moralSelf H h 1 0.5214 
30-May-2018_16:25:09 7332 20 female R 5 2 17 self immoralOther J j 1 0.5335 
30-May-2018_16:25:11 7332 20 female R 5 2 18 self immoralOther J j 1 0.5076 
30-May-2018_16:25:13 7332 20 female R 5 2 19 self moralSelf H h 1 0.5237 
30-May-2018_16:25:14 7332 20 female R 5 2 20 self moralOther J j 1 0.4618 
30-May-2018_16:25:16 7332 20 female R 5 2 21 self moralSelf H h 1 0.5118 
30-May-2018_16:25:18 7332 20 female R 5 2 22 self immoralSelf H h 1 0.6079 
30-May-2018_16:25:20 7332 20 female R 5 2 23 self immoralSelf H h 1 0.3161 
30-May-2018_16:25:21 7332 20 female R 5 2 24 self immoralOther J j 1 0.4362 
30-May-2018_16:25:32 7332 20 female R 5 3 1 self moralSelf H h 1 0.6128 
30-May-2018_16:25:34 7332 20 female R 5 3 2 self immoralSelf H h 1 0.5769 
30-May-2018_16:25:36 7332 20 female R 5 3 3 self immoralOther J j 1 0.8370 
30-May-2018_16:25:37 7332 20 female R 5 3 4 self immoralOther J j 1 0.5071 
30-May-2018_16:25:39 7332 20 female R 5 3 5 self moralOther J h 0 0.4732 
30-May-2018_16:25:41 7332 20 female R 5 3 6 self immoralSelf H h 1 0.6373 
30-May-2018_16:25:43 7332 20 female R 5 3 7 self moralOther J j 1 0.6434 
30-May-2018_16:25:45 7332 20 female R 5 3 8 self immoralSelf H NA -1 1.1570 
30-May-2018_16:25:47 7332 20 female R 5 3 9 self moralSelf H h 1 0.6217 
30-May-2018_16:25:49 7332 20 female R 5 3 10 self moralSelf H h 1 0.4698 
30-May-2018_16:25:51 7332 20 female R 5 3 11 self immoralOther J j 1 0.5558 
30-May-2018_16:25:53 7332 20 female R 5 3 12 self immoralOther J j 1 0.8159 
30-May-2018_16:25:55 7332 20 female R 5 3 13 self moralSelf H h 1 0.4861 
30-May-2018_16:25:56 7332 20 female R 5 3 14 self immoralOther J j 1 0.4122 
30-May-2018_16:25:58 7332 20 female R 5 3 15 self immoralOther J j 1 0.4702 
30-May-2018_16:26:00 7332 20 female R 5 3 16 self moralOther J j 1 0.6064 
30-May-2018_16:26:02 7332 20 female R 5 3 17 self moralOther J j 1 0.6085 
30-May-2018_16:26:03 7332 20 female R 5 3 18 self immoralSelf H h 1 0.7106 
30-May-2018_16:26:05 7332 20 female R 5 3 19 self moralOther J j 1 0.5587 
30-May-2018_16:26:07 7332 20 female R 5 3 20 self moralSelf H h 1 0.4288 
30-May-2018_16:26:09 7332 20 female R 5 3 21 self immoralSelf H j 0 0.5649 
30-May-2018_16:26:10 7332 20 female R 5 3 22 self moralSelf H h 1 0.3370 
30-May-2018_16:26:12 7332 20 female R 5 3 23 self immoralSelf H h 1 0.3451 
30-May-2018_16:26:14 7332 20 female R 5 3 24 self moralOther J j 1 0.4972 
30-May-2018_16:26:15 7332 20 female R 5 4 1 self moralSelf H h 1 0.4113 
30-May-2018_16:26:17 7332 20 female R 5 4 2 self immoralOther J j 1 0.4194 
30-May-2018_16:26:18 7332 20 female R 5 4 3 self immoralSelf H h 1 0.2915 
30-May-2018_16:26:20 7332 20 female R 5 4 4 self moralOther J j 1 0.4996 
30-May-2018_16:26:22 7332 20 female R 5 4 5 self immoralSelf H h 1 0.2637 
30-May-2018_16:26:23 7332 20 female R 5 4 6 self moralOther J h 0 0.3437 
30-May-2018_16:26:25 7332 20 female R 5 4 7 self moralSelf H h 1 0.3779 
30-May-2018_16:26:27 7332 20 female R 5 4 8 self immoralOther J j 1 0.8179 
30-May-2018_16:26:28 7332 20 female R 5 4 9 self moralSelf H h 1 0.4000 
30-May-2018_16:26:30 7332 20 female R 5 4 10 self moralOther J j 1 0.3621 
30-May-2018_16:26:31 7332 20 female R 5 4 11 self moralOther J h 0 0.2402 
30-May-2018_16:26:33 7332 20 female R 5 4 12 self moralSelf H h 1 0.4343 
30-May-2018_16:26:34 7332 20 female R 5 4 13 self immoralOther J j 1 0.4003 
30-May-2018_16:26:36 7332 20 female R 5 4 14 self immoralOther J j 1 0.3444 
30-May-2018_16:26:38 7332 20 female R 5 4 15 self moralOther J j 1 0.6806 
30-May-2018_16:26:39 7332 20 female R 5 4 16 self immoralSelf H h 1 0.3947 
30-May-2018_16:26:41 7332 20 female R 5 4 17 self moralOther J h 0 0.4628 
30-May-2018_16:26:42 7332 20 female R 5 4 18 self moralSelf H h 1 0.3248 
30-May-2018_16:26:44 7332 20 female R 5 4 19 self moralSelf H h 1 0.3169 
30-May-2018_16:26:46 7332 20 female R 5 4 20 self immoralOther J j 1 0.4010 
30-May-2018_16:26:48 7332 20 female R 5 4 21 self immoralSelf H h 1 0.6912 
30-May-2018_16:26:49 7332 20 female R 5 4 22 self immoralOther J h 0 0.5233 
30-May-2018_16:26:51 7332 20 female R 5 4 23 self immoralSelf H h 1 0.4434 
30-May-2018_16:26:53 7332 20 female R 5 4 24 self immoralSelf H h 1 0.5535 
30-May-2018_16:27:00 7332 20 female R 5 5 1 self moralSelf H h 1 0.4758 
30-May-2018_16:27:02 7332 20 female R 5 5 2 self moralOther J j 1 0.4860 
30-May-2018_16:27:03 7332 20 female R 5 5 3 self moralSelf H h 1 0.3140 
30-May-2018_16:27:05 7332 20 female R 5 5 4 self moralOther J j 1 0.4522 
30-May-2018_16:27:07 7332 20 female R 5 5 5 self immoralOther J j 1 0.5502 
30-May-2018_16:27:08 7332 20 female R 5 5 6 self immoralOther J j 1 0.4103 
30-May-2018_16:27:09 7332 20 female R 5 5 7 self immoralOther J j 1 0.5464 
30-May-2018_16:27:11 7332 20 female R 5 5 8 self moralOther J j 1 0.3585 
30-May-2018_16:27:13 7332 20 female R 5 5 9 self immoralOther J j 1 0.5686 
30-May-2018_16:27:14 7332 20 female R 5 5 10 self immoralSelf H h 1 0.3967 
30-May-2018_16:27:16 7332 20 female R 5 5 11 self immoralSelf H h 1 0.5108 
30-May-2018_16:27:18 7332 20 female R 5 5 12 self immoralSelf H h 1 0.2909 
30-May-2018_16:27:20 7332 20 female R 5 5 13 self moralOther J j 1 0.5170 
30-May-2018_16:27:22 7332 20 female R 5 5 14 self immoralOther J j 1 0.5831 
30-May-2018_16:27:24 7332 20 female R 5 5 15 self moralOther J j 1 0.3252 
30-May-2018_16:27:25 7332 20 female R 5 5 16 self moralSelf H h 1 0.4153 
30-May-2018_16:27:27 7332 20 female R 5 5 17 self immoralSelf H h 1 0.5634 
30-May-2018_16:27:29 7332 20 female R 5 5 18 self moralSelf H h 1 0.4415 
30-May-2018_16:27:31 7332 20 female R 5 5 19 self moralOther J j 1 0.6096 
30-May-2018_16:27:32 7332 20 female R 5 5 20 self immoralSelf H h 1 0.3698 
30-May-2018_16:27:34 7332 20 female R 5 5 21 self immoralOther J j 1 0.5058 
30-May-2018_16:27:36 7332 20 female R 5 5 22 self moralSelf H h 1 0.3240 
30-May-2018_16:27:37 7332 20 female R 5 5 23 self moralSelf H h 1 0.4360 
30-May-2018_16:27:39 7332 20 female R 5 5 24 self immoralSelf H h 1 0.3402 
Date Sub Age Sex Hand Block Bin Trial Task Shape corrResp Resp ACC RT
30-May-2018_16:29:57 7332 20 female R 6 1 1 moral immoralOther U u 1 0.7880 
30-May-2018_16:29:58 7332 20 female R 6 1 2 moral immoralSelf U y 0 0.6542 
30-May-2018_16:30:00 7332 20 female R 6 1 3 moral moralSelf Y y 1 0.5482 
30-May-2018_16:30:02 7332 20 female R 6 1 4 moral immoralSelf U u 1 0.4823 
30-May-2018_16:30:04 7332 20 female R 6 1 5 moral moralSelf Y y 1 0.7265 
30-May-2018_16:30:05 7332 20 female R 6 1 6 moral moralSelf Y y 1 0.4406 
30-May-2018_16:30:07 7332 20 female R 6 1 7 moral moralSelf Y y 1 0.5047 
30-May-2018_16:30:09 7332 20 female R 6 1 8 moral immoralSelf U u 1 0.6747 
30-May-2018_16:30:11 7332 20 female R 6 1 9 moral moralOther Y y 1 0.6989 
30-May-2018_16:30:12 7332 20 female R 6 1 10 moral moralOther Y y 1 0.3870 
30-May-2018_16:30:14 7332 20 female R 6 1 11 moral immoralOther U u 1 0.5171 
30-May-2018_16:30:16 7332 20 female R 6 1 12 moral immoralOther U u 1 0.4351 
30-May-2018_16:30:18 7332 20 female R 6 1 13 moral immoralSelf U y 0 0.6632 
30-May-2018_16:30:20 7332 20 female R 6 1 14 moral moralOther Y NA -1 1.1570 
30-May-2018_16:30:22 7332 20 female R 6 1 15 moral immoralSelf U u 1 1.0015 
30-May-2018_16:30:24 7332 20 female R 6 1 16 moral moralOther Y y 1 0.4976 
30-May-2018_16:30:26 7332 20 female R 6 1 17 moral immoralOther U u 1 0.5598 
30-May-2018_16:30:28 7332 20 female R 6 1 18 moral immoralOther U u 1 0.4858 
30-May-2018_16:30:29 7332 20 female R 6 1 19 moral immoralOther U u 1 0.3460 
30-May-2018_16:30:31 7332 20 female R 6 1 20 moral immoralSelf U y 0 0.7881 
30-May-2018_16:30:33 7332 20 female R 6 1 21 moral moralOther Y y 1 0.5761 
30-May-2018_16:30:34 7332 20 female R 6 1 22 moral moralOther Y y 1 0.5123 
30-May-2018_16:30:36 7332 20 female R 6 1 23 moral moralSelf Y y 1 0.6263 
30-May-2018_16:30:38 7332 20 female R 6 1 24 moral moralSelf Y y 1 0.4184 
30-May-2018_16:30:40 7332 20 female R 6 2 1 moral immoralSelf U u 1 0.5326 
30-May-2018_16:30:42 7332 20 female R 6 2 2 moral immoralOther U u 1 0.4967 
30-May-2018_16:30:44 7332 20 female R 6 2 3 moral immoralSelf U u 1 0.6688 
30-May-2018_16:30:46 7332 20 female R 6 2 4 moral moralSelf Y y 1 0.5049 
30-May-2018_16:30:48 7332 20 female R 6 2 5 moral moralOther Y y 1 0.8590 
30-May-2018_16:30:49 7332 20 female R 6 2 6 moral moralOther Y y 1 0.5132 
30-May-2018_16:30:51 7332 20 female R 6 2 7 moral immoralOther U u 1 0.6852 
30-May-2018_16:30:53 7332 20 female R 6 2 8 moral moralOther Y y 1 0.9693 
30-May-2018_16:30:55 7332 20 female R 6 2 9 moral immoralOther U u 1 0.7654 
30-May-2018_16:30:57 7332 20 female R 6 2 10 moral moralSelf Y y 1 0.4335 
30-May-2018_16:30:59 7332 20 female R 6 2 11 moral immoralSelf U NA -1 1.1570 
30-May-2018_16:31:01 7332 20 female R 6 2 12 moral immoralOther U u 1 0.6738 
30-May-2018_16:31:03 7332 20 female R 6 2 13 moral moralSelf Y y 1 0.6998 
30-May-2018_16:31:05 7332 20 female R 6 2 14 moral moralSelf Y y 1 0.4600 
30-May-2018_16:31:07 7332 20 female R 6 2 15 moral immoralSelf U u 1 0.7221 
30-May-2018_16:31:08 7332 20 female R 6 2 16 moral moralSelf Y y 1 0.4002 
30-May-2018_16:31:10 7332 20 female R 6 2 17 moral moralOther Y y 1 0.4743 
30-May-2018_16:31:12 7332 20 female R 6 2 18 moral moralSelf Y y 1 0.6404 
30-May-2018_16:31:13 7332 20 female R 6 2 19 moral immoralOther U u 1 0.6125 
30-May-2018_16:31:15 7332 20 female R 6 2 20 moral moralOther Y y 1 0.8626 
30-May-2018_16:31:18 7332 20 female R 6 2 21 moral immoralSelf U u 1 0.9767 
30-May-2018_16:31:20 7332 20 female R 6 2 22 moral moralOther Y y 1 0.8128 
30-May-2018_16:31:22 7332 20 female R 6 2 23 moral immoralOther U u 1 0.5830 
30-May-2018_16:31:24 7332 20 female R 6 2 24 moral immoralSelf U y 0 0.4951 
30-May-2018_16:31:38 7332 20 female R 6 3 1 moral immoralSelf U NA -1 1.1570 
30-May-2018_16:31:39 7332 20 female R 6 3 2 moral moralSelf Y y 1 0.6940 
30-May-2018_16:31:41 7332 20 female R 6 3 3 moral immoralSelf U u 1 0.6441 
30-May-2018_16:31:43 7332 20 female R 6 3 4 moral immoralSelf U u 1 1.0321 
30-May-2018_16:31:46 7332 20 female R 6 3 5 moral immoralOther U u 1 0.9904 
30-May-2018_16:31:48 7332 20 female R 6 3 6 moral moralOther Y u 0 0.9945 
30-May-2018_16:31:49 7332 20 female R 6 3 7 moral immoralOther U u 1 0.4265 
30-May-2018_16:31:51 7332 20 female R 6 3 8 moral immoralOther U u 1 0.5786 
30-May-2018_16:31:52 7332 20 female R 6 3 9 moral moralSelf Y y 1 0.4527 
30-May-2018_16:31:55 7332 20 female R 6 3 10 moral immoralSelf U u 1 1.0429 
30-May-2018_16:31:56 7332 20 female R 6 3 11 moral immoralOther U u 1 0.5090 
30-May-2018_16:31:58 7332 20 female R 6 3 12 moral moralOther Y u 0 0.4891 
30-May-2018_16:32:00 7332 20 female R 6 3 13 moral moralSelf Y y 1 0.4052 
30-May-2018_16:32:02 7332 20 female R 6 3 14 moral immoralSelf U u 1 0.6073 
30-May-2018_16:32:03 7332 20 female R 6 3 15 moral moralSelf Y y 1 0.4254 
30-May-2018_16:32:05 7332 20 female R 6 3 16 moral moralSelf Y y 1 0.3535 
30-May-2018_16:32:06 7332 20 female R 6 3 17 moral moralSelf Y y 1 0.2796 
30-May-2018_16:32:08 7332 20 female R 6 3 18 moral immoralOther U u 1 0.4296 
30-May-2018_16:32:10 7332 20 female R 6 3 19 moral immoralSelf U u 1 0.6197 
30-May-2018_16:32:12 7332 20 female R 6 3 20 moral moralOther Y y 1 0.6438 
30-May-2018_16:32:13 7332 20 female R 6 3 21 moral moralOther Y y 1 0.4060 
30-May-2018_16:32:15 7332 20 female R 6 3 22 moral immoralOther U u 1 0.5241 
30-May-2018_16:32:17 7332 20 female R 6 3 23 moral moralOther Y y 1 0.5861 
30-May-2018_16:32:19 7332 20 female R 6 3 24 moral moralOther Y y 1 0.4423 
30-May-2018_16:32:20 7332 20 female R 6 4 1 moral immoralOther U y 0 0.2663 
30-May-2018_16:32:22 7332 20 female R 6 4 2 moral immoralOther U u 1 0.5663 
30-May-2018_16:32:24 7332 20 female R 6 4 3 moral moralOther Y y 1 0.5385 
30-May-2018_16:32:25 7332 20 female R 6 4 4 moral moralSelf Y y 1 0.2507 
30-May-2018_16:32:27 7332 20 female R 6 4 5 moral immoralSelf U u 1 0.4467 
30-May-2018_16:32:29 7332 20 female R 6 4 6 moral immoralSelf U u 1 0.4328 
30-May-2018_16:32:31 7332 20 female R 6 4 7 moral immoralOther U u 1 0.5389 
30-May-2018_16:32:32 7332 20 female R 6 4 8 moral moralSelf Y y 1 0.4070 
30-May-2018_16:32:34 7332 20 female R 6 4 9 moral moralOther Y u 0 0.5712 
30-May-2018_16:32:36 7332 20 female R 6 4 10 moral immoralSelf U u 1 0.4712 
30-May-2018_16:32:37 7332 20 female R 6 4 11 moral moralSelf Y y 1 0.4014 
30-May-2018_16:32:39 7332 20 female R 6 4 12 moral immoralSelf U u 1 0.5416 
30-May-2018_16:32:41 7332 20 female R 6 4 13 moral immoralOther U u 1 0.5095 
30-May-2018_16:32:42 7332 20 female R 6 4 14 moral moralSelf Y y 1 0.3976 
30-May-2018_16:32:44 7332 20 female R 6 4 15 moral moralOther Y y 1 0.3457 
30-May-2018_16:32:45 7332 20 female R 6 4 16 moral moralOther Y y 1 0.3998 
30-May-2018_16:32:47 7332 20 female R 6 4 17 moral moralOther Y y 1 0.6559 
30-May-2018_16:32:49 7332 20 female R 6 4 18 moral moralOther Y y 1 0.3660 
30-May-2018_16:32:51 7332 20 female R 6 4 19 moral immoralSelf U u 1 0.6121 
30-May-2018_16:32:52 7332 20 female R 6 4 20 moral immoralOther U u 1 0.4941 
30-May-2018_16:32:54 7332 20 female R 6 4 21 moral moralSelf Y y 1 0.4962 
30-May-2018_16:32:56 7332 20 female R 6 4 22 moral immoralSelf U u 1 0.4744 
30-May-2018_16:32:58 7332 20 female R 6 4 23 moral immoralOther U u 1 0.4265 
30-May-2018_16:32:59 7332 20 female R 6 4 24 moral moralSelf Y y 1 0.3047 
30-May-2018_16:33:05 7332 20 female R 6 5 1 moral immoralOther U u 1 0.7129 
30-May-2018_16:33:07 7332 20 female R 6 5 2 moral immoralSelf U u 1 0.6690 
30-May-2018_16:33:09 7332 20 female R 6 5 3 moral immoralSelf U u 1 0.5752 
30-May-2018_16:33:11 7332 20 female R 6 5 4 moral moralOther Y y 1 1.0073 
30-May-2018_16:33:13 7332 20 female R 6 5 5 moral immoralSelf U u 1 0.5334 
30-May-2018_16:33:14 7332 20 female R 6 5 6 moral moralSelf Y y 1 0.3935 
30-May-2018_16:33:16 7332 20 female R 6 5 7 moral moralSelf Y y 1 0.4516 
30-May-2018_16:33:18 7332 20 female R 6 5 8 moral immoralOther U u 1 0.5096 
30-May-2018_16:33:20 7332 20 female R 6 5 9 moral moralOther Y y 1 0.6378 
30-May-2018_16:33:22 7332 20 female R 6 5 10 moral immoralSelf U u 1 0.9138 
30-May-2018_16:33:24 7332 20 female R 6 5 11 moral immoralOther U u 1 0.5860 
30-May-2018_16:33:25 7332 20 female R 6 5 12 moral moralSelf Y y 1 0.4242 
30-May-2018_16:33:27 7332 20 female R 6 5 13 moral moralOther Y y 1 0.3523 
30-May-2018_16:33:28 7332 20 female R 6 5 14 moral immoralSelf U u 1 0.3944 
30-May-2018_16:33:30 7332 20 female R 6 5 15 moral moralOther Y y 1 0.5224 
30-May-2018_16:33:31 7332 20 female R 6 5 16 moral moralSelf Y y 1 0.3585 
30-May-2018_16:33:33 7332 20 female R 6 5 17 moral moralSelf Y y 1 0.3525 
30-May-2018_16:33:35 7332 20 female R 6 5 18 moral moralSelf Y y 1 0.3286 
30-May-2018_16:33:37 7332 20 female R 6 5 19 moral moralOther Y y 1 0.7587 
30-May-2018_16:33:38 7332 20 female R 6 5 20 moral moralOther Y y 1 0.5169 
30-May-2018_16:33:40 7332 20 female R 6 5 21 moral immoralOther U u 1 0.4610 
30-May-2018_16:33:42 7332 20 female R 6 5 22 moral immoralSelf U u 1 0.7591 
30-May-2018_16:33:44 7332 20 female R 6 5 23 moral immoralOther U NA -1 1.1570 
30-May-2018_16:33:46 7332 20 female R 6 5 24 moral immoralOther U u 1 0.4693 
