Date Prac Sub Age Sex Hand Block Bin Trial Shape Label Match CorrResp Resp ACC RT
17-May-2018_13:49:47 Exp 7318 25 female R 1 1 1 moralOther moralOther match m n 0 0.8386 
17-May-2018_13:49:50 Exp 7318 25 female R 1 1 2 moralOther moralSelf mismatch n n 1 0.7448 
17-May-2018_13:49:52 Exp 7318 25 female R 1 1 3 moralSelf moralOther mismatch n n 1 0.9109 
17-May-2018_13:49:55 Exp 7318 25 female R 1 1 4 immoralSelf immoralSelf match m m 1 0.8991 
17-May-2018_13:49:57 Exp 7318 25 female R 1 1 5 moralOther immoralSelf mismatch n n 1 0.7612 
17-May-2018_13:50:00 Exp 7318 25 female R 1 1 6 immoralSelf moralOther mismatch n m 0 0.7554 
17-May-2018_13:50:02 Exp 7318 25 female R 1 1 7 moralSelf moralOther mismatch n n 1 0.7995 
17-May-2018_13:50:04 Exp 7318 25 female R 1 1 8 immoralOther immoralOther match m n 0 0.8256 
17-May-2018_13:50:07 Exp 7318 25 female R 1 1 9 immoralOther immoralOther match m n 0 0.7598 
17-May-2018_13:50:09 Exp 7318 25 female R 1 1 10 immoralOther moralSelf mismatch n n 1 0.7460 
17-May-2018_13:50:11 Exp 7318 25 female R 1 1 11 moralSelf moralSelf match m m 1 0.6960 
17-May-2018_13:50:14 Exp 7318 25 female R 1 1 12 moralSelf moralSelf match m m 1 0.5761 
17-May-2018_13:50:16 Exp 7318 25 female R 1 1 13 immoralOther moralOther mismatch n n 1 0.7683 
17-May-2018_13:50:18 Exp 7318 25 female R 1 1 14 immoralOther moralOther mismatch n n 1 0.7684 
17-May-2018_13:50:21 Exp 7318 25 female R 1 1 15 moralSelf moralSelf match m n 0 0.8565 
17-May-2018_13:50:24 Exp 7318 25 female R 1 1 16 moralSelf moralOther mismatch n n 1 1.0327 
17-May-2018_13:50:26 Exp 7318 25 female R 1 1 17 immoralSelf immoralOther mismatch n n 1 0.7969 
17-May-2018_13:50:29 Exp 7318 25 female R 1 1 18 immoralOther immoralOther match m NA -1 1.0850 
17-May-2018_13:50:31 Exp 7318 25 female R 1 1 19 immoralSelf immoralSelf match m m 1 0.7951 
17-May-2018_13:50:33 Exp 7318 25 female R 1 1 20 immoralSelf immoralOther mismatch n n 1 0.6552 
17-May-2018_13:50:36 Exp 7318 25 female R 1 1 21 moralOther moralSelf mismatch n n 1 0.7035 
17-May-2018_13:50:38 Exp 7318 25 female R 1 1 22 immoralSelf immoralSelf match m m 1 0.6696 
17-May-2018_13:50:41 Exp 7318 25 female R 1 1 23 moralOther moralOther match m n 0 0.8017 
17-May-2018_13:50:43 Exp 7318 25 female R 1 1 24 moralOther moralOther match m m 1 0.7239 
17-May-2018_13:50:45 Exp 7318 25 female R 1 2 1 moralSelf immoralOther mismatch n n 1 0.5959 
17-May-2018_13:50:48 Exp 7318 25 female R 1 2 2 immoralOther immoralOther match m m 1 0.9041 
17-May-2018_13:50:50 Exp 7318 25 female R 1 2 3 moralSelf moralSelf match m m 1 0.6062 
17-May-2018_13:50:53 Exp 7318 25 female R 1 2 4 immoralOther immoralOther match m NA -1 1.0850 
17-May-2018_13:50:55 Exp 7318 25 female R 1 2 5 immoralOther moralOther mismatch n m 0 0.5865 
17-May-2018_13:50:57 Exp 7318 25 female R 1 2 6 moralOther moralOther match m m 1 0.6646 
17-May-2018_13:50:59 Exp 7318 25 female R 1 2 7 immoralOther immoralSelf mismatch n n 1 0.6468 
17-May-2018_13:51:01 Exp 7318 25 female R 1 2 8 immoralSelf moralSelf mismatch n m 0 0.5449 
17-May-2018_13:51:04 Exp 7318 25 female R 1 2 9 immoralSelf immoralSelf match m m 1 0.7831 
17-May-2018_13:51:06 Exp 7318 25 female R 1 2 10 immoralSelf immoralSelf match m m 1 0.5251 
17-May-2018_13:51:08 Exp 7318 25 female R 1 2 11 moralSelf moralSelf match m m 1 0.5592 
17-May-2018_13:51:10 Exp 7318 25 female R 1 2 12 immoralSelf moralSelf mismatch n m 0 0.5934 
17-May-2018_13:51:13 Exp 7318 25 female R 1 2 13 immoralSelf immoralSelf match m m 1 0.6215 
17-May-2018_13:51:15 Exp 7318 25 female R 1 2 14 moralOther moralOther match m n 0 0.7237 
17-May-2018_13:51:18 Exp 7318 25 female R 1 2 15 moralSelf immoralSelf mismatch n n 1 0.9496 
17-May-2018_13:51:20 Exp 7318 25 female R 1 2 16 immoralSelf immoralOther mismatch n n 1 0.9619 
17-May-2018_13:51:23 Exp 7318 25 female R 1 2 17 moralOther immoralOther mismatch n m 0 0.7481 
17-May-2018_13:51:25 Exp 7318 25 female R 1 2 18 moralOther moralOther match m m 1 0.6882 
17-May-2018_13:51:27 Exp 7318 25 female R 1 2 19 moralSelf moralSelf match m m 1 0.7763 
17-May-2018_13:51:30 Exp 7318 25 female R 1 2 20 moralOther immoralOther mismatch n m 0 0.8564 
17-May-2018_13:51:32 Exp 7318 25 female R 1 2 21 immoralOther immoralOther match m m 1 0.7046 
17-May-2018_13:51:35 Exp 7318 25 female R 1 2 22 immoralOther moralSelf mismatch n n 1 0.8787 
17-May-2018_13:51:37 Exp 7318 25 female R 1 2 23 moralOther moralSelf mismatch n n 1 0.7449 
17-May-2018_13:51:40 Exp 7318 25 female R 1 2 24 moralSelf moralOther mismatch n n 1 0.9030 
17-May-2018_13:51:42 Exp 7318 25 female R 1 3 1 moralSelf immoralOther mismatch n n 1 0.9410 
17-May-2018_13:51:45 Exp 7318 25 female R 1 3 2 moralOther immoralOther mismatch n n 1 0.8114 
17-May-2018_13:51:47 Exp 7318 25 female R 1 3 3 moralOther moralOther match m n 0 0.5634 
17-May-2018_13:51:49 Exp 7318 25 female R 1 3 4 immoralSelf immoralOther mismatch n n 1 0.6616 
17-May-2018_13:51:52 Exp 7318 25 female R 1 3 5 moralOther moralOther match m m 1 0.8437 
17-May-2018_13:51:54 Exp 7318 25 female R 1 3 6 immoralSelf immoralSelf match m m 1 0.7658 
17-May-2018_13:51:56 Exp 7318 25 female R 1 3 7 immoralOther immoralOther match m m 1 0.7519 
17-May-2018_13:51:58 Exp 7318 25 female R 1 3 8 immoralOther immoralOther match m m 1 0.5242 
17-May-2018_13:52:01 Exp 7318 25 female R 1 3 9 immoralSelf immoralOther mismatch n n 1 0.7423 
17-May-2018_13:52:03 Exp 7318 25 female R 1 3 10 immoralSelf immoralSelf match m m 1 0.7403 
17-May-2018_13:52:05 Exp 7318 25 female R 1 3 11 moralSelf moralSelf match m m 1 0.6504 
17-May-2018_13:52:08 Exp 7318 25 female R 1 3 12 moralSelf moralOther mismatch n n 1 0.7147 
17-May-2018_13:52:10 Exp 7318 25 female R 1 3 13 moralOther moralOther match m m 1 0.6868 
17-May-2018_13:52:13 Exp 7318 25 female R 1 3 14 moralOther immoralOther mismatch n n 1 0.8008 
17-May-2018_13:52:15 Exp 7318 25 female R 1 3 15 immoralSelf moralSelf mismatch n m 0 0.6910 
17-May-2018_13:52:17 Exp 7318 25 female R 1 3 16 immoralOther immoralSelf mismatch n n 1 0.6671 
17-May-2018_13:52:19 Exp 7318 25 female R 1 3 17 immoralSelf immoralSelf match m m 1 0.5934 
17-May-2018_13:52:22 Exp 7318 25 female R 1 3 18 moralOther immoralOther mismatch n n 1 0.8774 
17-May-2018_13:52:24 Exp 7318 25 female R 1 3 19 moralSelf moralOther mismatch n n 1 0.9676 
17-May-2018_13:52:27 Exp 7318 25 female R 1 3 20 immoralOther moralOther mismatch n n 1 0.7837 
17-May-2018_13:52:29 Exp 7318 25 female R 1 3 21 immoralOther immoralOther match m n 0 0.8298 
17-May-2018_13:52:32 Exp 7318 25 female R 1 3 22 moralSelf moralSelf match m n 0 0.7219 
17-May-2018_13:52:34 Exp 7318 25 female R 1 3 23 immoralOther immoralSelf mismatch n n 1 0.7241 
17-May-2018_13:52:36 Exp 7318 25 female R 1 3 24 moralSelf moralSelf match m m 1 0.5582 
17-May-2018_13:52:49 Exp 7318 25 female R 1 4 1 moralSelf moralSelf match m m 1 0.7249 
17-May-2018_13:52:52 Exp 7318 25 female R 1 4 2 immoralOther immoralOther match m m 1 0.9432 
17-May-2018_13:52:54 Exp 7318 25 female R 1 4 3 immoralSelf immoralSelf match m m 1 0.6293 
17-May-2018_13:52:57 Exp 7318 25 female R 1 4 4 immoralSelf moralOther mismatch n n 1 0.8094 
17-May-2018_13:52:59 Exp 7318 25 female R 1 4 5 moralOther moralOther match m m 1 0.7055 
17-May-2018_13:53:01 Exp 7318 25 female R 1 4 6 moralOther moralSelf mismatch n n 1 0.7197 
17-May-2018_13:53:04 Exp 7318 25 female R 1 4 7 immoralSelf moralSelf mismatch n n 1 0.7777 
17-May-2018_13:53:06 Exp 7318 25 female R 1 4 8 immoralOther moralSelf mismatch n n 1 0.6319 
17-May-2018_13:53:08 Exp 7318 25 female R 1 4 9 immoralOther immoralOther match m n 0 0.7641 
17-May-2018_13:53:11 Exp 7318 25 female R 1 4 10 immoralSelf immoralSelf match m m 1 0.7181 
17-May-2018_13:53:13 Exp 7318 25 female R 1 4 11 immoralSelf moralOther mismatch n n 1 0.7924 
17-May-2018_13:53:16 Exp 7318 25 female R 1 4 12 immoralOther immoralSelf mismatch n n 1 0.7804 
17-May-2018_13:53:18 Exp 7318 25 female R 1 4 13 moralOther moralOther match m m 1 0.7946 
17-May-2018_13:53:20 Exp 7318 25 female R 1 4 14 immoralSelf immoralSelf match m m 1 0.6867 
17-May-2018_13:53:23 Exp 7318 25 female R 1 4 15 moralSelf immoralSelf mismatch n n 1 0.6168 
17-May-2018_13:53:25 Exp 7318 25 female R 1 4 16 moralOther moralOther match m m 1 0.6969 
17-May-2018_13:53:27 Exp 7318 25 female R 1 4 17 moralOther immoralSelf mismatch n n 1 0.6491 
17-May-2018_13:53:30 Exp 7318 25 female R 1 4 18 moralSelf immoralSelf mismatch n n 1 0.8732 
17-May-2018_13:53:32 Exp 7318 25 female R 1 4 19 moralOther immoralSelf mismatch n n 1 0.7174 
17-May-2018_13:53:34 Exp 7318 25 female R 1 4 20 immoralOther immoralOther match m m 1 0.6557 
17-May-2018_13:53:37 Exp 7318 25 female R 1 4 21 moralSelf moralSelf match m m 1 0.7756 
17-May-2018_13:53:39 Exp 7318 25 female R 1 4 22 moralSelf moralSelf match m m 1 0.6238 
17-May-2018_13:53:41 Exp 7318 25 female R 1 4 23 moralSelf immoralOther mismatch n n 1 0.7819 
17-May-2018_13:53:44 Exp 7318 25 female R 1 4 24 immoralOther immoralSelf mismatch n n 1 0.8360 
17-May-2018_13:53:46 Exp 7318 25 female R 1 5 1 moralOther moralOther match m m 1 0.6322 
17-May-2018_13:53:48 Exp 7318 25 female R 1 5 2 immoralSelf immoralSelf match m m 1 0.6043 
17-May-2018_13:53:51 Exp 7318 25 female R 1 5 3 immoralSelf immoralOther mismatch n m 0 0.6545 
17-May-2018_13:53:53 Exp 7318 25 female R 1 5 4 moralSelf moralSelf match m m 1 0.6386 
17-May-2018_13:53:55 Exp 7318 25 female R 1 5 5 immoralSelf immoralSelf match m m 1 0.7527 
17-May-2018_13:53:57 Exp 7318 25 female R 1 5 6 immoralSelf immoralSelf match m m 1 0.5168 
17-May-2018_13:54:00 Exp 7318 25 female R 1 5 7 immoralOther immoralOther match m m 1 0.7209 
17-May-2018_13:54:02 Exp 7318 25 female R 1 5 8 moralOther immoralSelf mismatch n n 1 0.6910 
17-May-2018_13:54:04 Exp 7318 25 female R 1 5 9 moralOther moralOther match m m 1 0.6672 
17-May-2018_13:54:07 Exp 7318 25 female R 1 5 10 immoralOther immoralSelf mismatch n n 1 0.6313 
17-May-2018_13:54:09 Exp 7318 25 female R 1 5 11 immoralSelf moralSelf mismatch n m 0 0.5714 
17-May-2018_13:54:11 Exp 7318 25 female R 1 5 12 moralSelf immoralSelf mismatch n n 1 0.7076 
17-May-2018_13:54:14 Exp 7318 25 female R 1 5 13 immoralOther immoralOther match m m 1 0.8477 
17-May-2018_13:54:16 Exp 7318 25 female R 1 5 14 moralOther moralSelf mismatch n n 1 0.6159 
17-May-2018_13:54:18 Exp 7318 25 female R 1 5 15 moralSelf moralOther mismatch n n 1 0.9119 
17-May-2018_13:54:21 Exp 7318 25 female R 1 5 16 immoralOther immoralOther match m n 0 0.7641 
17-May-2018_13:54:23 Exp 7318 25 female R 1 5 17 moralOther moralSelf mismatch n n 1 0.6222 
17-May-2018_13:54:25 Exp 7318 25 female R 1 5 18 moralSelf immoralOther mismatch n n 1 0.6284 
17-May-2018_13:54:28 Exp 7318 25 female R 1 5 19 immoralSelf immoralOther mismatch n n 1 0.6404 
17-May-2018_13:54:30 Exp 7318 25 female R 1 5 20 moralSelf moralSelf match m m 1 0.5466 
17-May-2018_13:54:32 Exp 7318 25 female R 1 5 21 immoralOther immoralSelf mismatch n n 1 0.6087 
17-May-2018_13:54:34 Exp 7318 25 female R 1 5 22 moralSelf moralSelf match m m 1 0.7368 
17-May-2018_13:54:37 Exp 7318 25 female R 1 5 23 moralOther moralOther match m m 1 0.7530 
17-May-2018_13:54:39 Exp 7318 25 female R 1 5 24 immoralOther immoralSelf mismatch n n 1 0.5412 
17-May-2018_13:54:45 Exp 7318 25 female R 2 1 1 immoralOther immoralOther match m n 0 0.9975 
17-May-2018_13:54:47 Exp 7318 25 female R 2 1 2 moralOther immoralOther mismatch n m 0 0.7276 
17-May-2018_13:54:49 Exp 7318 25 female R 2 1 3 moralSelf moralSelf match m m 1 0.5917 
17-May-2018_13:54:52 Exp 7318 25 female R 2 1 4 moralOther immoralSelf mismatch n m 0 0.7879 
17-May-2018_13:54:54 Exp 7318 25 female R 2 1 5 moralOther moralOther match m m 1 0.7120 
17-May-2018_13:54:56 Exp 7318 25 female R 2 1 6 immoralSelf immoralSelf match m m 1 0.7481 
17-May-2018_13:54:59 Exp 7318 25 female R 2 1 7 immoralOther immoralSelf mismatch n n 1 0.7442 
17-May-2018_13:55:01 Exp 7318 25 female R 2 1 8 immoralSelf immoralSelf match m m 1 0.5344 
17-May-2018_13:55:03 Exp 7318 25 female R 2 1 9 immoralSelf moralOther mismatch n n 1 0.7265 
17-May-2018_13:55:05 Exp 7318 25 female R 2 1 10 moralSelf moralSelf match m m 1 0.5527 
17-May-2018_13:55:08 Exp 7318 25 female R 2 1 11 immoralSelf moralOther mismatch n n 1 0.6768 
17-May-2018_13:55:10 Exp 7318 25 female R 2 1 12 immoralOther immoralOther match m m 1 0.8649 
17-May-2018_13:55:13 Exp 7318 25 female R 2 1 13 moralSelf immoralSelf mismatch n m 0 0.7750 
17-May-2018_13:55:15 Exp 7318 25 female R 2 1 14 immoralSelf immoralSelf match m m 1 0.7272 
17-May-2018_13:55:17 Exp 7318 25 female R 2 1 15 moralOther immoralSelf mismatch n n 1 0.6073 
17-May-2018_13:55:20 Exp 7318 25 female R 2 1 16 moralSelf immoralSelf mismatch n n 1 0.9834 
17-May-2018_13:55:22 Exp 7318 25 female R 2 1 17 immoralOther moralOther mismatch n n 1 0.9416 
17-May-2018_13:55:25 Exp 7318 25 female R 2 1 18 moralSelf moralSelf match m m 1 0.6997 
17-May-2018_13:55:27 Exp 7318 25 female R 2 1 19 moralSelf immoralOther mismatch n n 1 0.7059 
17-May-2018_13:55:29 Exp 7318 25 female R 2 1 20 moralOther moralOther match m m 1 0.6960 
17-May-2018_13:55:32 Exp 7318 25 female R 2 1 21 immoralSelf moralOther mismatch n n 1 0.6882 
17-May-2018_13:55:34 Exp 7318 25 female R 2 1 22 immoralOther immoralOther match m m 1 0.8402 
17-May-2018_13:55:36 Exp 7318 25 female R 2 1 23 immoralOther immoralSelf mismatch n n 1 0.6024 
17-May-2018_13:55:39 Exp 7318 25 female R 2 1 24 moralOther moralOther match m m 1 0.6525 
17-May-2018_13:55:41 Exp 7318 25 female R 2 2 1 moralOther moralOther match m m 1 0.5887 
17-May-2018_13:55:43 Exp 7318 25 female R 2 2 2 moralOther immoralSelf mismatch n n 1 0.5368 
17-May-2018_13:55:45 Exp 7318 25 female R 2 2 3 moralSelf moralSelf match m m 1 0.6409 
17-May-2018_13:55:47 Exp 7318 25 female R 2 2 4 immoralSelf immoralSelf match m m 1 0.6110 
17-May-2018_13:55:50 Exp 7318 25 female R 2 2 5 immoralSelf immoralSelf match m m 1 0.6832 
17-May-2018_13:55:52 Exp 7318 25 female R 2 2 6 immoralOther immoralSelf mismatch n n 1 0.6053 
17-May-2018_13:55:54 Exp 7318 25 female R 2 2 7 moralOther immoralSelf mismatch n n 1 0.5754 
17-May-2018_13:55:57 Exp 7318 25 female R 2 2 8 moralSelf immoralSelf mismatch n n 1 0.7036 
17-May-2018_13:55:59 Exp 7318 25 female R 2 2 9 immoralOther moralSelf mismatch n n 1 0.7816 
17-May-2018_13:56:01 Exp 7318 25 female R 2 2 10 moralOther moralOther match m n 0 0.6519 
17-May-2018_13:56:04 Exp 7318 25 female R 2 2 11 immoralSelf moralSelf mismatch n n 1 0.7079 
17-May-2018_13:56:06 Exp 7318 25 female R 2 2 12 moralSelf immoralSelf mismatch n n 1 0.6320 
17-May-2018_13:56:08 Exp 7318 25 female R 2 2 13 immoralOther immoralSelf mismatch n n 1 0.6042 
17-May-2018_13:56:10 Exp 7318 25 female R 2 2 14 moralSelf moralSelf match m m 1 0.6783 
17-May-2018_13:56:13 Exp 7318 25 female R 2 2 15 moralOther moralSelf mismatch n n 1 0.5764 
17-May-2018_13:56:15 Exp 7318 25 female R 2 2 16 moralSelf moralSelf match m m 1 0.5686 
17-May-2018_13:56:17 Exp 7318 25 female R 2 2 17 immoralOther immoralOther match m n 0 0.6087 
17-May-2018_13:56:19 Exp 7318 25 female R 2 2 18 moralSelf immoralOther mismatch n n 1 0.6809 
17-May-2018_13:56:22 Exp 7318 25 female R 2 2 19 immoralSelf immoralSelf match m m 1 0.7309 
17-May-2018_13:56:24 Exp 7318 25 female R 2 2 20 moralOther moralOther match m n 0 0.5230 
17-May-2018_13:56:26 Exp 7318 25 female R 2 2 21 immoralOther immoralOther match m m 1 0.5972 
17-May-2018_13:56:28 Exp 7318 25 female R 2 2 22 immoralSelf moralSelf mismatch n n 1 0.6893 
17-May-2018_13:56:31 Exp 7318 25 female R 2 2 23 immoralOther immoralOther match m m 1 0.6254 
17-May-2018_13:56:33 Exp 7318 25 female R 2 2 24 immoralSelf immoralOther mismatch n n 1 0.6956 
17-May-2018_13:56:35 Exp 7318 25 female R 2 3 1 immoralOther immoralOther match m m 1 0.6717 
17-May-2018_13:56:37 Exp 7318 25 female R 2 3 2 moralOther immoralSelf mismatch n n 1 0.5959 
17-May-2018_13:56:40 Exp 7318 25 female R 2 3 3 immoralSelf immoralSelf match m n 0 0.6400 
17-May-2018_13:56:42 Exp 7318 25 female R 2 3 4 immoralOther immoralSelf mismatch n n 1 0.5700 
17-May-2018_13:56:44 Exp 7318 25 female R 2 3 5 moralOther immoralOther mismatch n n 1 0.8262 
17-May-2018_13:56:47 Exp 7318 25 female R 2 3 6 moralOther moralOther match m m 1 0.7284 
17-May-2018_13:56:49 Exp 7318 25 female R 2 3 7 immoralOther immoralOther match m m 1 0.8726 
17-May-2018_13:56:52 Exp 7318 25 female R 2 3 8 moralSelf moralOther mismatch n n 1 0.7406 
17-May-2018_13:56:54 Exp 7318 25 female R 2 3 9 immoralSelf immoralOther mismatch n m 0 0.7068 
17-May-2018_13:56:57 Exp 7318 25 female R 2 3 10 immoralSelf moralSelf mismatch n NA -1 1.0850 
17-May-2018_13:56:59 Exp 7318 25 female R 2 3 11 moralSelf moralOther mismatch n n 1 0.8110 
17-May-2018_13:57:01 Exp 7318 25 female R 2 3 12 moralSelf moralSelf match m m 1 0.6191 
17-May-2018_13:57:04 Exp 7318 25 female R 2 3 13 moralSelf immoralSelf mismatch n n 1 0.7773 
17-May-2018_13:57:06 Exp 7318 25 female R 2 3 14 immoralOther moralSelf mismatch n n 1 0.6794 
17-May-2018_13:57:08 Exp 7318 25 female R 2 3 15 moralSelf moralSelf match m m 1 0.5696 
17-May-2018_13:57:11 Exp 7318 25 female R 2 3 16 immoralSelf immoralSelf match m m 1 0.7700 
17-May-2018_13:57:13 Exp 7318 25 female R 2 3 17 immoralOther immoralOther match m m 1 0.8818 
17-May-2018_13:57:16 Exp 7318 25 female R 2 3 18 immoralSelf immoralOther mismatch n n 1 0.8280 
17-May-2018_13:57:18 Exp 7318 25 female R 2 3 19 immoralOther moralOther mismatch n m 0 0.7361 
17-May-2018_13:57:20 Exp 7318 25 female R 2 3 20 moralOther moralOther match m m 1 0.5922 
17-May-2018_13:57:23 Exp 7318 25 female R 2 3 21 immoralSelf immoralSelf match m m 1 0.7884 
17-May-2018_13:57:25 Exp 7318 25 female R 2 3 22 moralOther moralOther match m m 1 0.5686 
17-May-2018_13:57:27 Exp 7318 25 female R 2 3 23 moralOther immoralOther mismatch n m 0 0.5847 
17-May-2018_13:57:29 Exp 7318 25 female R 2 3 24 moralSelf moralSelf match m m 1 0.5827 
17-May-2018_13:57:35 Exp 7318 25 female R 2 4 1 moralSelf moralSelf match m m 1 0.7330 
17-May-2018_13:57:37 Exp 7318 25 female R 2 4 2 moralOther immoralSelf mismatch n n 1 0.5732 
17-May-2018_13:57:39 Exp 7318 25 female R 2 4 3 immoralSelf immoralSelf match m m 1 0.5893 
17-May-2018_13:57:41 Exp 7318 25 female R 2 4 4 moralOther immoralOther mismatch n n 1 0.5774 
17-May-2018_13:57:44 Exp 7318 25 female R 2 4 5 immoralOther immoralSelf mismatch n n 1 0.9116 
17-May-2018_13:57:46 Exp 7318 25 female R 2 4 6 moralSelf immoralOther mismatch n n 1 0.6597 
17-May-2018_13:57:48 Exp 7318 25 female R 2 4 7 immoralOther immoralOther match m m 1 0.6899 
17-May-2018_13:57:51 Exp 7318 25 female R 2 4 8 moralOther moralOther match m m 1 0.7220 
17-May-2018_13:57:53 Exp 7318 25 female R 2 4 9 immoralOther moralSelf mismatch n n 1 0.5881 
17-May-2018_13:57:55 Exp 7318 25 female R 2 4 10 moralOther immoralSelf mismatch n n 1 0.6322 
17-May-2018_13:57:57 Exp 7318 25 female R 2 4 11 moralSelf moralSelf match m m 1 0.5644 
17-May-2018_13:58:00 Exp 7318 25 female R 2 4 12 immoralOther immoralOther match m m 1 0.6466 
17-May-2018_13:58:02 Exp 7318 25 female R 2 4 13 immoralSelf moralOther mismatch n n 1 0.5606 
17-May-2018_13:58:04 Exp 7318 25 female R 2 4 14 immoralSelf immoralSelf match m m 1 0.6587 
17-May-2018_13:58:07 Exp 7318 25 female R 2 4 15 moralSelf immoralSelf mismatch n m 0 0.7529 
17-May-2018_13:58:09 Exp 7318 25 female R 2 4 16 moralOther moralOther match m m 1 0.6930 
17-May-2018_13:58:11 Exp 7318 25 female R 2 4 17 moralOther moralOther match m m 1 0.5732 
17-May-2018_13:58:13 Exp 7318 25 female R 2 4 18 immoralSelf immoralSelf match m m 1 0.5413 
17-May-2018_13:58:16 Exp 7318 25 female R 2 4 19 immoralSelf moralOther mismatch n n 1 0.7633 
17-May-2018_13:58:18 Exp 7318 25 female R 2 4 20 moralSelf moralSelf match m m 1 0.6375 
17-May-2018_13:58:20 Exp 7318 25 female R 2 4 21 immoralSelf immoralOther mismatch n m 0 0.6716 
17-May-2018_13:58:23 Exp 7318 25 female R 2 4 22 immoralOther moralOther mismatch n n 1 0.6277 
17-May-2018_13:58:25 Exp 7318 25 female R 2 4 23 immoralOther immoralOther match m m 1 0.8560 
17-May-2018_13:58:27 Exp 7318 25 female R 2 4 24 moralSelf immoralSelf mismatch n n 1 0.8243 
17-May-2018_13:58:30 Exp 7318 25 female R 2 5 1 moralSelf moralOther mismatch n n 1 0.7902 
17-May-2018_13:58:32 Exp 7318 25 female R 2 5 2 moralOther moralOther match m m 1 0.7063 
17-May-2018_13:58:35 Exp 7318 25 female R 2 5 3 immoralOther immoralOther match m m 1 0.7364 
17-May-2018_13:58:37 Exp 7318 25 female R 2 5 4 moralOther immoralOther mismatch n NA -1 1.0850 
17-May-2018_13:58:40 Exp 7318 25 female R 2 5 5 moralOther moralOther match m m 1 0.7947 
17-May-2018_13:58:42 Exp 7318 25 female R 2 5 6 immoralSelf immoralSelf match m m 1 0.8469 
17-May-2018_13:58:44 Exp 7318 25 female R 2 5 7 moralOther moralSelf mismatch n n 1 0.6490 
17-May-2018_13:58:47 Exp 7318 25 female R 2 5 8 immoralSelf immoralOther mismatch n m 0 0.5771 
17-May-2018_13:58:49 Exp 7318 25 female R 2 5 9 immoralSelf immoralSelf match m m 1 0.5212 
17-May-2018_13:58:51 Exp 7318 25 female R 2 5 10 moralSelf moralSelf match m m 1 0.7073 
17-May-2018_13:58:53 Exp 7318 25 female R 2 5 11 immoralSelf immoralSelf match m m 1 0.5355 
17-May-2018_13:58:56 Exp 7318 25 female R 2 5 12 moralOther moralOther match m m 1 0.6716 
17-May-2018_13:58:58 Exp 7318 25 female R 2 5 13 moralSelf moralOther mismatch n n 1 0.6838 
17-May-2018_13:59:00 Exp 7318 25 female R 2 5 14 immoralOther moralSelf mismatch n n 1 0.6859 
17-May-2018_13:59:02 Exp 7318 25 female R 2 5 15 immoralOther moralSelf mismatch n n 1 0.6800 
17-May-2018_13:59:05 Exp 7318 25 female R 2 5 16 immoralOther moralOther mismatch n n 1 0.6182 
17-May-2018_13:59:07 Exp 7318 25 female R 2 5 17 moralSelf moralSelf match m m 1 0.5443 
17-May-2018_13:59:09 Exp 7318 25 female R 2 5 18 moralSelf moralOther mismatch n n 1 0.6944 
17-May-2018_13:59:12 Exp 7318 25 female R 2 5 19 immoralSelf moralSelf mismatch n n 1 0.6465 
17-May-2018_13:59:14 Exp 7318 25 female R 2 5 20 immoralSelf moralSelf mismatch n n 1 0.5927 
17-May-2018_13:59:16 Exp 7318 25 female R 2 5 21 moralSelf moralSelf match m m 1 0.5088 
17-May-2018_13:59:18 Exp 7318 25 female R 2 5 22 moralOther immoralOther mismatch n n 1 0.5529 
17-May-2018_13:59:20 Exp 7318 25 female R 2 5 23 immoralOther immoralOther match m n 0 0.5330 
17-May-2018_13:59:22 Exp 7318 25 female R 2 5 24 immoralOther immoralOther match m m 1 0.4931 
17-May-2018_13:59:28 Exp 7318 25 female R 3 1 1 immoralSelf immoralSelf match m m 1 0.7774 
17-May-2018_13:59:30 Exp 7318 25 female R 3 1 2 immoralOther immoralOther match m m 1 0.6156 
17-May-2018_13:59:32 Exp 7318 25 female R 3 1 3 immoralOther immoralOther match m n 0 0.7437 
17-May-2018_13:59:35 Exp 7318 25 female R 3 1 4 immoralOther immoralSelf mismatch n n 1 0.8858 
17-May-2018_13:59:37 Exp 7318 25 female R 3 1 5 moralOther moralOther match m m 1 0.7120 
17-May-2018_13:59:40 Exp 7318 25 female R 3 1 6 immoralOther moralOther mismatch n n 1 0.7802 
17-May-2018_13:59:42 Exp 7318 25 female R 3 1 7 immoralSelf moralSelf mismatch n m 0 0.5782 
17-May-2018_13:59:44 Exp 7318 25 female R 3 1 8 moralOther immoralSelf mismatch n n 1 0.9683 
17-May-2018_13:59:47 Exp 7318 25 female R 3 1 9 moralOther moralSelf mismatch n m 0 0.7206 
17-May-2018_13:59:49 Exp 7318 25 female R 3 1 10 immoralSelf moralOther mismatch n n 1 0.7546 
17-May-2018_13:59:51 Exp 7318 25 female R 3 1 11 moralSelf immoralOther mismatch n n 1 0.6948 
17-May-2018_13:59:54 Exp 7318 25 female R 3 1 12 immoralSelf immoralSelf match m m 1 0.6149 
17-May-2018_13:59:56 Exp 7318 25 female R 3 1 13 immoralOther moralOther mismatch n n 1 0.6550 
17-May-2018_13:59:58 Exp 7318 25 female R 3 1 14 moralSelf moralSelf match m m 1 0.6392 
17-May-2018_14:00:01 Exp 7318 25 female R 3 1 15 moralSelf moralSelf match m m 1 0.6654 
17-May-2018_14:00:03 Exp 7318 25 female R 3 1 16 moralOther moralOther match m n 0 0.8554 
17-May-2018_14:00:06 Exp 7318 25 female R 3 1 17 moralSelf immoralOther mismatch n NA -1 1.0850 
17-May-2018_14:00:08 Exp 7318 25 female R 3 1 18 moralOther immoralSelf mismatch n n 1 0.6256 
17-May-2018_14:00:10 Exp 7318 25 female R 3 1 19 immoralSelf immoralSelf match m m 1 0.6638 
17-May-2018_14:00:13 Exp 7318 25 female R 3 1 20 moralSelf moralSelf match m m 1 0.6540 
17-May-2018_14:00:15 Exp 7318 25 female R 3 1 21 immoralSelf moralOther mismatch n n 1 0.7261 
17-May-2018_14:00:17 Exp 7318 25 female R 3 1 22 moralOther moralOther match m m 1 0.6802 
17-May-2018_14:00:19 Exp 7318 25 female R 3 1 23 immoralOther immoralOther match m n 0 0.5544 
17-May-2018_14:00:22 Exp 7318 25 female R 3 1 24 moralSelf moralOther mismatch n n 1 0.7825 
17-May-2018_14:00:24 Exp 7318 25 female R 3 2 1 immoralSelf immoralSelf match m m 1 0.5966 
17-May-2018_14:00:26 Exp 7318 25 female R 3 2 2 immoralOther immoralSelf mismatch n n 1 0.7048 
17-May-2018_14:00:29 Exp 7318 25 female R 3 2 3 moralSelf moralSelf match m n 0 0.6709 
17-May-2018_14:00:31 Exp 7318 25 female R 3 2 4 immoralSelf immoralSelf match m m 1 0.7390 
17-May-2018_14:00:33 Exp 7318 25 female R 3 2 5 moralSelf moralSelf match m m 1 0.5851 
17-May-2018_14:00:35 Exp 7318 25 female R 3 2 6 immoralOther moralSelf mismatch n n 1 0.5993 
17-May-2018_14:00:38 Exp 7318 25 female R 3 2 7 immoralSelf immoralSelf match m m 1 0.6974 
17-May-2018_14:00:40 Exp 7318 25 female R 3 2 8 moralSelf immoralOther mismatch n n 1 0.5755 
17-May-2018_14:00:42 Exp 7318 25 female R 3 2 9 moralOther immoralOther mismatch n n 1 0.6797 
17-May-2018_14:00:45 Exp 7318 25 female R 3 2 10 immoralSelf moralOther mismatch n n 1 0.6737 
17-May-2018_14:00:47 Exp 7318 25 female R 3 2 11 moralOther moralOther match m n 0 0.6779 
17-May-2018_14:00:49 Exp 7318 25 female R 3 2 12 moralOther moralOther match m m 1 0.5601 
17-May-2018_14:00:52 Exp 7318 25 female R 3 2 13 moralOther immoralOther mismatch n n 1 0.7941 
17-May-2018_14:00:54 Exp 7318 25 female R 3 2 14 immoralSelf immoralOther mismatch n n 1 0.6623 
17-May-2018_14:00:56 Exp 7318 25 female R 3 2 15 moralSelf moralSelf match m m 1 0.7484 
17-May-2018_14:00:58 Exp 7318 25 female R 3 2 16 moralSelf immoralOther mismatch n n 1 0.6166 
17-May-2018_14:01:01 Exp 7318 25 female R 3 2 17 immoralOther immoralOther match m m 1 0.7128 
17-May-2018_14:01:03 Exp 7318 25 female R 3 2 18 immoralSelf moralOther mismatch n n 1 0.6210 
17-May-2018_14:01:05 Exp 7318 25 female R 3 2 19 moralOther moralOther match m m 1 0.6429 
17-May-2018_14:01:08 Exp 7318 25 female R 3 2 20 moralOther immoralOther mismatch n n 1 0.7970 
17-May-2018_14:01:10 Exp 7318 25 female R 3 2 21 immoralOther moralOther mismatch n n 1 0.8332 
17-May-2018_14:01:13 Exp 7318 25 female R 3 2 22 immoralOther immoralOther match m m 1 0.7734 
17-May-2018_14:01:15 Exp 7318 25 female R 3 2 23 immoralOther immoralOther match m m 1 0.8375 
17-May-2018_14:01:17 Exp 7318 25 female R 3 2 24 moralSelf moralOther mismatch n n 1 0.6556 
17-May-2018_14:01:20 Exp 7318 25 female R 3 3 1 moralSelf moralSelf match m m 1 0.6238 
17-May-2018_14:01:22 Exp 7318 25 female R 3 3 2 immoralSelf immoralSelf match m m 1 0.5980 
17-May-2018_14:01:24 Exp 7318 25 female R 3 3 3 immoralOther immoralOther match m m 1 0.7600 
17-May-2018_14:01:26 Exp 7318 25 female R 3 3 4 immoralSelf moralSelf mismatch n m 0 0.6341 
17-May-2018_14:01:29 Exp 7318 25 female R 3 3 5 moralSelf moralSelf match m m 1 0.5902 
17-May-2018_14:01:31 Exp 7318 25 female R 3 3 6 moralOther immoralSelf mismatch n n 1 1.0824 
17-May-2018_14:01:34 Exp 7318 25 female R 3 3 7 moralOther immoralOther mismatch n n 1 0.6925 
17-May-2018_14:01:36 Exp 7318 25 female R 3 3 8 immoralOther moralOther mismatch n n 1 0.6367 
17-May-2018_14:01:38 Exp 7318 25 female R 3 3 9 moralOther moralOther match m m 1 0.6808 
17-May-2018_14:01:41 Exp 7318 25 female R 3 3 10 immoralSelf moralOther mismatch n n 1 0.7230 
17-May-2018_14:01:43 Exp 7318 25 female R 3 3 11 immoralOther immoralOther match m m 1 0.7090 
17-May-2018_14:01:45 Exp 7318 25 female R 3 3 12 moralSelf immoralOther mismatch n n 1 0.5853 
17-May-2018_14:01:47 Exp 7318 25 female R 3 3 13 immoralOther immoralOther match m n 0 0.5674 
17-May-2018_14:01:50 Exp 7318 25 female R 3 3 14 moralOther moralSelf mismatch n n 1 0.6794 
17-May-2018_14:01:52 Exp 7318 25 female R 3 3 15 immoralSelf immoralSelf match m m 1 0.6257 
17-May-2018_14:01:54 Exp 7318 25 female R 3 3 16 moralSelf moralOther mismatch n m 0 0.7597 
17-May-2018_14:01:57 Exp 7318 25 female R 3 3 17 immoralSelf immoralSelf match m m 1 0.7459 
17-May-2018_14:01:59 Exp 7318 25 female R 3 3 18 moralOther moralOther match m m 1 0.5840 
17-May-2018_14:02:01 Exp 7318 25 female R 3 3 19 immoralOther moralOther mismatch n n 1 0.7422 
17-May-2018_14:02:03 Exp 7318 25 female R 3 3 20 moralSelf moralSelf match m m 1 0.5482 
17-May-2018_14:02:06 Exp 7318 25 female R 3 3 21 immoralSelf moralOther mismatch n n 1 0.7364 
17-May-2018_14:02:08 Exp 7318 25 female R 3 3 22 moralOther moralOther match m m 1 0.8888 
17-May-2018_14:02:11 Exp 7318 25 female R 3 3 23 immoralOther moralOther mismatch n n 1 0.7686 
17-May-2018_14:02:13 Exp 7318 25 female R 3 3 24 moralSelf immoralOther mismatch n n 1 0.6728 
17-May-2018_14:02:22 Exp 7318 25 female R 3 4 1 moralSelf moralSelf match m m 1 0.7413 
17-May-2018_14:02:24 Exp 7318 25 female R 3 4 2 moralOther immoralSelf mismatch n n 1 0.5315 
17-May-2018_14:02:27 Exp 7318 25 female R 3 4 3 immoralOther moralSelf mismatch n n 1 0.5877 
17-May-2018_14:02:29 Exp 7318 25 female R 3 4 4 moralSelf moralSelf match m n 0 0.6717 
17-May-2018_14:02:31 Exp 7318 25 female R 3 4 5 moralOther moralSelf mismatch n m 0 0.7638 
17-May-2018_14:02:34 Exp 7318 25 female R 3 4 6 moralSelf moralSelf match m n 0 0.6619 
17-May-2018_14:02:36 Exp 7318 25 female R 3 4 7 moralOther immoralSelf mismatch n n 1 0.5401 
17-May-2018_14:02:38 Exp 7318 25 female R 3 4 8 moralOther moralOther match m n 0 0.5622 
17-May-2018_14:02:40 Exp 7318 25 female R 3 4 9 immoralSelf immoralSelf match m m 1 0.7884 
17-May-2018_14:02:43 Exp 7318 25 female R 3 4 10 immoralSelf moralOther mismatch n n 1 0.6725 
17-May-2018_14:02:45 Exp 7318 25 female R 3 4 11 immoralOther moralOther mismatch n n 1 0.6846 
17-May-2018_14:02:47 Exp 7318 25 female R 3 4 12 immoralSelf moralSelf mismatch n m 0 0.6146 
17-May-2018_14:02:50 Exp 7318 25 female R 3 4 13 moralSelf immoralSelf mismatch n n 1 0.7749 
17-May-2018_14:02:52 Exp 7318 25 female R 3 4 14 moralOther moralOther match m m 1 0.6470 
17-May-2018_14:02:54 Exp 7318 25 female R 3 4 15 immoralSelf immoralOther mismatch n n 1 0.8895 
17-May-2018_14:02:57 Exp 7318 25 female R 3 4 16 moralSelf immoralSelf mismatch n n 1 0.7692 
17-May-2018_14:02:59 Exp 7318 25 female R 3 4 17 immoralSelf immoralSelf match m n 0 0.7774 
17-May-2018_14:03:02 Exp 7318 25 female R 3 4 18 immoralOther immoralOther match m m 1 0.8396 
17-May-2018_14:03:04 Exp 7318 25 female R 3 4 19 moralSelf immoralSelf mismatch n n 1 0.7057 
17-May-2018_14:03:06 Exp 7318 25 female R 3 4 20 immoralOther immoralSelf mismatch n n 1 0.6558 
17-May-2018_14:03:09 Exp 7318 25 female R 3 4 21 immoralSelf immoralSelf match m n 0 0.6243 
17-May-2018_14:03:11 Exp 7318 25 female R 3 4 22 immoralOther immoralOther match m m 1 0.7420 
17-May-2018_14:03:13 Exp 7318 25 female R 3 4 23 moralOther moralOther match m m 1 0.6522 
17-May-2018_14:03:15 Exp 7318 25 female R 3 4 24 immoralOther immoralOther match m m 1 0.6283 
17-May-2018_14:03:18 Exp 7318 25 female R 3 5 1 immoralOther immoralOther match m m 1 0.4644 
17-May-2018_14:03:20 Exp 7318 25 female R 3 5 2 moralOther moralOther match m m 1 0.5907 
17-May-2018_14:03:22 Exp 7318 25 female R 3 5 3 moralOther moralSelf mismatch n m 0 0.6667 
17-May-2018_14:03:24 Exp 7318 25 female R 3 5 4 immoralOther moralOther mismatch n m 0 0.6732 
17-May-2018_14:03:27 Exp 7318 25 female R 3 5 5 immoralOther moralSelf mismatch n n 1 0.7169 
17-May-2018_14:03:29 Exp 7318 25 female R 3 5 6 moralOther immoralSelf mismatch n n 1 0.7050 
17-May-2018_14:03:32 Exp 7318 25 female R 3 5 7 moralOther moralSelf mismatch n NA -1 1.0850 
17-May-2018_14:03:34 Exp 7318 25 female R 3 5 8 moralSelf immoralOther mismatch n n 1 0.7134 
17-May-2018_14:03:36 Exp 7318 25 female R 3 5 9 moralOther moralOther match m m 1 0.5816 
17-May-2018_14:03:39 Exp 7318 25 female R 3 5 10 immoralSelf immoralSelf match m m 1 0.6118 
17-May-2018_14:03:41 Exp 7318 25 female R 3 5 11 moralSelf immoralOther mismatch n n 1 0.7559 
17-May-2018_14:03:43 Exp 7318 25 female R 3 5 12 immoralOther immoralOther match m m 1 0.7119 
17-May-2018_14:03:45 Exp 7318 25 female R 3 5 13 immoralSelf moralSelf mismatch n m 0 0.6280 
17-May-2018_14:03:48 Exp 7318 25 female R 3 5 14 immoralOther moralSelf mismatch n n 1 0.6162 
17-May-2018_14:03:50 Exp 7318 25 female R 3 5 15 moralOther moralOther match m m 1 1.0082 
17-May-2018_14:03:53 Exp 7318 25 female R 3 5 16 moralSelf immoralOther mismatch n n 1 0.7684 
17-May-2018_14:03:55 Exp 7318 25 female R 3 5 17 moralSelf moralSelf match m m 1 0.7688 
17-May-2018_14:03:57 Exp 7318 25 female R 3 5 18 immoralOther immoralOther match m m 1 0.6247 
17-May-2018_14:04:00 Exp 7318 25 female R 3 5 19 immoralSelf moralOther mismatch n n 1 0.7509 
17-May-2018_14:04:02 Exp 7318 25 female R 3 5 20 immoralSelf immoralSelf match m m 1 0.8589 
17-May-2018_14:04:05 Exp 7318 25 female R 3 5 21 immoralSelf immoralSelf match m m 1 0.6331 
17-May-2018_14:04:07 Exp 7318 25 female R 3 5 22 moralSelf moralSelf match m m 1 0.5491 
17-May-2018_14:04:09 Exp 7318 25 female R 3 5 23 immoralSelf moralOther mismatch n n 1 0.7533 
17-May-2018_14:04:11 Exp 7318 25 female R 3 5 24 moralSelf moralSelf match m m 1 0.5414 
Date Prac Sub Age Sex Hand Block Bin Trial Shape Label Match CorrResp Resp ACC RT
17-May-2018_14:08:33 Exp 7318 25 female R 1 1 1 immoralSelf immoralSelf match m NA -1 1.0850 
17-May-2018_14:08:35 Exp 7318 25 female R 1 1 2 moralSelf moralOther mismatch n NA -1 1.0850 
17-May-2018_14:08:38 Exp 7318 25 female R 1 1 3 moralSelf moralSelf match m n 0 0.6465 
17-May-2018_14:08:40 Exp 7318 25 female R 1 1 4 immoralOther immoralSelf mismatch n m 0 0.7668 
17-May-2018_14:08:42 Exp 7318 25 female R 1 1 5 moralOther moralOther match m m 1 0.6888 
17-May-2018_14:08:45 Exp 7318 25 female R 1 1 6 immoralSelf moralOther mismatch n m 0 0.8889 
17-May-2018_14:08:47 Exp 7318 25 female R 1 1 7 immoralSelf moralOther mismatch n n 1 0.8730 
17-May-2018_14:08:50 Exp 7318 25 female R 1 1 8 moralSelf moralSelf match m m 1 0.5813 
17-May-2018_14:08:52 Exp 7318 25 female R 1 1 9 immoralOther immoralOther match m m 1 0.8593 
17-May-2018_14:08:54 Exp 7318 25 female R 1 1 10 moralOther moralSelf mismatch n n 1 0.6655 
17-May-2018_14:08:57 Exp 7318 25 female R 1 1 11 moralOther moralOther match m m 1 0.8715 
17-May-2018_14:08:59 Exp 7318 25 female R 1 1 12 moralSelf immoralSelf mismatch n n 1 0.6198 
17-May-2018_14:09:02 Exp 7318 25 female R 1 1 13 immoralSelf immoralOther mismatch n m 0 0.9139 
17-May-2018_14:09:04 Exp 7318 25 female R 1 1 14 immoralOther immoralOther match m m 1 0.6620 
17-May-2018_14:09:06 Exp 7318 25 female R 1 1 15 immoralSelf immoralSelf match m m 1 0.8201 
17-May-2018_14:09:09 Exp 7318 25 female R 1 1 16 moralSelf immoralSelf mismatch n n 1 0.9382 
17-May-2018_14:09:11 Exp 7318 25 female R 1 1 17 immoralSelf immoralSelf match m m 1 0.6723 
17-May-2018_14:09:14 Exp 7318 25 female R 1 1 18 moralOther moralOther match m m 1 0.6846 
17-May-2018_14:09:16 Exp 7318 25 female R 1 1 19 immoralOther immoralOther match m m 1 0.7347 
17-May-2018_14:09:18 Exp 7318 25 female R 1 1 20 moralSelf moralSelf match m m 1 0.8709 
17-May-2018_14:09:21 Exp 7318 25 female R 1 1 21 moralOther moralSelf mismatch n m 0 0.7550 
17-May-2018_14:09:24 Exp 7318 25 female R 1 1 22 immoralOther moralSelf mismatch n n 1 1.0551 
17-May-2018_14:09:26 Exp 7318 25 female R 1 1 23 moralOther immoralOther mismatch n n 1 0.7353 
17-May-2018_14:09:28 Exp 7318 25 female R 1 1 24 immoralOther immoralSelf mismatch n n 1 0.7114 
17-May-2018_14:09:31 Exp 7318 25 female R 1 2 1 immoralOther moralSelf mismatch n n 1 0.7635 
17-May-2018_14:09:33 Exp 7318 25 female R 1 2 2 moralOther moralOther match m m 1 0.7336 
17-May-2018_14:09:35 Exp 7318 25 female R 1 2 3 immoralOther immoralOther match m n 0 0.6138 
17-May-2018_14:09:37 Exp 7318 25 female R 1 2 4 moralSelf moralSelf match m m 1 0.6061 
17-May-2018_14:09:40 Exp 7318 25 female R 1 2 5 immoralSelf immoralSelf match m m 1 0.6480 
17-May-2018_14:09:42 Exp 7318 25 female R 1 2 6 moralOther moralOther match m m 1 0.5681 
17-May-2018_14:09:44 Exp 7318 25 female R 1 2 7 moralOther moralOther match m m 1 0.5763 
17-May-2018_14:09:46 Exp 7318 25 female R 1 2 8 moralSelf moralSelf match m m 1 0.6644 
17-May-2018_14:09:49 Exp 7318 25 female R 1 2 9 immoralSelf moralSelf mismatch n m 0 0.5665 
17-May-2018_14:09:51 Exp 7318 25 female R 1 2 10 moralSelf immoralSelf mismatch n m 0 0.5526 
17-May-2018_14:09:53 Exp 7318 25 female R 1 2 11 moralSelf immoralSelf mismatch n n 1 0.5727 
17-May-2018_14:09:55 Exp 7318 25 female R 1 2 12 immoralSelf moralSelf mismatch n m 0 0.5089 
17-May-2018_14:09:58 Exp 7318 25 female R 1 2 13 moralOther immoralOther mismatch n n 1 0.9371 
17-May-2018_14:10:00 Exp 7318 25 female R 1 2 14 moralSelf immoralSelf mismatch n n 1 0.8331 
17-May-2018_14:10:02 Exp 7318 25 female R 1 2 15 immoralOther immoralSelf mismatch n n 1 0.7013 
17-May-2018_14:10:05 Exp 7318 25 female R 1 2 16 moralOther moralSelf mismatch n n 1 0.7795 
17-May-2018_14:10:07 Exp 7318 25 female R 1 2 17 moralSelf moralSelf match m m 1 0.8176 
17-May-2018_14:10:10 Exp 7318 25 female R 1 2 18 immoralSelf immoralSelf match m m 1 0.6397 
17-May-2018_14:10:12 Exp 7318 25 female R 1 2 19 immoralOther immoralOther match m m 1 0.7378 
17-May-2018_14:10:14 Exp 7318 25 female R 1 2 20 moralOther immoralOther mismatch n n 1 0.7999 
17-May-2018_14:10:17 Exp 7318 25 female R 1 2 21 immoralOther moralOther mismatch n n 1 0.8342 
17-May-2018_14:10:19 Exp 7318 25 female R 1 2 22 immoralOther immoralOther match m m 1 0.7502 
17-May-2018_14:10:21 Exp 7318 25 female R 1 2 23 immoralSelf immoralSelf match m m 1 0.5464 
17-May-2018_14:10:24 Exp 7318 25 female R 1 2 24 immoralSelf moralOther mismatch n m 0 0.5045 
Date Prac Sub Age Sex Hand Block Bin Trial Shape Label Match CorrResp Resp ACC RT
17-May-2018_14:14:37 Exp 7318 25 female R 1 1 1 immoralSelf immoralSelf match m NA -1 1.0850 
17-May-2018_14:14:40 Exp 7318 25 female R 1 1 2 moralOther immoralOther mismatch n m 0 0.7750 
17-May-2018_14:14:42 Exp 7318 25 female R 1 1 3 moralOther moralSelf mismatch n n 1 0.7031 
17-May-2018_14:14:45 Exp 7318 25 female R 1 1 4 immoralSelf immoralSelf match m m 1 0.9332 
17-May-2018_14:14:47 Exp 7318 25 female R 1 1 5 moralOther moralOther match m m 1 0.8373 
17-May-2018_14:14:49 Exp 7318 25 female R 1 1 6 moralSelf immoralSelf mismatch n n 1 0.7115 
17-May-2018_14:14:52 Exp 7318 25 female R 1 1 7 immoralSelf immoralSelf match m m 1 0.6356 
17-May-2018_14:14:54 Exp 7318 25 female R 1 1 8 moralSelf immoralOther mismatch n n 1 0.7277 
17-May-2018_14:14:57 Exp 7318 25 female R 1 1 9 moralSelf immoralSelf mismatch n n 1 0.9199 
17-May-2018_14:14:59 Exp 7318 25 female R 1 1 10 immoralOther immoralOther match m n 0 0.8740 
17-May-2018_14:15:01 Exp 7318 25 female R 1 1 11 immoralOther moralSelf mismatch n n 1 0.5901 
17-May-2018_14:15:03 Exp 7318 25 female R 1 1 12 immoralOther moralSelf mismatch n n 1 0.6023 
17-May-2018_14:15:06 Exp 7318 25 female R 1 1 13 moralSelf moralSelf match m m 1 0.7484 
17-May-2018_14:15:08 Exp 7318 25 female R 1 1 14 immoralSelf moralSelf mismatch n n 1 0.8885 
17-May-2018_14:15:11 Exp 7318 25 female R 1 1 15 moralSelf moralSelf match m m 1 0.6327 
17-May-2018_14:15:13 Exp 7318 25 female R 1 1 16 immoralOther immoralOther match m n 0 0.5168 
17-May-2018_14:15:15 Exp 7318 25 female R 1 1 17 moralOther moralOther match m m 1 0.5210 
17-May-2018_14:15:17 Exp 7318 25 female R 1 1 18 moralSelf moralSelf match m n 0 0.6591 
17-May-2018_14:15:19 Exp 7318 25 female R 1 1 19 moralOther moralOther match m n 0 0.5292 
17-May-2018_14:15:22 Exp 7318 25 female R 1 1 20 immoralOther immoralSelf mismatch n n 1 0.8176 
17-May-2018_14:15:24 Exp 7318 25 female R 1 1 21 immoralOther immoralOther match m n 0 0.8074 
17-May-2018_14:15:27 Exp 7318 25 female R 1 1 22 moralOther immoralSelf mismatch n n 1 0.8956 
17-May-2018_14:15:29 Exp 7318 25 female R 1 1 23 immoralSelf moralOther mismatch n n 1 0.7197 
17-May-2018_14:15:32 Exp 7318 25 female R 1 1 24 immoralSelf immoralOther mismatch n n 1 0.7939 
17-May-2018_14:15:34 Exp 7318 25 female R 1 2 1 immoralSelf immoralSelf match m n 0 0.5580 
17-May-2018_14:15:36 Exp 7318 25 female R 1 2 2 immoralOther moralOther mismatch n n 1 0.9361 
17-May-2018_14:15:39 Exp 7318 25 female R 1 2 3 immoralOther moralOther mismatch n n 1 0.9124 
17-May-2018_14:15:41 Exp 7318 25 female R 1 2 4 moralOther moralOther match m m 1 0.9004 
17-May-2018_14:15:44 Exp 7318 25 female R 1 2 5 immoralSelf moralSelf mismatch n n 1 0.7465 
17-May-2018_14:15:46 Exp 7318 25 female R 1 2 6 immoralSelf moralOther mismatch n n 1 0.7367 
17-May-2018_14:15:48 Exp 7318 25 female R 1 2 7 immoralOther immoralOther match m m 1 0.6809 
17-May-2018_14:15:51 Exp 7318 25 female R 1 2 8 moralSelf moralSelf match m m 1 0.6030 
17-May-2018_14:15:53 Exp 7318 25 female R 1 2 9 immoralSelf immoralSelf match m m 1 0.6531 
17-May-2018_14:15:55 Exp 7318 25 female R 1 2 10 immoralSelf immoralSelf match m n 0 0.8772 
17-May-2018_14:15:58 Exp 7318 25 female R 1 2 11 moralSelf immoralSelf mismatch n n 1 0.7274 
17-May-2018_14:16:00 Exp 7318 25 female R 1 2 12 moralSelf moralSelf match m m 1 0.5755 
17-May-2018_14:16:02 Exp 7318 25 female R 1 2 13 moralSelf moralOther mismatch n n 1 0.7196 
17-May-2018_14:16:05 Exp 7318 25 female R 1 2 14 moralSelf immoralSelf mismatch n n 1 0.9538 
17-May-2018_14:16:07 Exp 7318 25 female R 1 2 15 immoralSelf moralSelf mismatch n n 1 0.7499 
17-May-2018_14:16:10 Exp 7318 25 female R 1 2 16 moralOther immoralSelf mismatch n n 1 0.7380 
17-May-2018_14:16:12 Exp 7318 25 female R 1 2 17 moralOther immoralOther mismatch n n 1 0.8401 
17-May-2018_14:16:14 Exp 7318 25 female R 1 2 18 immoralOther moralSelf mismatch n n 1 0.6742 
17-May-2018_14:16:17 Exp 7318 25 female R 1 2 19 moralOther moralSelf mismatch n m 0 0.6704 
17-May-2018_14:16:19 Exp 7318 25 female R 1 2 20 immoralOther immoralOther match m m 1 0.8185 
17-May-2018_14:16:22 Exp 7318 25 female R 1 2 21 moralOther moralOther match m m 1 0.6969 
17-May-2018_14:16:24 Exp 7318 25 female R 1 2 22 immoralOther immoralOther match m n 0 0.5128 
17-May-2018_14:16:26 Exp 7318 25 female R 1 2 23 moralSelf moralSelf match m n 0 0.6130 
17-May-2018_14:16:28 Exp 7318 25 female R 1 2 24 moralOther moralOther match m m 1 0.7171 
Date Prac Sub Age Sex Hand Block Bin Trial Shape Label Match CorrResp Resp ACC RT
17-May-2018_14:20:27 Exp 7318 25 female R 1 1 1 moralOther moralOther match m m 1 0.6845 
17-May-2018_14:20:29 Exp 7318 25 female R 1 1 2 moralSelf immoralOther mismatch n n 1 0.7987 
17-May-2018_14:20:32 Exp 7318 25 female R 1 1 3 moralOther moralSelf mismatch n n 1 0.8648 
17-May-2018_14:20:34 Exp 7318 25 female R 1 1 4 moralOther immoralSelf mismatch n n 1 0.7030 
17-May-2018_14:20:36 Exp 7318 25 female R 1 1 5 immoralOther moralSelf mismatch n n 1 0.5811 
17-May-2018_14:20:39 Exp 7318 25 female R 1 1 6 moralOther immoralSelf mismatch n n 1 0.8272 
17-May-2018_14:20:41 Exp 7318 25 female R 1 1 7 immoralOther immoralOther match m m 1 0.6634 
17-May-2018_14:20:43 Exp 7318 25 female R 1 1 8 immoralOther moralSelf mismatch n n 1 0.5895 
17-May-2018_14:20:46 Exp 7318 25 female R 1 1 9 immoralSelf moralSelf mismatch n n 1 0.9937 
17-May-2018_14:20:48 Exp 7318 25 female R 1 1 10 immoralOther immoralOther match m m 1 0.7178 
17-May-2018_14:20:50 Exp 7318 25 female R 1 1 11 immoralSelf immoralSelf match m n 0 0.6479 
17-May-2018_14:20:53 Exp 7318 25 female R 1 1 12 moralSelf moralOther mismatch n n 1 0.8720 
17-May-2018_14:20:55 Exp 7318 25 female R 1 1 13 immoralOther immoralOther match m m 1 0.6843 
17-May-2018_14:20:58 Exp 7318 25 female R 1 1 14 moralSelf immoralOther mismatch n n 1 0.6784 
17-May-2018_14:21:00 Exp 7318 25 female R 1 1 15 immoralSelf immoralSelf match m m 1 0.6243 
17-May-2018_14:21:02 Exp 7318 25 female R 1 1 16 immoralOther moralSelf mismatch n n 1 0.7746 
17-May-2018_14:21:05 Exp 7318 25 female R 1 1 17 immoralSelf immoralSelf match m m 1 0.6627 
17-May-2018_14:21:07 Exp 7318 25 female R 1 1 18 immoralSelf moralSelf mismatch n n 1 0.9889 
17-May-2018_14:21:09 Exp 7318 25 female R 1 1 19 immoralSelf moralSelf mismatch n n 1 0.6889 
17-May-2018_14:21:12 Exp 7318 25 female R 1 1 20 moralOther moralOther match m m 1 0.6172 
17-May-2018_14:21:14 Exp 7318 25 female R 1 1 21 moralSelf moralSelf match m m 1 0.8732 
17-May-2018_14:21:17 Exp 7318 25 female R 1 1 22 moralSelf moralSelf match m m 1 0.7734 
17-May-2018_14:21:19 Exp 7318 25 female R 1 1 23 moralSelf moralSelf match m m 1 0.4855 
17-May-2018_14:21:21 Exp 7318 25 female R 1 1 24 moralOther moralOther match m m 1 0.9596 
17-May-2018_14:21:24 Exp 7318 25 female R 1 2 1 immoralSelf moralOther mismatch n n 1 0.7697 
17-May-2018_14:21:26 Exp 7318 25 female R 1 2 2 immoralSelf immoralSelf match m m 1 0.6020 
17-May-2018_14:21:28 Exp 7318 25 female R 1 2 3 moralOther immoralOther mismatch n m 0 0.8520 
17-May-2018_14:21:31 Exp 7318 25 female R 1 2 4 immoralOther immoralOther match m m 1 0.6362 
17-May-2018_14:21:33 Exp 7318 25 female R 1 2 5 immoralOther moralSelf mismatch n n 1 0.6164 
17-May-2018_14:21:35 Exp 7318 25 female R 1 2 6 immoralOther immoralOther match m n 0 0.5044 
17-May-2018_14:21:37 Exp 7318 25 female R 1 2 7 moralOther moralOther match m m 1 0.5425 
17-May-2018_14:21:40 Exp 7318 25 female R 1 2 8 immoralOther immoralSelf mismatch n n 1 0.7327 
17-May-2018_14:21:42 Exp 7318 25 female R 1 2 9 moralOther moralOther match m m 1 0.5328 
17-May-2018_14:21:44 Exp 7318 25 female R 1 2 10 immoralSelf immoralSelf match m m 1 0.6370 
17-May-2018_14:21:46 Exp 7318 25 female R 1 2 11 moralSelf immoralOther mismatch n n 1 0.5532 
17-May-2018_14:21:48 Exp 7318 25 female R 1 2 12 immoralSelf moralSelf mismatch n m 0 0.6372 
17-May-2018_14:21:51 Exp 7318 25 female R 1 2 13 immoralSelf immoralSelf match m m 1 0.5433 
17-May-2018_14:21:53 Exp 7318 25 female R 1 2 14 moralSelf immoralOther mismatch n n 1 0.6135 
17-May-2018_14:21:55 Exp 7318 25 female R 1 2 15 moralOther moralOther match m m 1 0.5335 
17-May-2018_14:21:57 Exp 7318 25 female R 1 2 16 moralSelf moralSelf match m m 1 0.6697 
17-May-2018_14:22:00 Exp 7318 25 female R 1 2 17 moralOther moralSelf mismatch n n 1 0.8339 
17-May-2018_14:22:02 Exp 7318 25 female R 1 2 18 moralSelf moralSelf match m m 1 0.7579 
17-May-2018_14:22:05 Exp 7318 25 female R 1 2 19 moralSelf immoralSelf mismatch n m 0 0.7041 
17-May-2018_14:22:07 Exp 7318 25 female R 1 2 20 moralOther immoralSelf mismatch n n 1 0.8145 
17-May-2018_14:22:09 Exp 7318 25 female R 1 2 21 immoralSelf moralSelf mismatch n m 0 0.6463 
17-May-2018_14:22:11 Exp 7318 25 female R 1 2 22 immoralOther immoralSelf mismatch n n 1 0.5525 
17-May-2018_14:22:14 Exp 7318 25 female R 1 2 23 moralSelf moralSelf match m m 1 0.5886 
17-May-2018_14:22:16 Exp 7318 25 female R 1 2 24 immoralOther immoralOther match m m 1 0.8567 
Date Prac Sub Age Sex Hand Block Bin Trial Shape Label Match CorrResp Resp ACC RT
17-May-2018_14:26:08 Exp 7318 25 female R 1 1 1 immoralOther moralOther mismatch n n 1 0.8278 
17-May-2018_14:26:10 Exp 7318 25 female R 1 1 2 immoralOther immoralOther match m n 0 0.6479 
17-May-2018_14:26:12 Exp 7318 25 female R 1 1 3 moralOther moralOther match m m 1 0.5999 
17-May-2018_14:26:14 Exp 7318 25 female R 1 1 4 moralOther moralOther match m m 1 0.5863 
17-May-2018_14:26:16 Exp 7318 25 female R 1 1 5 moralOther moralOther match m m 1 0.5288 
17-May-2018_14:26:19 Exp 7318 25 female R 1 1 6 immoralSelf moralSelf mismatch n n 1 0.9523 
17-May-2018_14:26:21 Exp 7318 25 female R 1 1 7 moralSelf moralSelf match m m 1 0.6286 
17-May-2018_14:26:24 Exp 7318 25 female R 1 1 8 immoralOther immoralOther match m m 1 0.6487 
17-May-2018_14:26:26 Exp 7318 25 female R 1 1 9 moralOther immoralOther mismatch n n 1 0.8247 
17-May-2018_14:26:28 Exp 7318 25 female R 1 1 10 moralOther moralSelf mismatch n m 0 0.5431 
17-May-2018_14:26:31 Exp 7318 25 female R 1 1 11 immoralOther immoralSelf mismatch n n 1 0.9970 
17-May-2018_14:26:33 Exp 7318 25 female R 1 1 12 immoralSelf moralSelf mismatch n n 1 0.8553 
17-May-2018_14:26:35 Exp 7318 25 female R 1 1 13 moralSelf immoralSelf mismatch n m 0 0.5595 
17-May-2018_14:26:38 Exp 7318 25 female R 1 1 14 moralSelf moralSelf match m m 1 0.5455 
17-May-2018_14:26:40 Exp 7318 25 female R 1 1 15 moralSelf moralOther mismatch n n 1 0.7997 
17-May-2018_14:26:43 Exp 7318 25 female R 1 1 16 immoralOther immoralOther match m m 1 0.8898 
17-May-2018_14:26:45 Exp 7318 25 female R 1 1 17 immoralSelf immoralSelf match m m 1 0.6981 
17-May-2018_14:26:48 Exp 7318 25 female R 1 1 18 immoralSelf immoralSelf match m NA -1 1.0850 
17-May-2018_14:26:50 Exp 7318 25 female R 1 1 19 moralOther immoralOther mismatch n m 0 0.9462 
17-May-2018_14:26:53 Exp 7318 25 female R 1 1 20 immoralSelf moralOther mismatch n n 1 0.7844 
17-May-2018_14:26:55 Exp 7318 25 female R 1 1 21 immoralSelf immoralSelf match m m 1 0.7505 
17-May-2018_14:26:57 Exp 7318 25 female R 1 1 22 moralSelf moralOther mismatch n n 1 0.6747 
17-May-2018_14:27:00 Exp 7318 25 female R 1 1 23 moralSelf moralSelf match m m 1 0.7188 
17-May-2018_14:27:02 Exp 7318 25 female R 1 1 24 immoralOther moralOther mismatch n n 1 0.5850 
17-May-2018_14:27:04 Exp 7318 25 female R 1 2 1 immoralOther immoralSelf mismatch n n 1 0.7750 
17-May-2018_14:27:07 Exp 7318 25 female R 1 2 2 moralSelf immoralSelf mismatch n m 0 0.6473 
17-May-2018_14:27:09 Exp 7318 25 female R 1 2 3 immoralSelf moralSelf mismatch n n 1 0.8473 
17-May-2018_14:27:11 Exp 7318 25 female R 1 2 4 moralOther moralOther match m m 1 0.7274 
17-May-2018_14:27:14 Exp 7318 25 female R 1 2 5 immoralSelf immoralSelf match m n 0 0.5835 
17-May-2018_14:27:16 Exp 7318 25 female R 1 2 6 moralSelf moralSelf match m m 1 0.8057 
17-May-2018_14:27:18 Exp 7318 25 female R 1 2 7 moralSelf immoralOther mismatch n n 1 0.7598 
17-May-2018_14:27:21 Exp 7318 25 female R 1 2 8 immoralOther moralSelf mismatch n n 1 0.7299 
17-May-2018_14:27:23 Exp 7318 25 female R 1 2 9 immoralSelf immoralSelf match m m 1 0.6100 
17-May-2018_14:27:25 Exp 7318 25 female R 1 2 10 moralSelf immoralSelf mismatch n n 1 0.6663 
17-May-2018_14:27:28 Exp 7318 25 female R 1 2 11 immoralOther moralOther mismatch n n 1 0.8483 
17-May-2018_14:27:30 Exp 7318 25 female R 1 2 12 moralSelf moralSelf match m n 0 0.7445 
17-May-2018_14:27:33 Exp 7318 25 female R 1 2 13 moralOther immoralSelf mismatch n n 1 0.8548 
17-May-2018_14:27:35 Exp 7318 25 female R 1 2 14 immoralOther immoralOther match m m 1 0.8389 
17-May-2018_14:27:38 Exp 7318 25 female R 1 2 15 moralOther immoralOther mismatch n n 1 0.8089 
17-May-2018_14:27:40 Exp 7318 25 female R 1 2 16 immoralOther immoralOther match m m 1 0.8491 
17-May-2018_14:27:42 Exp 7318 25 female R 1 2 17 moralOther moralOther match m m 1 0.6252 
17-May-2018_14:27:45 Exp 7318 25 female R 1 2 18 immoralSelf immoralOther mismatch n m 0 0.6953 
17-May-2018_14:27:47 Exp 7318 25 female R 1 2 19 immoralSelf immoralSelf match m m 1 0.6555 
17-May-2018_14:27:49 Exp 7318 25 female R 1 2 20 moralOther immoralSelf mismatch n n 1 0.7915 
17-May-2018_14:27:52 Exp 7318 25 female R 1 2 21 immoralSelf moralSelf mismatch n n 1 0.6996 
17-May-2018_14:27:54 Exp 7318 25 female R 1 2 22 immoralOther immoralOther match m m 1 0.8258 
17-May-2018_14:27:56 Exp 7318 25 female R 1 2 23 moralOther moralOther match m m 1 0.5760 
17-May-2018_14:27:59 Exp 7318 25 female R 1 2 24 moralSelf moralSelf match m m 1 0.6480 
Date Prac Sub Age Sex Hand Block Bin Trial Shape Label Match CorrResp Resp ACC RT
17-May-2018_14:31:48 Exp 7318 25 female R 1 1 1 immoralOther moralOther mismatch n n 1 0.8511 
17-May-2018_14:31:51 Exp 7318 25 female R 1 1 2 immoralOther immoralSelf mismatch n n 1 0.7312 
17-May-2018_14:31:53 Exp 7318 25 female R 1 1 3 immoralSelf immoralSelf match m m 1 0.6194 
17-May-2018_14:31:56 Exp 7318 25 female R 1 1 4 immoralOther immoralOther match m m 1 0.8495 
17-May-2018_14:31:58 Exp 7318 25 female R 1 1 5 moralOther immoralSelf mismatch n n 1 0.6656 
17-May-2018_14:32:00 Exp 7318 25 female R 1 1 6 immoralSelf immoralSelf match m m 1 0.6238 
17-May-2018_14:32:03 Exp 7318 25 female R 1 1 7 moralSelf moralSelf match m NA -1 1.0850 
17-May-2018_14:32:05 Exp 7318 25 female R 1 1 8 moralOther moralOther match m m 1 0.8482 
17-May-2018_14:32:08 Exp 7318 25 female R 1 1 9 immoralSelf immoralOther mismatch n n 1 0.7522 
17-May-2018_14:32:10 Exp 7318 25 female R 1 1 10 moralOther moralOther match m m 1 0.6764 
17-May-2018_14:32:12 Exp 7318 25 female R 1 1 11 immoralSelf immoralOther mismatch n n 1 0.7286 
17-May-2018_14:32:15 Exp 7318 25 female R 1 1 12 moralOther immoralOther mismatch n n 1 0.6966 
17-May-2018_14:32:17 Exp 7318 25 female R 1 1 13 moralSelf immoralSelf mismatch n n 1 0.9927 
17-May-2018_14:32:20 Exp 7318 25 female R 1 1 14 moralOther immoralOther mismatch n n 1 0.9009 
17-May-2018_14:32:22 Exp 7318 25 female R 1 1 15 moralSelf moralSelf match m m 1 0.6510 
17-May-2018_14:32:24 Exp 7318 25 female R 1 1 16 immoralSelf immoralOther mismatch n n 1 0.6671 
17-May-2018_14:32:27 Exp 7318 25 female R 1 1 17 immoralSelf immoralSelf match m n 0 0.6493 
17-May-2018_14:32:29 Exp 7318 25 female R 1 1 18 moralSelf moralOther mismatch n n 1 0.8014 
17-May-2018_14:32:31 Exp 7318 25 female R 1 1 19 immoralOther moralOther mismatch n n 1 0.7395 
17-May-2018_14:32:34 Exp 7318 25 female R 1 1 20 moralSelf moralSelf match m m 1 0.6417 
17-May-2018_14:32:36 Exp 7318 25 female R 1 1 21 immoralOther immoralOther match m n 0 0.5078 
17-May-2018_14:32:38 Exp 7318 25 female R 1 1 22 immoralOther immoralOther match m m 1 0.4320 
17-May-2018_14:32:40 Exp 7318 25 female R 1 1 23 moralSelf immoralOther mismatch n n 1 0.5879 
17-May-2018_14:32:42 Exp 7318 25 female R 1 1 24 moralOther moralOther match m m 1 0.7282 
17-May-2018_14:32:45 Exp 7318 25 female R 1 2 1 immoralOther immoralOther match m m 1 0.6963 
17-May-2018_14:32:47 Exp 7318 25 female R 1 2 2 moralOther moralOther match m m 1 0.5764 
17-May-2018_14:32:49 Exp 7318 25 female R 1 2 3 immoralOther immoralOther match m m 1 0.5926 
17-May-2018_14:32:51 Exp 7318 25 female R 1 2 4 moralSelf moralSelf match m m 1 0.5967 
17-May-2018_14:32:54 Exp 7318 25 female R 1 2 5 moralSelf moralSelf match m m 1 0.6569 
17-May-2018_14:32:56 Exp 7318 25 female R 1 2 6 immoralSelf moralSelf mismatch n m 0 0.7530 
17-May-2018_14:32:58 Exp 7318 25 female R 1 2 7 immoralSelf immoralOther mismatch n m 0 0.6690 
17-May-2018_14:33:01 Exp 7318 25 female R 1 2 8 immoralOther moralOther mismatch n n 1 0.7533 
17-May-2018_14:33:03 Exp 7318 25 female R 1 2 9 moralSelf immoralSelf mismatch n n 1 0.7573 
17-May-2018_14:33:06 Exp 7318 25 female R 1 2 10 immoralOther immoralOther match m n 0 0.9276 
17-May-2018_14:33:08 Exp 7318 25 female R 1 2 11 moralOther moralOther match m m 1 0.5436 
17-May-2018_14:33:10 Exp 7318 25 female R 1 2 12 moralOther immoralOther mismatch n n 1 0.7497 
17-May-2018_14:33:13 Exp 7318 25 female R 1 2 13 moralSelf moralOther mismatch n m 0 0.6337 
17-May-2018_14:33:15 Exp 7318 25 female R 1 2 14 immoralSelf immoralOther mismatch n n 1 0.5900 
17-May-2018_14:33:17 Exp 7318 25 female R 1 2 15 moralOther immoralSelf mismatch n n 1 0.5541 
17-May-2018_14:33:19 Exp 7318 25 female R 1 2 16 moralOther moralSelf mismatch n n 1 0.9263 
17-May-2018_14:33:22 Exp 7318 25 female R 1 2 17 immoralOther moralSelf mismatch n n 1 0.6083 
17-May-2018_14:33:24 Exp 7318 25 female R 1 2 18 immoralSelf immoralSelf match m n 0 0.7046 
17-May-2018_14:33:26 Exp 7318 25 female R 1 2 19 moralSelf moralOther mismatch n n 1 0.7106 
17-May-2018_14:33:29 Exp 7318 25 female R 1 2 20 immoralSelf immoralSelf match m m 1 0.5948 
17-May-2018_14:33:31 Exp 7318 25 female R 1 2 21 moralOther moralOther match m m 1 0.7110 
17-May-2018_14:33:33 Exp 7318 25 female R 1 2 22 immoralSelf immoralSelf match m m 1 0.6271 
17-May-2018_14:33:36 Exp 7318 25 female R 1 2 23 moralSelf moralSelf match m m 1 0.6972 
17-May-2018_14:33:38 Exp 7318 25 female R 1 2 24 immoralOther moralSelf mismatch n n 1 0.5673 
