Date Prac Sub Age Sex Hand Block Bin Trial Shape Label Match CorrResp Resp ACC RT
02-Jun-2018_13:40:26 prac 73370 18 female R 1 1 1 moralSelf moralOther mismatch m NA -1 1.0841 
02-Jun-2018_13:40:29 prac 73370 18 female R 1 1 2 moralSelf moralSelf match n NA -1 1.0841 
02-Jun-2018_13:40:31 prac 73370 18 female R 1 1 3 moralSelf immoralSelf mismatch m NA -1 1.0841 
02-Jun-2018_13:40:34 prac 73370 18 female R 1 1 4 moralOther immoralSelf mismatch m NA -1 1.0841 
02-Jun-2018_13:40:37 prac 73370 18 female R 1 1 5 moralOther moralOther match n NA -1 1.0841 
02-Jun-2018_13:40:39 prac 73370 18 female R 1 1 6 immoralOther moralSelf mismatch m m 1 0.6846 
02-Jun-2018_13:40:42 prac 73370 18 female R 1 1 7 immoralOther immoralOther match n m 0 0.9391 
02-Jun-2018_13:40:45 prac 73370 18 female R 1 1 8 immoralOther moralOther mismatch m NA -1 1.0841 
02-Jun-2018_13:40:47 prac 73370 18 female R 1 1 9 immoralOther immoralSelf mismatch m m 1 0.9692 
02-Jun-2018_13:40:50 prac 73370 18 female R 1 1 10 immoralSelf immoralSelf match n n 1 1.0292 
02-Jun-2018_13:40:53 prac 73370 18 female R 1 1 11 moralOther immoralOther mismatch m NA -1 1.0841 
02-Jun-2018_13:40:55 prac 73370 18 female R 1 1 12 immoralSelf immoralSelf match n m 0 0.8052 
02-Jun-2018_13:40:58 prac 73370 18 female R 1 1 13 moralOther immoralOther mismatch m NA -1 1.0841 
02-Jun-2018_13:41:00 prac 73370 18 female R 1 1 14 immoralSelf moralSelf mismatch m NA -1 1.0842 
02-Jun-2018_13:41:03 prac 73370 18 female R 1 1 15 moralOther moralOther match n NA -1 1.0841 
02-Jun-2018_13:41:06 prac 73370 18 female R 1 1 16 moralSelf moralSelf match n n 1 1.0454 
02-Jun-2018_13:41:08 prac 73370 18 female R 1 1 17 moralSelf moralSelf match n n 1 0.6713 
02-Jun-2018_13:41:11 prac 73370 18 female R 1 1 18 moralOther moralOther match n n 1 1.0614 
02-Jun-2018_13:41:13 prac 73370 18 female R 1 1 19 immoralOther immoralOther match n n 1 1.0074 
02-Jun-2018_13:41:16 prac 73370 18 female R 1 1 20 immoralSelf immoralOther mismatch m n 0 1.0332 
02-Jun-2018_13:41:19 prac 73370 18 female R 1 1 21 moralSelf moralOther mismatch m NA -1 1.0841 
02-Jun-2018_13:41:22 prac 73370 18 female R 1 1 22 immoralSelf moralSelf mismatch m NA -1 1.0841 
02-Jun-2018_13:41:24 prac 73370 18 female R 1 1 23 immoralSelf immoralSelf match n m 0 0.7627 
02-Jun-2018_13:41:27 prac 73370 18 female R 1 1 24 immoralOther immoralOther match n n 1 0.9227 
02-Jun-2018_13:41:29 prac 73370 18 female R 1 2 1 moralSelf moralOther mismatch m NA -1 1.0841 
02-Jun-2018_13:41:31 prac 73370 18 female R 1 2 2 moralSelf moralSelf match n n 1 0.5249 
02-Jun-2018_13:41:34 prac 73370 18 female R 1 2 3 immoralSelf immoralSelf match n n 1 0.7851 
02-Jun-2018_13:41:36 prac 73370 18 female R 1 2 4 moralOther immoralOther mismatch m m 1 0.9647 
02-Jun-2018_13:41:39 prac 73370 18 female R 1 2 5 immoralSelf immoralOther mismatch m m 1 1.0527 
02-Jun-2018_13:41:42 prac 73370 18 female R 1 2 6 immoralSelf moralOther mismatch m NA -1 1.0841 
02-Jun-2018_13:41:44 prac 73370 18 female R 1 2 7 immoralOther immoralOther match n m 0 0.8740 
02-Jun-2018_13:41:47 prac 73370 18 female R 1 2 8 immoralOther immoralOther match n n 1 0.9033 
02-Jun-2018_13:41:49 prac 73370 18 female R 1 2 9 immoralOther moralOther mismatch m m 1 0.7901 
02-Jun-2018_13:41:52 prac 73370 18 female R 1 2 10 moralSelf moralSelf match n n 1 1.0707 
02-Jun-2018_13:41:55 prac 73370 18 female R 1 2 11 moralOther moralOther match n NA -1 1.0841 
02-Jun-2018_13:41:57 prac 73370 18 female R 1 2 12 moralSelf moralOther mismatch m m 1 0.7993 
02-Jun-2018_13:42:00 prac 73370 18 female R 1 2 13 moralSelf moralSelf match n n 1 0.8841 
02-Jun-2018_13:42:02 prac 73370 18 female R 1 2 14 immoralOther immoralOther match n NA -1 1.0841 
02-Jun-2018_13:42:05 prac 73370 18 female R 1 2 15 immoralSelf immoralSelf match n n 1 1.0251 
02-Jun-2018_13:42:08 prac 73370 18 female R 1 2 16 moralSelf immoralOther mismatch m NA -1 1.0841 
02-Jun-2018_13:42:10 prac 73370 18 female R 1 2 17 immoralOther moralSelf mismatch m n 0 0.7848 
02-Jun-2018_13:42:13 prac 73370 18 female R 1 2 18 immoralSelf moralSelf mismatch m m 1 0.8654 
02-Jun-2018_13:42:15 prac 73370 18 female R 1 2 19 moralOther immoralSelf mismatch m m 1 0.8164 
02-Jun-2018_13:42:17 prac 73370 18 female R 1 2 20 immoralOther moralOther mismatch m m 1 0.7215 
02-Jun-2018_13:42:20 prac 73370 18 female R 1 2 21 moralOther moralOther match n m 0 0.7047 
02-Jun-2018_13:42:22 prac 73370 18 female R 1 2 22 immoralSelf immoralSelf match n n 1 0.8625 
02-Jun-2018_13:42:25 prac 73370 18 female R 1 2 23 moralOther moralOther match n NA -1 1.0841 
02-Jun-2018_13:42:28 prac 73370 18 female R 1 2 24 moralOther moralSelf mismatch m m 1 0.8390 
Date Prac Sub Age Sex Hand Block Bin Trial Shape Label Match CorrResp Resp ACC RT
02-Jun-2018_13:42:52 prac 73370 18 female R 1 1 1 immoralSelf immoralSelf match n m 0 1.0786 
02-Jun-2018_13:42:55 prac 73370 18 female R 1 1 2 immoralSelf moralOther mismatch m NA -1 1.0841 
02-Jun-2018_13:42:58 prac 73370 18 female R 1 1 3 moralOther moralOther match n NA -1 1.0841 
02-Jun-2018_13:43:00 prac 73370 18 female R 1 1 4 moralSelf immoralOther mismatch m m 1 0.8061 
02-Jun-2018_13:43:03 prac 73370 18 female R 1 1 5 immoralOther moralSelf mismatch m m 1 1.0589 
02-Jun-2018_13:43:06 prac 73370 18 female R 1 1 6 immoralOther moralSelf mismatch m NA -1 1.0841 
02-Jun-2018_13:43:08 prac 73370 18 female R 1 1 7 moralOther immoralOther mismatch m NA -1 1.0841 
02-Jun-2018_13:43:11 prac 73370 18 female R 1 1 8 immoralOther immoralOther match n n 1 0.6258 
02-Jun-2018_13:43:13 prac 73370 18 female R 1 1 9 immoralSelf moralSelf mismatch m m 1 0.7671 
02-Jun-2018_13:43:16 prac 73370 18 female R 1 1 10 immoralOther immoralOther match n NA -1 1.0841 
02-Jun-2018_13:43:18 prac 73370 18 female R 1 1 11 moralOther immoralSelf mismatch m m 1 0.6816 
02-Jun-2018_13:43:21 prac 73370 18 female R 1 1 12 moralOther moralOther match n n 1 0.7961 
02-Jun-2018_13:43:23 prac 73370 18 female R 1 1 13 immoralSelf immoralSelf match n m 0 0.5567 
02-Jun-2018_13:43:25 prac 73370 18 female R 1 1 14 moralSelf immoralOther mismatch m m 1 0.9845 
02-Jun-2018_13:43:28 prac 73370 18 female R 1 1 15 immoralSelf moralSelf mismatch m n 0 0.8928 
02-Jun-2018_13:43:30 prac 73370 18 female R 1 1 16 immoralOther immoralOther match n m 0 0.6836 
02-Jun-2018_13:43:33 prac 73370 18 female R 1 1 17 moralSelf immoralOther mismatch m NA -1 1.0841 
02-Jun-2018_13:43:35 prac 73370 18 female R 1 1 18 moralSelf moralSelf match n n 1 0.8405 
02-Jun-2018_13:43:38 prac 73370 18 female R 1 1 19 moralOther immoralSelf mismatch m n 0 0.9621 
02-Jun-2018_13:43:40 prac 73370 18 female R 1 1 20 moralSelf moralSelf match n n 1 0.8341 
02-Jun-2018_13:43:43 prac 73370 18 female R 1 1 21 moralSelf moralSelf match n m 0 0.9156 
02-Jun-2018_13:43:46 prac 73370 18 female R 1 1 22 moralOther moralOther match n NA -1 1.0841 
02-Jun-2018_13:43:48 prac 73370 18 female R 1 1 23 immoralOther moralOther mismatch m n 0 0.8613 
02-Jun-2018_13:43:51 prac 73370 18 female R 1 1 24 immoralSelf immoralSelf match n n 1 0.8153 
02-Jun-2018_13:43:53 prac 73370 18 female R 1 2 1 immoralOther immoralOther match n m 0 0.6446 
02-Jun-2018_13:43:56 prac 73370 18 female R 1 2 2 moralOther moralSelf mismatch m m 1 1.0502 
02-Jun-2018_13:43:58 prac 73370 18 female R 1 2 3 immoralSelf immoralSelf match n NA -1 1.0841 
02-Jun-2018_13:44:01 prac 73370 18 female R 1 2 4 moralSelf moralSelf match n n 1 0.7545 
02-Jun-2018_13:44:03 prac 73370 18 female R 1 2 5 moralOther immoralOther mismatch m m 1 1.0544 
02-Jun-2018_13:44:06 prac 73370 18 female R 1 2 6 moralSelf moralSelf match n m 0 1.0682 
02-Jun-2018_13:44:09 prac 73370 18 female R 1 2 7 immoralOther immoralSelf mismatch m m 1 0.8903 
02-Jun-2018_13:44:11 prac 73370 18 female R 1 2 8 immoralSelf moralOther mismatch m NA -1 1.0841 
02-Jun-2018_13:44:14 prac 73370 18 female R 1 2 9 moralOther immoralSelf mismatch m n 0 1.0553 
02-Jun-2018_13:44:16 prac 73370 18 female R 1 2 10 immoralSelf immoralSelf match n n 1 0.7330 
02-Jun-2018_13:44:19 prac 73370 18 female R 1 2 11 moralSelf moralSelf match n n 1 0.7044 
02-Jun-2018_13:44:21 prac 73370 18 female R 1 2 12 immoralSelf immoralSelf match n n 1 0.6913 
02-Jun-2018_13:44:23 prac 73370 18 female R 1 2 13 moralSelf immoralOther mismatch m m 1 0.6260 
02-Jun-2018_13:44:26 prac 73370 18 female R 1 2 14 moralOther moralOther match n NA -1 1.0841 
02-Jun-2018_13:44:28 prac 73370 18 female R 1 2 15 immoralOther moralSelf mismatch m m 1 0.5858 
02-Jun-2018_13:44:31 prac 73370 18 female R 1 2 16 moralSelf immoralSelf mismatch m NA -1 1.0841 
02-Jun-2018_13:44:34 prac 73370 18 female R 1 2 17 immoralOther immoralOther match n n 1 0.8368 
02-Jun-2018_13:44:36 prac 73370 18 female R 1 2 18 moralOther moralOther match n m 0 0.8944 
02-Jun-2018_13:44:38 prac 73370 18 female R 1 2 19 moralOther moralOther match n n 1 0.6930 
02-Jun-2018_13:44:41 prac 73370 18 female R 1 2 20 immoralOther immoralSelf mismatch m m 1 0.8037 
02-Jun-2018_13:44:43 prac 73370 18 female R 1 2 21 immoralSelf moralSelf mismatch m n 0 0.7925 
02-Jun-2018_13:44:46 prac 73370 18 female R 1 2 22 immoralOther immoralOther match n NA -1 1.0841 
02-Jun-2018_13:44:48 prac 73370 18 female R 1 2 23 immoralSelf moralSelf mismatch m m 1 0.7235 
02-Jun-2018_13:44:51 prac 73370 18 female R 1 2 24 moralSelf immoralSelf mismatch m m 1 0.7947 
Date Prac Sub Age Sex Hand Block Bin Trial Shape Label Match CorrResp Resp ACC RT
02-Jun-2018_13:45:12 prac 73370 18 female R 1 1 1 moralOther moralOther match n NA -1 1.0841 
02-Jun-2018_13:45:14 prac 73370 18 female R 1 1 2 moralOther moralSelf mismatch m n 0 0.6836 
02-Jun-2018_13:45:17 prac 73370 18 female R 1 1 3 moralSelf moralOther mismatch m m 1 1.0221 
02-Jun-2018_13:45:20 prac 73370 18 female R 1 1 4 immoralSelf immoralSelf match n NA -1 1.0841 
02-Jun-2018_13:45:22 prac 73370 18 female R 1 1 5 moralOther immoralSelf mismatch m m 1 0.7099 
02-Jun-2018_13:45:25 prac 73370 18 female R 1 1 6 immoralSelf moralOther mismatch m m 1 0.7528 
02-Jun-2018_13:45:27 prac 73370 18 female R 1 1 7 moralSelf moralOther mismatch m m 1 0.9647 
02-Jun-2018_13:45:30 prac 73370 18 female R 1 1 8 immoralOther immoralOther match n n 1 0.7968 
02-Jun-2018_13:45:32 prac 73370 18 female R 1 1 9 immoralOther immoralOther match n n 1 0.6853 
02-Jun-2018_13:45:34 prac 73370 18 female R 1 1 10 immoralOther moralSelf mismatch m m 1 0.6238 
02-Jun-2018_13:45:37 prac 73370 18 female R 1 1 11 moralSelf moralSelf match n n 1 0.7730 
02-Jun-2018_13:45:39 prac 73370 18 female R 1 1 12 moralSelf moralSelf match n n 1 0.4692 
02-Jun-2018_13:45:41 prac 73370 18 female R 1 1 13 immoralOther moralOther mismatch m m 1 0.9794 
02-Jun-2018_13:45:44 prac 73370 18 female R 1 1 14 immoralOther moralOther mismatch m m 1 0.6556 
02-Jun-2018_13:45:46 prac 73370 18 female R 1 1 15 moralSelf moralSelf match n n 1 0.5894 
02-Jun-2018_13:45:48 prac 73370 18 female R 1 1 16 moralSelf moralOther mismatch m m 1 0.5821 
02-Jun-2018_13:45:50 prac 73370 18 female R 1 1 17 immoralSelf immoralOther mismatch m n 0 0.6583 
02-Jun-2018_13:45:53 prac 73370 18 female R 1 1 18 immoralOther immoralOther match n n 1 0.9963 
02-Jun-2018_13:45:55 prac 73370 18 female R 1 1 19 immoralSelf immoralSelf match n n 1 0.9009 
02-Jun-2018_13:45:58 prac 73370 18 female R 1 1 20 immoralSelf immoralOther mismatch m m 1 0.6276 
02-Jun-2018_13:46:00 prac 73370 18 female R 1 1 21 moralOther moralSelf mismatch m m 1 1.0089 
02-Jun-2018_13:46:03 prac 73370 18 female R 1 1 22 immoralSelf immoralSelf match n n 1 0.8499 
02-Jun-2018_13:46:05 prac 73370 18 female R 1 1 23 moralOther moralOther match n m 0 0.9596 
02-Jun-2018_13:46:08 prac 73370 18 female R 1 1 24 moralOther moralOther match n n 1 0.5715 
02-Jun-2018_13:46:10 prac 73370 18 female R 1 2 1 moralSelf immoralOther mismatch m m 1 1.0596 
02-Jun-2018_13:46:13 prac 73370 18 female R 1 2 2 immoralOther immoralOther match n n 1 0.9336 
02-Jun-2018_13:46:15 prac 73370 18 female R 1 2 3 moralSelf moralSelf match n n 1 0.6171 
02-Jun-2018_13:46:17 prac 73370 18 female R 1 2 4 immoralOther immoralOther match n n 1 0.7940 
02-Jun-2018_13:46:20 prac 73370 18 female R 1 2 5 immoralOther moralOther mismatch m m 1 0.7625 
02-Jun-2018_13:46:23 prac 73370 18 female R 1 2 6 moralOther moralOther match n NA -1 1.0841 
02-Jun-2018_13:46:25 prac 73370 18 female R 1 2 7 immoralOther immoralSelf mismatch m m 1 0.7173 
02-Jun-2018_13:46:27 prac 73370 18 female R 1 2 8 immoralSelf moralSelf mismatch m m 1 0.8523 
02-Jun-2018_13:46:30 prac 73370 18 female R 1 2 9 immoralSelf immoralSelf match n m 0 0.8020 
02-Jun-2018_13:46:32 prac 73370 18 female R 1 2 10 immoralSelf immoralSelf match n n 1 0.5748 
02-Jun-2018_13:46:34 prac 73370 18 female R 1 2 11 moralSelf moralSelf match n n 1 0.4112 
02-Jun-2018_13:46:37 prac 73370 18 female R 1 2 12 immoralSelf moralSelf mismatch m m 1 0.7482 
02-Jun-2018_13:46:39 prac 73370 18 female R 1 2 13 immoralSelf immoralSelf match n n 1 0.6598 
02-Jun-2018_13:46:42 prac 73370 18 female R 1 2 14 moralOther moralOther match n NA -1 1.0841 
02-Jun-2018_13:46:44 prac 73370 18 female R 1 2 15 moralSelf immoralSelf mismatch m n 0 0.8323 
02-Jun-2018_13:46:47 prac 73370 18 female R 1 2 16 immoralSelf immoralOther mismatch m m 1 0.9538 
02-Jun-2018_13:46:49 prac 73370 18 female R 1 2 17 moralOther immoralOther mismatch m NA -1 1.0841 
02-Jun-2018_13:46:52 prac 73370 18 female R 1 2 18 moralOther moralOther match n n 1 1.0561 
02-Jun-2018_13:46:54 prac 73370 18 female R 1 2 19 moralSelf moralSelf match n n 1 0.5300 
02-Jun-2018_13:46:56 prac 73370 18 female R 1 2 20 moralOther immoralOther mismatch m m 1 0.6456 
02-Jun-2018_13:46:59 prac 73370 18 female R 1 2 21 immoralOther immoralOther match n n 1 0.9072 
02-Jun-2018_13:47:01 prac 73370 18 female R 1 2 22 immoralOther moralSelf mismatch m m 1 0.5661 
02-Jun-2018_13:47:04 prac 73370 18 female R 1 2 23 moralOther moralSelf mismatch m n 0 0.7183 
02-Jun-2018_13:47:06 prac 73370 18 female R 1 2 24 moralSelf moralOther mismatch m NA -1 1.0841 