Date Prac Sub Age Sex Hand Block Bin Trial Shape Label Match CorrResp Resp ACC RT
19-May-2018_15:23:37 Exp 7323 20 male R 1 1 1 moralSelf moralSelf match n n 1 0.9569 
19-May-2018_15:23:39 Exp 7323 20 male R 1 1 2 immoralSelf immoralOther mismatch m m 1 0.7252 
19-May-2018_15:23:41 Exp 7323 20 male R 1 1 3 moralSelf moralSelf match n n 1 0.8132 
19-May-2018_15:23:44 Exp 7323 20 male R 1 1 4 moralOther moralOther match n m 0 0.9154 
19-May-2018_15:23:46 Exp 7323 20 male R 1 1 5 immoralSelf immoralSelf match n m 0 0.7814 
19-May-2018_15:23:48 Exp 7323 20 male R 1 1 6 immoralOther moralSelf mismatch m m 1 0.8336 
19-May-2018_15:23:51 Exp 7323 20 male R 1 1 7 immoralSelf immoralSelf match n m 0 0.8357 
19-May-2018_15:23:53 Exp 7323 20 male R 1 1 8 immoralOther immoralOther match n n 1 0.8059 
19-May-2018_15:23:55 Exp 7323 20 male R 1 1 9 immoralSelf immoralOther mismatch m m 1 0.8219 
19-May-2018_15:23:58 Exp 7323 20 male R 1 1 10 moralSelf moralOther mismatch m n 0 0.7941 
19-May-2018_15:24:00 Exp 7323 20 male R 1 1 11 moralOther moralOther match n n 1 0.7802 
19-May-2018_15:24:02 Exp 7323 20 male R 1 1 12 immoralOther immoralOther match n n 1 0.7364 
19-May-2018_15:24:05 Exp 7323 20 male R 1 1 13 immoralSelf immoralSelf match n n 1 0.8225 
19-May-2018_15:24:07 Exp 7323 20 male R 1 1 14 moralOther moralOther match n m 0 0.8587 
19-May-2018_15:24:09 Exp 7323 20 male R 1 1 15 moralOther moralSelf mismatch m m 1 0.7350 
19-May-2018_15:24:12 Exp 7323 20 male R 1 1 16 immoralOther moralOther mismatch m m 1 0.8449 
19-May-2018_15:24:14 Exp 7323 20 male R 1 1 17 immoralOther immoralSelf mismatch m m 1 1.0130 
19-May-2018_15:24:16 Exp 7323 20 male R 1 1 18 moralSelf immoralSelf mismatch m m 1 0.8271 
19-May-2018_15:24:19 Exp 7323 20 male R 1 1 19 moralSelf immoralOther mismatch m m 1 0.8853 
19-May-2018_15:24:21 Exp 7323 20 male R 1 1 20 immoralOther immoralOther match n n 1 0.7575 
19-May-2018_15:24:23 Exp 7323 20 male R 1 1 21 moralOther immoralSelf mismatch m m 1 0.8455 
19-May-2018_15:24:26 Exp 7323 20 male R 1 1 22 moralOther moralSelf mismatch m m 1 0.8058 
19-May-2018_15:24:28 Exp 7323 20 male R 1 1 23 moralSelf moralSelf match n n 1 0.8058 
19-May-2018_15:24:30 Exp 7323 20 male R 1 1 24 immoralSelf moralSelf mismatch m m 1 0.8060 
19-May-2018_15:24:33 Exp 7323 20 male R 1 2 1 immoralSelf immoralOther mismatch m m 1 0.8137 
19-May-2018_15:24:35 Exp 7323 20 male R 1 2 2 moralOther immoralOther mismatch m m 1 0.8203 
19-May-2018_15:24:37 Exp 7323 20 male R 1 2 3 immoralOther immoralOther match n n 1 0.6648 
19-May-2018_15:24:40 Exp 7323 20 male R 1 2 4 immoralOther immoralOther match n n 1 0.8125 
19-May-2018_15:24:42 Exp 7323 20 male R 1 2 5 moralOther immoralSelf mismatch m m 1 0.8025 
19-May-2018_15:24:44 Exp 7323 20 male R 1 2 6 immoralSelf immoralSelf match n n 1 0.7147 
19-May-2018_15:24:46 Exp 7323 20 male R 1 2 7 immoralSelf immoralSelf match n n 1 0.7088 
19-May-2018_15:24:49 Exp 7323 20 male R 1 2 8 immoralSelf moralOther mismatch m m 1 0.6630 
19-May-2018_15:24:51 Exp 7323 20 male R 1 2 9 moralSelf moralOther mismatch m n 0 0.7552 
19-May-2018_15:24:53 Exp 7323 20 male R 1 2 10 immoralSelf moralSelf mismatch m m 1 0.8373 
19-May-2018_15:24:56 Exp 7323 20 male R 1 2 11 moralOther moralOther match n m 0 0.8294 
19-May-2018_15:24:58 Exp 7323 20 male R 1 2 12 immoralOther moralOther mismatch m m 1 0.7755 
19-May-2018_15:25:00 Exp 7323 20 male R 1 2 13 moralSelf moralSelf match n n 1 0.7496 
19-May-2018_15:25:02 Exp 7323 20 male R 1 2 14 immoralOther moralSelf mismatch m m 1 0.7198 
19-May-2018_15:25:05 Exp 7323 20 male R 1 2 15 moralOther moralOther match n m 0 0.8239 
19-May-2018_15:25:07 Exp 7323 20 male R 1 2 16 immoralSelf immoralSelf match n n 1 0.7720 
19-May-2018_15:25:09 Exp 7323 20 male R 1 2 17 immoralOther immoralOther match n n 1 0.7381 
19-May-2018_15:25:12 Exp 7323 20 male R 1 2 18 moralSelf moralSelf match n n 1 0.7743 
19-May-2018_15:25:14 Exp 7323 20 male R 1 2 19 moralSelf immoralSelf mismatch m n 0 0.6125 
19-May-2018_15:25:16 Exp 7323 20 male R 1 2 20 moralOther moralOther match n n 1 0.7146 
19-May-2018_15:25:18 Exp 7323 20 male R 1 2 21 moralSelf moralOther mismatch m n 0 0.6608 
19-May-2018_15:25:20 Exp 7323 20 male R 1 2 22 moralOther immoralOther mismatch m n 0 0.6569 
19-May-2018_15:25:23 Exp 7323 20 male R 1 2 23 moralSelf moralSelf match n m 0 0.7429 
19-May-2018_15:25:25 Exp 7323 20 male R 1 2 24 immoralOther moralSelf mismatch m m 1 0.7710 
19-May-2018_15:25:27 Exp 7323 20 male R 1 3 1 immoralOther immoralOther match n n 1 0.9773 
19-May-2018_15:25:30 Exp 7323 20 male R 1 3 2 immoralOther moralSelf mismatch m m 1 0.8053 
19-May-2018_15:25:32 Exp 7323 20 male R 1 3 3 moralOther moralSelf mismatch m m 1 0.8695 
19-May-2018_15:25:34 Exp 7323 20 male R 1 3 4 immoralSelf immoralSelf match n n 1 0.7916 
19-May-2018_15:25:37 Exp 7323 20 male R 1 3 5 moralOther moralOther match n n 1 0.7537 
19-May-2018_15:25:39 Exp 7323 20 male R 1 3 6 moralOther moralOther match n n 1 0.6118 
19-May-2018_15:25:41 Exp 7323 20 male R 1 3 7 immoralSelf immoralSelf match n n 1 0.8581 
19-May-2018_15:25:44 Exp 7323 20 male R 1 3 8 immoralOther moralSelf mismatch m m 1 0.9341 
19-May-2018_15:25:46 Exp 7323 20 male R 1 3 9 moralSelf moralSelf match n n 1 0.7164 
19-May-2018_15:25:48 Exp 7323 20 male R 1 3 10 moralSelf immoralOther mismatch m m 1 0.8144 
19-May-2018_15:25:50 Exp 7323 20 male R 1 3 11 moralOther moralOther match n n 1 0.7565 
19-May-2018_15:25:53 Exp 7323 20 male R 1 3 12 immoralSelf moralOther mismatch m m 1 0.8547 
19-May-2018_15:25:55 Exp 7323 20 male R 1 3 13 moralSelf moralSelf match n n 1 0.7648 
19-May-2018_15:25:57 Exp 7323 20 male R 1 3 14 immoralOther immoralOther match n n 1 0.7174 
19-May-2018_15:26:00 Exp 7323 20 male R 1 3 15 immoralSelf moralOther mismatch m m 1 0.8211 
19-May-2018_15:26:02 Exp 7323 20 male R 1 3 16 moralSelf moralOther mismatch m m 1 0.8492 
19-May-2018_15:26:04 Exp 7323 20 male R 1 3 17 immoralOther immoralOther match n n 1 0.7033 
19-May-2018_15:26:07 Exp 7323 20 male R 1 3 18 immoralSelf moralOther mismatch m m 1 0.8194 
19-May-2018_15:26:09 Exp 7323 20 male R 1 3 19 immoralOther moralSelf mismatch m m 1 0.8076 
19-May-2018_15:26:11 Exp 7323 20 male R 1 3 20 moralOther immoralOther mismatch m m 1 0.8777 
19-May-2018_15:26:14 Exp 7323 20 male R 1 3 21 moralOther immoralSelf mismatch m m 1 0.9018 
19-May-2018_15:26:16 Exp 7323 20 male R 1 3 22 moralSelf moralOther mismatch m m 1 0.9460 
19-May-2018_15:26:19 Exp 7323 20 male R 1 3 23 immoralSelf immoralSelf match n m 0 0.8300 
19-May-2018_15:26:21 Exp 7323 20 male R 1 3 24 moralSelf moralSelf match n n 1 0.6403 
19-May-2018_15:26:38 Exp 7323 20 male R 1 4 1 immoralSelf immoralOther mismatch m m 1 0.7673 
19-May-2018_15:26:41 Exp 7323 20 male R 1 4 2 immoralOther immoralOther match n m 0 0.7974 
19-May-2018_15:26:43 Exp 7323 20 male R 1 4 3 immoralOther immoralOther match n n 1 0.5415 
19-May-2018_15:26:45 Exp 7323 20 male R 1 4 4 moralOther moralOther match n n 1 0.7856 
19-May-2018_15:26:47 Exp 7323 20 male R 1 4 5 moralSelf moralOther mismatch m m 1 0.6538 
19-May-2018_15:26:49 Exp 7323 20 male R 1 4 6 immoralOther immoralOther match n n 1 0.6039 
19-May-2018_15:26:52 Exp 7323 20 male R 1 4 7 moralSelf immoralSelf mismatch m m 1 0.7240 
19-May-2018_15:26:54 Exp 7323 20 male R 1 4 8 moralSelf moralOther mismatch m m 1 0.7881 
19-May-2018_15:26:56 Exp 7323 20 male R 1 4 9 moralSelf moralSelf match n n 1 0.7183 
19-May-2018_15:26:58 Exp 7323 20 male R 1 4 10 immoralSelf immoralSelf match n n 1 0.6945 
19-May-2018_15:27:01 Exp 7323 20 male R 1 4 11 immoralOther moralOther mismatch m m 1 0.7886 
19-May-2018_15:27:03 Exp 7323 20 male R 1 4 12 immoralSelf immoralSelf match n n 1 0.8546 
19-May-2018_15:27:05 Exp 7323 20 male R 1 4 13 moralOther immoralSelf mismatch m m 1 0.8288 
19-May-2018_15:27:08 Exp 7323 20 male R 1 4 14 immoralSelf immoralSelf match n n 1 0.7189 
19-May-2018_15:27:10 Exp 7323 20 male R 1 4 15 immoralSelf moralOther mismatch m m 1 0.9351 
19-May-2018_15:27:13 Exp 7323 20 male R 1 4 16 immoralOther moralOther mismatch m m 1 0.8212 
19-May-2018_15:27:15 Exp 7323 20 male R 1 4 17 moralOther immoralOther mismatch m m 1 0.7213 
19-May-2018_15:27:17 Exp 7323 20 male R 1 4 18 immoralOther moralSelf mismatch m m 1 0.7935 
19-May-2018_15:27:19 Exp 7323 20 male R 1 4 19 moralSelf moralSelf match n n 1 0.5957 
19-May-2018_15:27:22 Exp 7323 20 male R 1 4 20 moralOther moralOther match n m 0 0.8617 
19-May-2018_15:27:24 Exp 7323 20 male R 1 4 21 moralSelf moralSelf match n n 1 0.6898 
19-May-2018_15:27:26 Exp 7323 20 male R 1 4 22 moralOther moralSelf mismatch m m 1 0.8160 
19-May-2018_15:27:28 Exp 7323 20 male R 1 4 23 immoralSelf moralOther mismatch m m 1 0.8461 
19-May-2018_15:27:31 Exp 7323 20 male R 1 4 24 moralOther moralOther match n n 1 0.7105 
19-May-2018_15:27:33 Exp 7323 20 male R 1 5 1 immoralSelf immoralSelf match n n 1 0.8084 
19-May-2018_15:27:35 Exp 7323 20 male R 1 5 2 moralOther immoralOther mismatch m m 1 0.7585 
19-May-2018_15:27:38 Exp 7323 20 male R 1 5 3 immoralOther moralOther mismatch m m 1 1.0387 
19-May-2018_15:27:40 Exp 7323 20 male R 1 5 4 immoralOther immoralOther match n n 1 0.6787 
19-May-2018_15:27:42 Exp 7323 20 male R 1 5 5 immoralSelf immoralSelf match n n 1 0.7908 
19-May-2018_15:27:45 Exp 7323 20 male R 1 5 6 immoralOther moralSelf mismatch m m 1 0.7850 
19-May-2018_15:27:47 Exp 7323 20 male R 1 5 7 moralOther immoralOther mismatch m m 1 0.6852 
19-May-2018_15:27:49 Exp 7323 20 male R 1 5 8 moralOther moralOther match n m 0 0.7494 
19-May-2018_15:27:51 Exp 7323 20 male R 1 5 9 moralSelf moralSelf match n n 1 0.6475 
19-May-2018_15:27:54 Exp 7323 20 male R 1 5 10 moralSelf immoralOther mismatch m m 1 0.7096 
19-May-2018_15:27:56 Exp 7323 20 male R 1 5 11 immoralSelf moralSelf mismatch m n 0 0.8158 
19-May-2018_15:27:58 Exp 7323 20 male R 1 5 12 immoralSelf moralOther mismatch m m 1 0.7979 
19-May-2018_15:28:00 Exp 7323 20 male R 1 5 13 moralSelf moralSelf match n n 1 0.7099 
19-May-2018_15:28:03 Exp 7323 20 male R 1 5 14 moralOther immoralOther mismatch m m 1 0.7201 
19-May-2018_15:28:05 Exp 7323 20 male R 1 5 15 immoralOther immoralOther match n n 1 0.6721 
19-May-2018_15:28:07 Exp 7323 20 male R 1 5 16 immoralSelf moralOther mismatch m m 1 0.7544 
19-May-2018_15:28:09 Exp 7323 20 male R 1 5 17 moralSelf immoralOther mismatch m m 1 0.7485 
19-May-2018_15:28:12 Exp 7323 20 male R 1 5 18 immoralSelf immoralSelf match n n 1 0.8865 
19-May-2018_15:28:14 Exp 7323 20 male R 1 5 19 moralSelf moralSelf match n n 1 0.7508 
19-May-2018_15:28:16 Exp 7323 20 male R 1 5 20 moralOther moralOther match n n 1 0.8489 
19-May-2018_15:28:19 Exp 7323 20 male R 1 5 21 moralSelf immoralSelf mismatch m NA -1 1.0790 
19-May-2018_15:28:21 Exp 7323 20 male R 1 5 22 immoralOther immoralSelf mismatch m m 1 0.8951 
19-May-2018_15:28:24 Exp 7323 20 male R 1 5 23 immoralOther immoralOther match n n 1 0.6932 
19-May-2018_15:28:26 Exp 7323 20 male R 1 5 24 moralOther moralOther match n n 1 0.6834 
19-May-2018_15:28:31 Exp 7323 20 male R 2 1 1 immoralSelf moralSelf mismatch m NA -1 1.0790 
19-May-2018_15:28:34 Exp 7323 20 male R 2 1 2 immoralOther immoralSelf mismatch m n 0 0.8219 
19-May-2018_15:28:36 Exp 7323 20 male R 2 1 3 moralSelf immoralOther mismatch m m 1 0.7460 
19-May-2018_15:28:38 Exp 7323 20 male R 2 1 4 moralOther immoralOther mismatch m m 1 0.8621 
19-May-2018_15:28:41 Exp 7323 20 male R 2 1 5 moralOther moralOther match n n 1 0.6982 
19-May-2018_15:28:43 Exp 7323 20 male R 2 1 6 immoralOther moralOther mismatch m m 1 0.7023 
19-May-2018_15:28:45 Exp 7323 20 male R 2 1 7 moralSelf moralSelf match n n 1 0.7225 
19-May-2018_15:28:47 Exp 7323 20 male R 2 1 8 immoralSelf immoralSelf match n n 1 0.8427 
19-May-2018_15:28:50 Exp 7323 20 male R 2 1 9 moralSelf immoralOther mismatch m m 1 0.7068 
19-May-2018_15:28:52 Exp 7323 20 male R 2 1 10 moralOther moralSelf mismatch m m 1 0.8369 
19-May-2018_15:28:54 Exp 7323 20 male R 2 1 11 moralSelf moralSelf match n n 1 0.6630 
19-May-2018_15:28:56 Exp 7323 20 male R 2 1 12 immoralSelf immoralSelf match n n 1 0.6271 
19-May-2018_15:28:59 Exp 7323 20 male R 2 1 13 immoralSelf moralOther mismatch m m 1 0.7272 
19-May-2018_15:29:01 Exp 7323 20 male R 2 1 14 moralSelf moralSelf match n n 1 0.5734 
19-May-2018_15:29:03 Exp 7323 20 male R 2 1 15 immoralOther immoralOther match n n 1 0.6995 
19-May-2018_15:29:05 Exp 7323 20 male R 2 1 16 moralOther moralOther match n n 1 0.8475 
19-May-2018_15:29:07 Exp 7323 20 male R 2 1 17 moralOther moralOther match n n 1 0.5417 
19-May-2018_15:29:09 Exp 7323 20 male R 2 1 18 immoralOther immoralOther match n n 1 0.5779 
19-May-2018_15:29:12 Exp 7323 20 male R 2 1 19 immoralOther immoralOther match n n 1 0.5980 
19-May-2018_15:29:14 Exp 7323 20 male R 2 1 20 immoralSelf moralSelf mismatch m m 1 0.7262 
19-May-2018_15:29:16 Exp 7323 20 male R 2 1 21 moralSelf immoralOther mismatch m m 1 0.6942 
19-May-2018_15:29:18 Exp 7323 20 male R 2 1 22 immoralOther moralOther mismatch m m 1 0.7804 
19-May-2018_15:29:20 Exp 7323 20 male R 2 1 23 moralOther immoralOther mismatch m n 0 0.6245 
19-May-2018_15:29:23 Exp 7323 20 male R 2 1 24 immoralSelf immoralSelf match n n 1 0.7486 
19-May-2018_15:29:25 Exp 7323 20 male R 2 2 1 immoralOther moralOther mismatch m m 1 0.7347 
19-May-2018_15:29:27 Exp 7323 20 male R 2 2 2 moralOther moralOther match n n 1 0.8769 
19-May-2018_15:29:30 Exp 7323 20 male R 2 2 3 moralOther moralSelf mismatch m m 1 0.8150 
19-May-2018_15:29:32 Exp 7323 20 male R 2 2 4 immoralOther immoralOther match n n 1 0.5973 
19-May-2018_15:29:34 Exp 7323 20 male R 2 2 5 immoralOther moralSelf mismatch m m 1 0.6294 
19-May-2018_15:29:36 Exp 7323 20 male R 2 2 6 immoralOther immoralOther match n n 1 0.6394 
19-May-2018_15:29:38 Exp 7323 20 male R 2 2 7 moralSelf immoralOther mismatch m m 1 0.7995 
19-May-2018_15:29:41 Exp 7323 20 male R 2 2 8 moralOther moralSelf mismatch m m 1 0.8876 
19-May-2018_15:29:43 Exp 7323 20 male R 2 2 9 immoralOther moralOther mismatch m m 1 0.7018 
19-May-2018_15:29:45 Exp 7323 20 male R 2 2 10 moralOther moralSelf mismatch m m 1 0.7778 
19-May-2018_15:29:48 Exp 7323 20 male R 2 2 11 moralOther moralOther match n m 0 0.7421 
19-May-2018_15:29:50 Exp 7323 20 male R 2 2 12 moralSelf immoralSelf mismatch m NA -1 1.0790 
19-May-2018_15:29:52 Exp 7323 20 male R 2 2 13 immoralSelf immoralSelf match n n 1 0.7064 
19-May-2018_15:29:55 Exp 7323 20 male R 2 2 14 immoralSelf immoralSelf match n m 0 0.7424 
19-May-2018_15:29:57 Exp 7323 20 male R 2 2 15 immoralSelf moralOther mismatch m NA -1 1.0790 
19-May-2018_15:30:00 Exp 7323 20 male R 2 2 16 moralOther moralOther match n NA -1 1.0790 
19-May-2018_15:30:02 Exp 7323 20 male R 2 2 17 immoralSelf immoralSelf match n n 1 0.7548 
19-May-2018_15:30:04 Exp 7323 20 male R 2 2 18 moralSelf moralSelf match n n 1 0.6531 
19-May-2018_15:30:07 Exp 7323 20 male R 2 2 19 immoralSelf moralSelf mismatch m m 1 0.7071 
19-May-2018_15:30:09 Exp 7323 20 male R 2 2 20 immoralSelf moralSelf mismatch m m 1 0.8532 
19-May-2018_15:30:11 Exp 7323 20 male R 2 2 21 moralSelf immoralOther mismatch m m 1 0.7154 
19-May-2018_15:30:13 Exp 7323 20 male R 2 2 22 immoralOther immoralOther match n n 1 0.6375 
19-May-2018_15:30:16 Exp 7323 20 male R 2 2 23 moralSelf moralSelf match n m 0 0.8057 
19-May-2018_15:30:18 Exp 7323 20 male R 2 2 24 moralSelf moralSelf match n n 1 0.5497 
19-May-2018_15:30:20 Exp 7323 20 male R 2 3 1 immoralOther immoralOther match n n 1 0.6160 
19-May-2018_15:30:22 Exp 7323 20 male R 2 3 2 immoralSelf immoralSelf match n n 1 0.7100 
19-May-2018_15:30:24 Exp 7323 20 male R 2 3 3 immoralSelf moralSelf mismatch m m 1 0.7362 
19-May-2018_15:30:27 Exp 7323 20 male R 2 3 4 moralSelf immoralOther mismatch m m 1 0.6863 
19-May-2018_15:30:29 Exp 7323 20 male R 2 3 5 immoralOther immoralOther match n n 1 0.6464 
19-May-2018_15:30:31 Exp 7323 20 male R 2 3 6 immoralSelf immoralSelf match n n 1 0.6865 
19-May-2018_15:30:33 Exp 7323 20 male R 2 3 7 moralSelf moralSelf match n n 1 0.6786 
19-May-2018_15:30:35 Exp 7323 20 male R 2 3 8 moralSelf moralOther mismatch m m 1 0.7347 
19-May-2018_15:30:38 Exp 7323 20 male R 2 3 9 moralOther moralSelf mismatch m m 1 0.7491 
19-May-2018_15:30:40 Exp 7323 20 male R 2 3 10 immoralSelf moralOther mismatch m m 1 0.9030 
19-May-2018_15:30:42 Exp 7323 20 male R 2 3 11 immoralOther moralOther mismatch m m 1 0.7391 
19-May-2018_15:30:45 Exp 7323 20 male R 2 3 12 moralSelf moralSelf match n n 1 0.7353 
19-May-2018_15:30:47 Exp 7323 20 male R 2 3 13 immoralOther moralOther mismatch m m 1 0.7094 
19-May-2018_15:30:49 Exp 7323 20 male R 2 3 14 immoralOther immoralOther match n n 1 0.7436 
19-May-2018_15:30:51 Exp 7323 20 male R 2 3 15 moralOther immoralOther mismatch m m 1 0.6597 
19-May-2018_15:30:53 Exp 7323 20 male R 2 3 16 immoralOther moralOther mismatch m m 1 0.6880 
19-May-2018_15:30:56 Exp 7323 20 male R 2 3 17 immoralSelf moralSelf mismatch m n 0 0.8139 
19-May-2018_15:30:58 Exp 7323 20 male R 2 3 18 moralSelf moralSelf match n n 1 0.6520 
19-May-2018_15:31:00 Exp 7323 20 male R 2 3 19 moralOther moralOther match n m 0 0.7862 
19-May-2018_15:31:03 Exp 7323 20 male R 2 3 20 immoralSelf immoralSelf match n n 1 0.8704 
19-May-2018_15:31:05 Exp 7323 20 male R 2 3 21 moralOther immoralOther mismatch m m 1 0.8404 
19-May-2018_15:31:07 Exp 7323 20 male R 2 3 22 moralOther moralOther match n m 0 0.9206 
19-May-2018_15:31:09 Exp 7323 20 male R 2 3 23 moralOther moralOther match n n 1 0.4809 
19-May-2018_15:31:12 Exp 7323 20 male R 2 3 24 moralSelf immoralSelf mismatch m m 1 0.8329 
19-May-2018_15:31:22 Exp 7323 20 male R 2 4 1 moralSelf moralSelf match n n 1 0.6194 
19-May-2018_15:31:25 Exp 7323 20 male R 2 4 2 moralSelf immoralSelf mismatch m m 1 0.7117 
19-May-2018_15:31:27 Exp 7323 20 male R 2 4 3 immoralOther immoralSelf mismatch m m 1 0.8097 
19-May-2018_15:31:29 Exp 7323 20 male R 2 4 4 immoralSelf immoralSelf match n n 1 0.7917 
19-May-2018_15:31:31 Exp 7323 20 male R 2 4 5 immoralOther immoralOther match n n 1 0.6339 
19-May-2018_15:31:34 Exp 7323 20 male R 2 4 6 moralOther moralOther match n n 1 0.7482 
19-May-2018_15:31:36 Exp 7323 20 male R 2 4 7 immoralOther moralOther mismatch m m 1 0.6783 
19-May-2018_15:31:38 Exp 7323 20 male R 2 4 8 moralOther moralOther match n n 1 0.6863 
19-May-2018_15:31:40 Exp 7323 20 male R 2 4 9 immoralSelf immoralSelf match n m 0 0.8144 
19-May-2018_15:31:42 Exp 7323 20 male R 2 4 10 immoralOther immoralOther match n n 1 0.6366 
19-May-2018_15:31:45 Exp 7323 20 male R 2 4 11 moralSelf moralSelf match n n 1 0.6707 
19-May-2018_15:31:47 Exp 7323 20 male R 2 4 12 immoralOther moralOther mismatch m m 1 0.7528 
19-May-2018_15:31:49 Exp 7323 20 male R 2 4 13 immoralSelf immoralSelf match n n 1 0.6269 
19-May-2018_15:31:51 Exp 7323 20 male R 2 4 14 immoralSelf moralSelf mismatch m m 1 0.7270 
19-May-2018_15:31:53 Exp 7323 20 male R 2 4 15 moralOther moralSelf mismatch m n 0 0.6372 
19-May-2018_15:31:56 Exp 7323 20 male R 2 4 16 moralOther immoralSelf mismatch m n 0 0.5733 
19-May-2018_15:31:58 Exp 7323 20 male R 2 4 17 immoralSelf moralSelf mismatch m n 0 0.8914 
19-May-2018_15:32:00 Exp 7323 20 male R 2 4 18 moralSelf immoralSelf mismatch m m 1 0.8016 
19-May-2018_15:32:02 Exp 7323 20 male R 2 4 19 immoralOther immoralOther match n n 1 0.6417 
19-May-2018_15:32:05 Exp 7323 20 male R 2 4 20 moralOther moralOther match n m 0 0.9058 
19-May-2018_15:32:07 Exp 7323 20 male R 2 4 21 moralOther immoralSelf mismatch m m 1 0.8940 
19-May-2018_15:32:10 Exp 7323 20 male R 2 4 22 immoralSelf moralOther mismatch m m 1 0.8361 
19-May-2018_15:32:12 Exp 7323 20 male R 2 4 23 moralSelf immoralSelf mismatch m m 1 0.8063 
19-May-2018_15:32:14 Exp 7323 20 male R 2 4 24 moralSelf moralSelf match n n 1 0.9343 
19-May-2018_15:32:17 Exp 7323 20 male R 2 5 1 immoralOther immoralOther match n n 1 0.6925 
19-May-2018_15:32:19 Exp 7323 20 male R 2 5 2 immoralSelf moralOther mismatch m m 1 0.9787 
19-May-2018_15:32:21 Exp 7323 20 male R 2 5 3 moralSelf immoralSelf mismatch m m 1 0.7907 
19-May-2018_15:32:24 Exp 7323 20 male R 2 5 4 immoralSelf immoralSelf match n n 1 0.9051 
19-May-2018_15:32:26 Exp 7323 20 male R 2 5 5 immoralSelf immoralSelf match n n 1 0.8530 
19-May-2018_15:32:28 Exp 7323 20 male R 2 5 6 moralOther moralOther match n n 1 0.6431 
19-May-2018_15:32:31 Exp 7323 20 male R 2 5 7 immoralSelf moralOther mismatch m m 1 0.7954 
19-May-2018_15:32:33 Exp 7323 20 male R 2 5 8 moralOther immoralOther mismatch m m 1 0.7494 
19-May-2018_15:32:35 Exp 7323 20 male R 2 5 9 immoralOther immoralOther match n n 1 0.6396 
19-May-2018_15:32:37 Exp 7323 20 male R 2 5 10 immoralSelf immoralSelf match n m 0 0.7677 
19-May-2018_15:32:40 Exp 7323 20 male R 2 5 11 moralOther moralOther match n n 1 0.8138 
19-May-2018_15:32:42 Exp 7323 20 male R 2 5 12 moralSelf immoralSelf mismatch m m 1 0.9160 
19-May-2018_15:32:44 Exp 7323 20 male R 2 5 13 moralSelf moralSelf match n n 1 0.7740 
19-May-2018_15:32:47 Exp 7323 20 male R 2 5 14 immoralOther immoralSelf mismatch m n 0 0.6282 
19-May-2018_15:32:49 Exp 7323 20 male R 2 5 15 immoralSelf moralOther mismatch m m 1 0.7104 
19-May-2018_15:32:51 Exp 7323 20 male R 2 5 16 moralSelf moralSelf match n n 1 0.8165 
19-May-2018_15:32:53 Exp 7323 20 male R 2 5 17 moralSelf immoralSelf mismatch m m 1 0.7266 
19-May-2018_15:32:56 Exp 7323 20 male R 2 5 18 moralSelf moralSelf match n n 1 0.6548 
19-May-2018_15:32:58 Exp 7323 20 male R 2 5 19 immoralOther moralOther mismatch m m 1 0.7249 
19-May-2018_15:33:00 Exp 7323 20 male R 2 5 20 moralOther immoralSelf mismatch m m 1 0.7970 
19-May-2018_15:33:02 Exp 7323 20 male R 2 5 21 moralOther immoralSelf mismatch m m 1 0.6791 
19-May-2018_15:33:04 Exp 7323 20 male R 2 5 22 immoralOther immoralOther match n n 1 0.5912 
19-May-2018_15:33:07 Exp 7323 20 male R 2 5 23 immoralOther moralOther mismatch m m 1 0.7853 
19-May-2018_15:33:09 Exp 7323 20 male R 2 5 24 moralOther moralOther match n n 1 0.5975 
19-May-2018_15:33:14 Exp 7323 20 male R 3 1 1 moralSelf immoralSelf mismatch m NA -1 1.0790 
19-May-2018_15:33:17 Exp 7323 20 male R 3 1 2 moralOther moralOther match n n 1 0.6319 
19-May-2018_15:33:19 Exp 7323 20 male R 3 1 3 immoralOther moralOther mismatch m m 1 0.7941 
19-May-2018_15:33:21 Exp 7323 20 male R 3 1 4 immoralSelf immoralSelf match n n 1 0.8122 
19-May-2018_15:33:23 Exp 7323 20 male R 3 1 5 immoralOther immoralOther match n n 1 0.6263 
19-May-2018_15:33:26 Exp 7323 20 male R 3 1 6 moralSelf moralSelf match n n 1 0.6304 
19-May-2018_15:33:28 Exp 7323 20 male R 3 1 7 moralSelf moralSelf match n n 1 0.6645 
19-May-2018_15:33:30 Exp 7323 20 male R 3 1 8 moralOther immoralOther mismatch m n 0 0.5727 
19-May-2018_15:33:32 Exp 7323 20 male R 3 1 9 immoralOther immoralOther match n n 1 0.5708 
19-May-2018_15:33:34 Exp 7323 20 male R 3 1 10 moralSelf moralOther mismatch m n 0 0.6249 
19-May-2018_15:33:37 Exp 7323 20 male R 3 1 11 moralSelf moralSelf match n NA -1 1.0790 
19-May-2018_15:33:39 Exp 7323 20 male R 3 1 12 immoralSelf immoralSelf match n NA -1 1.0790 
19-May-2018_15:33:41 Exp 7323 20 male R 3 1 13 moralOther immoralOther mismatch m m 1 0.6933 
19-May-2018_15:33:44 Exp 7323 20 male R 3 1 14 moralOther moralOther match n n 1 0.7075 
19-May-2018_15:33:46 Exp 7323 20 male R 3 1 15 moralSelf moralOther mismatch m m 1 0.8536 
19-May-2018_15:33:48 Exp 7323 20 male R 3 1 16 moralOther moralSelf mismatch m n 0 0.6597 
19-May-2018_15:33:50 Exp 7323 20 male R 3 1 17 immoralSelf immoralSelf match n n 1 0.6639 
19-May-2018_15:33:53 Exp 7323 20 male R 3 1 18 immoralOther moralOther mismatch m m 1 0.7000 
19-May-2018_15:33:55 Exp 7323 20 male R 3 1 19 immoralSelf immoralOther mismatch m m 1 0.7442 
19-May-2018_15:33:57 Exp 7323 20 male R 3 1 20 immoralOther immoralOther match n n 1 0.6042 
19-May-2018_15:33:59 Exp 7323 20 male R 3 1 21 immoralSelf immoralOther mismatch m m 1 0.6684 
19-May-2018_15:34:01 Exp 7323 20 male R 3 1 22 immoralOther immoralSelf mismatch m m 1 0.7425 
19-May-2018_15:34:04 Exp 7323 20 male R 3 1 23 moralOther moralOther match n n 1 0.6267 
19-May-2018_15:34:06 Exp 7323 20 male R 3 1 24 immoralSelf moralOther mismatch m m 1 0.9668 
19-May-2018_15:34:08 Exp 7323 20 male R 3 2 1 moralOther moralOther match n n 1 0.6788 
19-May-2018_15:34:10 Exp 7323 20 male R 3 2 2 immoralSelf moralOther mismatch m m 1 0.5910 
19-May-2018_15:34:13 Exp 7323 20 male R 3 2 3 immoralOther moralSelf mismatch m m 1 0.6891 
19-May-2018_15:34:15 Exp 7323 20 male R 3 2 4 moralOther moralOther match n n 1 0.5272 
19-May-2018_15:34:17 Exp 7323 20 male R 3 2 5 immoralOther immoralSelf mismatch m m 1 0.7653 
19-May-2018_15:34:19 Exp 7323 20 male R 3 2 6 immoralSelf immoralSelf match n m 0 0.7015 
19-May-2018_15:34:21 Exp 7323 20 male R 3 2 7 immoralSelf immoralSelf match n n 1 0.4816 
19-May-2018_15:34:23 Exp 7323 20 male R 3 2 8 moralSelf moralSelf match n n 1 0.7218 
19-May-2018_15:34:26 Exp 7323 20 male R 3 2 9 immoralSelf moralOther mismatch m m 1 0.7938 
19-May-2018_15:34:28 Exp 7323 20 male R 3 2 10 moralOther immoralSelf mismatch m m 1 0.7719 
19-May-2018_15:34:30 Exp 7323 20 male R 3 2 11 moralOther moralOther match n n 1 0.6901 
19-May-2018_15:34:32 Exp 7323 20 male R 3 2 12 moralSelf immoralOther mismatch m m 1 0.5843 
19-May-2018_15:34:35 Exp 7323 20 male R 3 2 13 moralOther moralSelf mismatch m m 1 0.7084 
19-May-2018_15:34:37 Exp 7323 20 male R 3 2 14 immoralSelf moralOther mismatch m n 0 0.7185 
19-May-2018_15:34:39 Exp 7323 20 male R 3 2 15 moralSelf moralSelf match n n 1 0.7507 
19-May-2018_15:34:41 Exp 7323 20 male R 3 2 16 immoralOther immoralSelf mismatch m m 1 0.7447 
19-May-2018_15:34:44 Exp 7323 20 male R 3 2 17 immoralOther immoralOther match n n 1 0.7330 
19-May-2018_15:34:46 Exp 7323 20 male R 3 2 18 moralSelf moralSelf match n n 1 0.5872 
19-May-2018_15:34:48 Exp 7323 20 male R 3 2 19 moralSelf immoralSelf mismatch m m 1 0.7012 
19-May-2018_15:34:50 Exp 7323 20 male R 3 2 20 immoralSelf immoralSelf match n n 1 0.7613 
19-May-2018_15:34:52 Exp 7323 20 male R 3 2 21 immoralOther immoralOther match n n 1 0.6814 
19-May-2018_15:34:55 Exp 7323 20 male R 3 2 22 moralSelf immoralOther mismatch m m 1 0.6575 
19-May-2018_15:34:57 Exp 7323 20 male R 3 2 23 immoralOther immoralOther match n n 1 0.6696 
19-May-2018_15:34:59 Exp 7323 20 male R 3 2 24 moralOther immoralOther mismatch m m 1 0.5998 
19-May-2018_15:35:01 Exp 7323 20 male R 3 3 1 moralOther moralOther match n n 1 0.7839 
19-May-2018_15:35:03 Exp 7323 20 male R 3 3 2 moralOther moralSelf mismatch m m 1 0.6840 
19-May-2018_15:35:06 Exp 7323 20 male R 3 3 3 moralSelf moralOther mismatch m n 0 0.7081 
19-May-2018_15:35:08 Exp 7323 20 male R 3 3 4 immoralOther moralOther mismatch m m 1 0.6943 
19-May-2018_15:35:10 Exp 7323 20 male R 3 3 5 immoralOther immoralOther match n n 1 0.6604 
19-May-2018_15:35:12 Exp 7323 20 male R 3 3 6 immoralSelf immoralSelf match n m 0 0.8245 
19-May-2018_15:35:14 Exp 7323 20 male R 3 3 7 immoralSelf immoralSelf match n n 1 0.6206 
19-May-2018_15:35:17 Exp 7323 20 male R 3 3 8 moralOther immoralOther mismatch m m 1 0.7367 
19-May-2018_15:35:19 Exp 7323 20 male R 3 3 9 moralSelf immoralSelf mismatch m m 1 0.7510 
19-May-2018_15:35:21 Exp 7323 20 male R 3 3 10 immoralSelf immoralOther mismatch m m 1 0.7930 
19-May-2018_15:35:24 Exp 7323 20 male R 3 3 11 moralSelf moralSelf match n n 1 0.7391 
19-May-2018_15:35:26 Exp 7323 20 male R 3 3 12 immoralOther moralSelf mismatch m m 1 0.7514 
19-May-2018_15:35:28 Exp 7323 20 male R 3 3 13 moralOther moralOther match n n 1 0.6654 
19-May-2018_15:35:30 Exp 7323 20 male R 3 3 14 moralSelf moralSelf match n n 1 0.6934 
19-May-2018_15:35:32 Exp 7323 20 male R 3 3 15 moralSelf moralSelf match n n 1 0.7397 
19-May-2018_15:35:35 Exp 7323 20 male R 3 3 16 moralSelf moralOther mismatch m n 0 0.5358 
19-May-2018_15:35:37 Exp 7323 20 male R 3 3 17 immoralOther immoralOther match n n 1 0.5499 
19-May-2018_15:35:39 Exp 7323 20 male R 3 3 18 moralOther moralOther match n n 1 0.7360 
19-May-2018_15:35:41 Exp 7323 20 male R 3 3 19 immoralOther moralOther mismatch m m 1 0.7021 
19-May-2018_15:35:43 Exp 7323 20 male R 3 3 20 immoralSelf moralSelf mismatch m m 1 0.8743 
19-May-2018_15:35:46 Exp 7323 20 male R 3 3 21 moralOther moralSelf mismatch m m 1 0.8364 
19-May-2018_15:35:48 Exp 7323 20 male R 3 3 22 immoralOther immoralOther match n n 1 0.5425 
19-May-2018_15:35:50 Exp 7323 20 male R 3 3 23 immoralSelf moralOther mismatch m m 1 0.6748 
19-May-2018_15:35:52 Exp 7323 20 male R 3 3 24 immoralSelf immoralSelf match n n 1 0.9168 
19-May-2018_15:36:06 Exp 7323 20 male R 3 4 1 immoralOther immoralOther match n n 1 0.8435 
19-May-2018_15:36:08 Exp 7323 20 male R 3 4 2 moralSelf moralSelf match n n 1 0.6277 
19-May-2018_15:36:10 Exp 7323 20 male R 3 4 3 moralOther moralOther match n m 0 0.6859 
19-May-2018_15:36:12 Exp 7323 20 male R 3 4 4 immoralSelf immoralSelf match n n 1 0.6779 
19-May-2018_15:36:14 Exp 7323 20 male R 3 4 5 immoralSelf immoralSelf match n m 0 0.7580 
19-May-2018_15:36:17 Exp 7323 20 male R 3 4 6 immoralSelf moralSelf mismatch m m 1 0.8622 
19-May-2018_15:36:19 Exp 7323 20 male R 3 4 7 immoralOther immoralOther match n n 1 0.5464 
19-May-2018_15:36:21 Exp 7323 20 male R 3 4 8 immoralOther moralOther mismatch m m 1 0.9665 
19-May-2018_15:36:24 Exp 7323 20 male R 3 4 9 immoralSelf immoralSelf match n n 1 0.8466 
19-May-2018_15:36:26 Exp 7323 20 male R 3 4 10 moralSelf moralSelf match n n 1 0.7027 
19-May-2018_15:36:28 Exp 7323 20 male R 3 4 11 moralSelf immoralOther mismatch m m 1 0.8669 
19-May-2018_15:36:31 Exp 7323 20 male R 3 4 12 moralOther moralOther match n n 1 0.8150 
19-May-2018_15:36:33 Exp 7323 20 male R 3 4 13 immoralOther moralOther mismatch m m 1 0.7411 
19-May-2018_15:36:35 Exp 7323 20 male R 3 4 14 moralOther moralOther match n n 1 0.6332 
19-May-2018_15:36:37 Exp 7323 20 male R 3 4 15 immoralOther moralSelf mismatch m m 1 0.7233 
19-May-2018_15:36:40 Exp 7323 20 male R 3 4 16 moralSelf moralOther mismatch m m 1 0.7875 
19-May-2018_15:36:42 Exp 7323 20 male R 3 4 17 immoralSelf moralSelf mismatch m m 1 0.8856 
19-May-2018_15:36:44 Exp 7323 20 male R 3 4 18 moralSelf moralSelf match n n 1 0.7498 
19-May-2018_15:36:46 Exp 7323 20 male R 3 4 19 moralOther immoralOther mismatch m m 1 0.6798 
19-May-2018_15:36:49 Exp 7323 20 male R 3 4 20 moralOther immoralSelf mismatch m m 1 0.8481 
19-May-2018_15:36:51 Exp 7323 20 male R 3 4 21 moralSelf moralOther mismatch m m 1 0.9261 
19-May-2018_15:36:53 Exp 7323 20 male R 3 4 22 immoralOther immoralOther match n n 1 0.6143 
19-May-2018_15:36:56 Exp 7323 20 male R 3 4 23 immoralSelf immoralOther mismatch m m 1 0.7325 
19-May-2018_15:36:58 Exp 7323 20 male R 3 4 24 moralOther immoralSelf mismatch m m 1 0.6905 
19-May-2018_15:37:00 Exp 7323 20 male R 3 5 1 immoralOther immoralSelf mismatch m m 1 0.7766 
19-May-2018_15:37:02 Exp 7323 20 male R 3 5 2 immoralSelf immoralSelf match n m 0 0.8389 
19-May-2018_15:37:05 Exp 7323 20 male R 3 5 3 moralOther moralOther match n n 1 0.8309 
19-May-2018_15:37:07 Exp 7323 20 male R 3 5 4 immoralOther moralOther mismatch m m 1 0.7370 
19-May-2018_15:37:09 Exp 7323 20 male R 3 5 5 immoralOther immoralOther match n n 1 0.5751 
19-May-2018_15:37:11 Exp 7323 20 male R 3 5 6 moralSelf moralSelf match n n 1 0.7333 
19-May-2018_15:37:14 Exp 7323 20 male R 3 5 7 moralOther moralOther match n n 1 0.7554 
19-May-2018_15:37:16 Exp 7323 20 male R 3 5 8 moralOther immoralOther mismatch m m 1 0.8695 
19-May-2018_15:37:18 Exp 7323 20 male R 3 5 9 moralSelf moralSelf match n n 1 0.5757 
19-May-2018_15:37:20 Exp 7323 20 male R 3 5 10 immoralOther immoralOther match n n 1 0.5738 
19-May-2018_15:37:22 Exp 7323 20 male R 3 5 11 moralSelf moralOther mismatch m n 0 0.5559 
19-May-2018_15:37:25 Exp 7323 20 male R 3 5 12 moralOther immoralOther mismatch m m 1 0.6620 
19-May-2018_15:37:27 Exp 7323 20 male R 3 5 13 immoralOther moralOther mismatch m m 1 0.7222 
19-May-2018_15:37:29 Exp 7323 20 male R 3 5 14 moralSelf immoralSelf mismatch m m 1 0.6664 
19-May-2018_15:37:31 Exp 7323 20 male R 3 5 15 moralSelf immoralOther mismatch m m 1 0.6544 
19-May-2018_15:37:33 Exp 7323 20 male R 3 5 16 immoralSelf immoralSelf match n n 1 0.7406 
19-May-2018_15:37:36 Exp 7323 20 male R 3 5 17 moralOther immoralOther mismatch m m 1 0.6487 
19-May-2018_15:37:38 Exp 7323 20 male R 3 5 18 immoralSelf immoralSelf match n n 1 0.6468 
19-May-2018_15:37:40 Exp 7323 20 male R 3 5 19 immoralSelf immoralOther mismatch m m 1 0.6069 
19-May-2018_15:37:42 Exp 7323 20 male R 3 5 20 moralSelf moralSelf match n n 1 0.5990 
19-May-2018_15:37:44 Exp 7323 20 male R 3 5 21 moralOther moralOther match n n 1 0.7511 
19-May-2018_15:37:46 Exp 7323 20 male R 3 5 22 immoralOther immoralOther match n n 1 0.5613 
19-May-2018_15:37:49 Exp 7323 20 male R 3 5 23 immoralSelf immoralOther mismatch m m 1 0.7694 
19-May-2018_15:37:51 Exp 7323 20 male R 3 5 24 immoralSelf immoralOther mismatch m m 1 0.7115 
Date Prac Sub Age Sex Hand Block Bin Trial Shape Label Match CorrResp Resp ACC RT
19-May-2018_15:42:23 Exp 7323 20 male R 1 1 1 immoralOther moralSelf mismatch m NA -1 1.0790 
19-May-2018_15:42:25 Exp 7323 20 male R 1 1 2 moralSelf moralSelf match n n 1 0.6992 
19-May-2018_15:42:28 Exp 7323 20 male R 1 1 3 immoralSelf immoralSelf match n n 1 0.8234 
19-May-2018_15:42:30 Exp 7323 20 male R 1 1 4 immoralSelf immoralSelf match n n 1 0.8439 
19-May-2018_15:42:32 Exp 7323 20 male R 1 1 5 moralSelf immoralSelf mismatch m m 1 0.8355 
19-May-2018_15:42:35 Exp 7323 20 male R 1 1 6 immoralSelf moralOther mismatch m m 1 0.8138 
19-May-2018_15:42:37 Exp 7323 20 male R 1 1 7 moralSelf moralOther mismatch m m 1 0.8999 
19-May-2018_15:42:39 Exp 7323 20 male R 1 1 8 moralSelf moralSelf match n n 1 0.9600 
19-May-2018_15:42:42 Exp 7323 20 male R 1 1 9 immoralOther immoralOther match n n 1 0.8401 
19-May-2018_15:42:44 Exp 7323 20 male R 1 1 10 immoralSelf immoralSelf match n n 1 0.7761 
19-May-2018_15:42:47 Exp 7323 20 male R 1 1 11 immoralSelf immoralOther mismatch m m 1 0.8864 
19-May-2018_15:42:49 Exp 7323 20 male R 1 1 12 moralOther immoralOther mismatch m m 1 0.8465 
19-May-2018_15:42:51 Exp 7323 20 male R 1 1 13 moralSelf moralSelf match n n 1 0.8868 
19-May-2018_15:42:54 Exp 7323 20 male R 1 1 14 moralSelf moralOther mismatch m m 1 0.7668 
19-May-2018_15:42:56 Exp 7323 20 male R 1 1 15 moralOther moralOther match n n 1 0.6629 
19-May-2018_15:42:58 Exp 7323 20 male R 1 1 16 moralOther immoralOther mismatch m m 1 0.7230 
19-May-2018_15:43:00 Exp 7323 20 male R 1 1 17 immoralOther immoralOther match n n 1 0.6031 
19-May-2018_15:43:02 Exp 7323 20 male R 1 1 18 immoralSelf moralSelf mismatch m m 1 0.7473 
19-May-2018_15:43:05 Exp 7323 20 male R 1 1 19 immoralOther moralSelf mismatch m m 1 0.7894 
19-May-2018_15:43:07 Exp 7323 20 male R 1 1 20 moralOther moralOther match n n 1 0.7115 
19-May-2018_15:43:09 Exp 7323 20 male R 1 1 21 immoralOther moralSelf mismatch m m 1 0.6737 
19-May-2018_15:43:11 Exp 7323 20 male R 1 1 22 moralOther moralOther match n n 1 0.6198 
19-May-2018_15:43:13 Exp 7323 20 male R 1 1 23 moralOther immoralOther mismatch m m 1 0.6960 
19-May-2018_15:43:16 Exp 7323 20 male R 1 1 24 immoralOther immoralOther match n n 1 0.6461 
19-May-2018_15:43:18 Exp 7323 20 male R 1 2 1 moralOther immoralSelf mismatch m m 1 0.7502 
19-May-2018_15:43:20 Exp 7323 20 male R 1 2 2 immoralSelf moralOther mismatch m m 1 0.6966 
19-May-2018_15:43:22 Exp 7323 20 male R 1 2 3 moralOther moralOther match n n 1 0.6625 
19-May-2018_15:43:24 Exp 7323 20 male R 1 2 4 immoralOther immoralOther match n n 1 0.6345 
19-May-2018_15:43:27 Exp 7323 20 male R 1 2 5 moralSelf moralSelf match n n 1 0.6607 
19-May-2018_15:43:29 Exp 7323 20 male R 1 2 6 immoralSelf immoralSelf match n n 1 0.7608 
19-May-2018_15:43:31 Exp 7323 20 male R 1 2 7 moralSelf moralSelf match n n 1 0.6489 
19-May-2018_15:43:33 Exp 7323 20 male R 1 2 8 moralSelf immoralSelf mismatch m m 1 0.7591 
19-May-2018_15:43:35 Exp 7323 20 male R 1 2 9 immoralOther immoralOther match n n 1 0.5832 
19-May-2018_15:43:38 Exp 7323 20 male R 1 2 10 moralSelf moralSelf match n n 1 0.6513 
19-May-2018_15:43:40 Exp 7323 20 male R 1 2 11 moralOther immoralSelf mismatch m m 1 0.6735 
19-May-2018_15:43:42 Exp 7323 20 male R 1 2 12 immoralSelf moralSelf mismatch m m 1 0.8195 
19-May-2018_15:43:44 Exp 7323 20 male R 1 2 13 moralOther immoralSelf mismatch m m 1 0.6077 
19-May-2018_15:43:47 Exp 7323 20 male R 1 2 14 moralSelf immoralSelf mismatch m m 1 0.7338 
19-May-2018_15:43:49 Exp 7323 20 male R 1 2 15 moralOther moralOther match n n 1 0.6200 
19-May-2018_15:43:51 Exp 7323 20 male R 1 2 16 immoralOther moralOther mismatch m m 1 0.6561 
19-May-2018_15:43:53 Exp 7323 20 male R 1 2 17 immoralOther immoralOther match n n 1 0.6942 
19-May-2018_15:43:55 Exp 7323 20 male R 1 2 18 immoralSelf moralSelf mismatch m m 1 0.6443 
19-May-2018_15:43:57 Exp 7323 20 male R 1 2 19 immoralOther moralSelf mismatch m m 1 0.6843 
19-May-2018_15:44:00 Exp 7323 20 male R 1 2 20 immoralOther immoralSelf mismatch m m 1 0.6606 
19-May-2018_15:44:02 Exp 7323 20 male R 1 2 21 immoralSelf immoralSelf match n m 0 0.6086 
19-May-2018_15:44:04 Exp 7323 20 male R 1 2 22 moralOther moralOther match n n 1 0.7828 
19-May-2018_15:44:06 Exp 7323 20 male R 1 2 23 immoralSelf immoralSelf match n m 0 0.6909 
19-May-2018_15:44:09 Exp 7323 20 male R 1 2 24 moralSelf immoralSelf mismatch m n 0 0.8251 
Date Prac Sub Age Sex Hand Block Bin Trial Shape Label Match CorrResp Resp ACC RT
19-May-2018_15:48:35 Exp 7323 20 male R 1 1 1 immoralSelf moralOther mismatch m m 1 0.8782 
19-May-2018_15:48:37 Exp 7323 20 male R 1 1 2 immoralOther immoralOther match n n 1 0.7343 
19-May-2018_15:48:40 Exp 7323 20 male R 1 1 3 moralSelf moralSelf match n n 1 0.7245 
19-May-2018_15:48:42 Exp 7323 20 male R 1 1 4 moralOther moralOther match n n 1 0.8606 
19-May-2018_15:48:44 Exp 7323 20 male R 1 1 5 moralOther immoralOther mismatch m m 1 0.7451 
19-May-2018_15:48:47 Exp 7323 20 male R 1 1 6 moralSelf moralSelf match n n 1 0.7249 
19-May-2018_15:48:49 Exp 7323 20 male R 1 1 7 immoralOther moralSelf mismatch m m 1 0.7971 
19-May-2018_15:48:51 Exp 7323 20 male R 1 1 8 moralOther immoralOther mismatch m m 1 0.6692 
19-May-2018_15:48:53 Exp 7323 20 male R 1 1 9 moralOther moralOther match n n 1 0.7672 
19-May-2018_15:48:55 Exp 7323 20 male R 1 1 10 moralOther moralOther match n n 1 0.5494 
19-May-2018_15:48:58 Exp 7323 20 male R 1 1 11 immoralOther moralOther mismatch m m 1 0.6714 
19-May-2018_15:49:00 Exp 7323 20 male R 1 1 12 moralSelf moralSelf match n n 1 0.6897 
19-May-2018_15:49:02 Exp 7323 20 male R 1 1 13 immoralSelf immoralSelf match n n 1 0.6558 
19-May-2018_15:49:04 Exp 7323 20 male R 1 1 14 moralOther moralSelf mismatch m m 1 0.8219 
19-May-2018_15:49:07 Exp 7323 20 male R 1 1 15 moralSelf immoralSelf mismatch m m 1 0.7940 
19-May-2018_15:49:09 Exp 7323 20 male R 1 1 16 immoralSelf immoralSelf match n m 0 0.8041 
19-May-2018_15:49:11 Exp 7323 20 male R 1 1 17 immoralSelf immoralSelf match n n 1 0.6924 
19-May-2018_15:49:13 Exp 7323 20 male R 1 1 18 immoralOther immoralSelf mismatch m m 1 0.7224 
19-May-2018_15:49:16 Exp 7323 20 male R 1 1 19 immoralSelf moralOther mismatch m m 1 0.8025 
19-May-2018_15:49:18 Exp 7323 20 male R 1 1 20 immoralSelf moralSelf mismatch m n 0 0.8987 
19-May-2018_15:49:20 Exp 7323 20 male R 1 1 21 immoralOther immoralOther match n n 1 0.7828 
19-May-2018_15:49:23 Exp 7323 20 male R 1 1 22 moralSelf immoralSelf mismatch m m 1 0.8270 
19-May-2018_15:49:25 Exp 7323 20 male R 1 1 23 immoralOther immoralOther match n n 1 0.9190 
19-May-2018_15:49:28 Exp 7323 20 male R 1 1 24 moralSelf moralOther mismatch m m 1 1.0153 
19-May-2018_15:49:30 Exp 7323 20 male R 1 2 1 immoralSelf immoralOther mismatch m m 1 0.9013 
19-May-2018_15:49:32 Exp 7323 20 male R 1 2 2 moralOther moralOther match n n 1 0.7455 
19-May-2018_15:49:35 Exp 7323 20 male R 1 2 3 moralOther moralOther match n n 1 0.5818 
19-May-2018_15:49:37 Exp 7323 20 male R 1 2 4 immoralOther immoralOther match n n 1 0.6737 
19-May-2018_15:49:39 Exp 7323 20 male R 1 2 5 moralOther moralSelf mismatch m m 1 0.7399 
19-May-2018_15:49:41 Exp 7323 20 male R 1 2 6 moralOther immoralOther mismatch m m 1 0.7440 
19-May-2018_15:49:44 Exp 7323 20 male R 1 2 7 immoralSelf moralOther mismatch m m 1 0.7481 
19-May-2018_15:49:46 Exp 7323 20 male R 1 2 8 moralSelf moralOther mismatch m m 1 0.6703 
19-May-2018_15:49:48 Exp 7323 20 male R 1 2 9 moralSelf immoralSelf mismatch m m 1 0.8644 
19-May-2018_15:49:50 Exp 7323 20 male R 1 2 10 immoralSelf immoralSelf match n n 1 0.6286 
19-May-2018_15:49:52 Exp 7323 20 male R 1 2 11 immoralOther immoralOther match n n 1 0.5987 
19-May-2018_15:49:55 Exp 7323 20 male R 1 2 12 immoralOther immoralOther match n n 1 0.6067 
19-May-2018_15:49:57 Exp 7323 20 male R 1 2 13 moralSelf moralSelf match n n 1 0.7029 
19-May-2018_15:49:59 Exp 7323 20 male R 1 2 14 immoralSelf moralOther mismatch m m 1 0.6991 
19-May-2018_15:50:01 Exp 7323 20 male R 1 2 15 immoralSelf immoralSelf match n n 1 0.7112 
19-May-2018_15:50:03 Exp 7323 20 male R 1 2 16 immoralSelf immoralSelf match n n 1 0.5696 
19-May-2018_15:50:05 Exp 7323 20 male R 1 2 17 moralSelf immoralOther mismatch m m 1 0.6795 
19-May-2018_15:50:08 Exp 7323 20 male R 1 2 18 immoralOther immoralSelf mismatch m m 1 0.7355 
19-May-2018_15:50:10 Exp 7323 20 male R 1 2 19 moralOther immoralSelf mismatch m m 1 0.9896 
19-May-2018_15:50:12 Exp 7323 20 male R 1 2 20 moralSelf moralSelf match n n 1 0.7277 
19-May-2018_15:50:15 Exp 7323 20 male R 1 2 21 moralOther moralOther match n n 1 0.7900 
19-May-2018_15:50:17 Exp 7323 20 male R 1 2 22 moralSelf moralSelf match n n 1 0.6160 
19-May-2018_15:50:19 Exp 7323 20 male R 1 2 23 immoralOther moralOther mismatch m m 1 0.6623 
19-May-2018_15:50:21 Exp 7323 20 male R 1 2 24 immoralOther immoralSelf mismatch m m 1 0.7463 
Date Prac Sub Age Sex Hand Block Bin Trial Shape Label Match CorrResp Resp ACC RT
19-May-2018_15:54:20 Exp 7323 20 male R 1 1 1 moralSelf immoralSelf mismatch m n 0 0.6578 
19-May-2018_15:54:22 Exp 7323 20 male R 1 1 2 moralSelf moralSelf match n n 1 0.5980 
19-May-2018_15:54:24 Exp 7323 20 male R 1 1 3 moralSelf moralOther mismatch m n 0 0.6461 
19-May-2018_15:54:26 Exp 7323 20 male R 1 1 4 moralOther moralOther match n n 1 0.8703 
19-May-2018_15:54:29 Exp 7323 20 male R 1 1 5 moralSelf immoralOther mismatch m m 1 0.6963 
19-May-2018_15:54:31 Exp 7323 20 male R 1 1 6 immoralSelf immoralSelf match n n 1 0.9105 
19-May-2018_15:54:33 Exp 7323 20 male R 1 1 7 moralOther immoralSelf mismatch m m 1 0.7847 
19-May-2018_15:54:36 Exp 7323 20 male R 1 1 8 immoralOther immoralOther match n n 1 0.7088 
19-May-2018_15:54:38 Exp 7323 20 male R 1 1 9 immoralOther immoralOther match n n 1 0.5829 
19-May-2018_15:54:40 Exp 7323 20 male R 1 1 10 immoralSelf moralOther mismatch m m 1 0.7789 
19-May-2018_15:54:42 Exp 7323 20 male R 1 1 11 immoralOther immoralSelf mismatch m m 1 0.7751 
19-May-2018_15:54:45 Exp 7323 20 male R 1 1 12 immoralOther immoralSelf mismatch m m 1 0.7334 
19-May-2018_15:54:47 Exp 7323 20 male R 1 1 13 immoralOther immoralOther match n n 1 0.6114 
19-May-2018_15:54:49 Exp 7323 20 male R 1 1 14 moralOther moralOther match n n 1 0.6815 
19-May-2018_15:54:51 Exp 7323 20 male R 1 1 15 immoralSelf immoralSelf match n n 1 0.7536 
19-May-2018_15:54:53 Exp 7323 20 male R 1 1 16 moralOther moralOther match n n 1 0.6838 
19-May-2018_15:54:56 Exp 7323 20 male R 1 1 17 immoralSelf immoralSelf match n n 1 0.7399 
19-May-2018_15:54:58 Exp 7323 20 male R 1 1 18 moralSelf moralSelf match n n 1 0.6800 
19-May-2018_15:55:00 Exp 7323 20 male R 1 1 19 immoralSelf moralSelf mismatch m m 1 0.7442 
19-May-2018_15:55:02 Exp 7323 20 male R 1 1 20 moralOther immoralOther mismatch m m 1 0.7163 
19-May-2018_15:55:05 Exp 7323 20 male R 1 1 21 moralSelf moralSelf match n n 1 0.7504 
19-May-2018_15:55:07 Exp 7323 20 male R 1 1 22 moralOther immoralSelf mismatch m m 1 0.7206 
19-May-2018_15:55:09 Exp 7323 20 male R 1 1 23 immoralSelf immoralOther mismatch m m 1 0.7608 
19-May-2018_15:55:11 Exp 7323 20 male R 1 1 24 immoralOther immoralSelf mismatch m m 1 0.7048 
19-May-2018_15:55:13 Exp 7323 20 male R 1 2 1 moralSelf moralSelf match n n 1 0.6449 
19-May-2018_15:55:16 Exp 7323 20 male R 1 2 2 moralSelf immoralSelf mismatch m m 1 0.7810 
19-May-2018_15:55:18 Exp 7323 20 male R 1 2 3 immoralSelf immoralSelf match n n 1 0.6572 
19-May-2018_15:55:20 Exp 7323 20 male R 1 2 4 moralOther moralOther match n n 1 0.6774 
19-May-2018_15:55:22 Exp 7323 20 male R 1 2 5 immoralSelf immoralOther mismatch m m 1 0.7655 
19-May-2018_15:55:25 Exp 7323 20 male R 1 2 6 immoralOther immoralSelf mismatch m m 1 0.7735 
19-May-2018_15:55:27 Exp 7323 20 male R 1 2 7 immoralSelf moralOther mismatch m m 1 0.6917 
19-May-2018_15:55:29 Exp 7323 20 male R 1 2 8 moralSelf moralSelf match n n 1 0.6498 
19-May-2018_15:55:31 Exp 7323 20 male R 1 2 9 immoralOther immoralSelf mismatch m m 1 0.7041 
19-May-2018_15:55:34 Exp 7323 20 male R 1 2 10 immoralOther moralOther mismatch m m 1 0.6680 
19-May-2018_15:55:36 Exp 7323 20 male R 1 2 11 immoralSelf moralOther mismatch m m 1 0.5423 
19-May-2018_15:55:38 Exp 7323 20 male R 1 2 12 moralSelf moralOther mismatch m n 0 0.7144 
19-May-2018_15:55:40 Exp 7323 20 male R 1 2 13 immoralOther immoralOther match n n 1 0.7004 
19-May-2018_15:55:42 Exp 7323 20 male R 1 2 14 moralOther immoralOther mismatch m m 1 0.7601 
19-May-2018_15:55:44 Exp 7323 20 male R 1 2 15 moralSelf moralSelf match n n 1 0.6167 
19-May-2018_15:55:47 Exp 7323 20 male R 1 2 16 moralSelf immoralSelf mismatch m m 1 0.6228 
19-May-2018_15:55:49 Exp 7323 20 male R 1 2 17 moralOther moralOther match n n 1 0.6669 
19-May-2018_15:55:51 Exp 7323 20 male R 1 2 18 immoralSelf immoralSelf match n n 1 0.6551 
19-May-2018_15:55:53 Exp 7323 20 male R 1 2 19 immoralSelf immoralSelf match n n 1 0.5731 
19-May-2018_15:55:55 Exp 7323 20 male R 1 2 20 moralOther immoralOther mismatch m m 1 0.6273 
19-May-2018_15:55:57 Exp 7323 20 male R 1 2 21 moralOther moralSelf mismatch m m 1 0.7014 
19-May-2018_15:55:59 Exp 7323 20 male R 1 2 22 immoralOther immoralOther match n n 1 0.5775 
19-May-2018_15:56:02 Exp 7323 20 male R 1 2 23 moralOther moralOther match n m 0 0.6537 
19-May-2018_15:56:04 Exp 7323 20 male R 1 2 24 immoralOther immoralOther match n n 1 0.6598 
Date Prac Sub Age Sex Hand Block Bin Trial Shape Label Match CorrResp Resp ACC RT
19-May-2018_16:00:12 Exp 7323 20 male R 1 1 1 moralSelf moralOther mismatch m m 1 0.8580 
19-May-2018_16:00:14 Exp 7323 20 male R 1 1 2 immoralOther immoralOther match n n 1 0.8060 
19-May-2018_16:00:16 Exp 7323 20 male R 1 1 3 immoralOther moralSelf mismatch m m 1 0.7581 
19-May-2018_16:00:19 Exp 7323 20 male R 1 1 4 immoralSelf immoralSelf match n n 1 0.7342 
19-May-2018_16:00:21 Exp 7323 20 male R 1 1 5 moralSelf moralSelf match n n 1 0.7724 
19-May-2018_16:00:23 Exp 7323 20 male R 1 1 6 moralSelf moralSelf match n n 1 0.6345 
19-May-2018_16:00:25 Exp 7323 20 male R 1 1 7 immoralSelf immoralSelf match n n 1 0.6847 
19-May-2018_16:00:28 Exp 7323 20 male R 1 1 8 immoralOther moralSelf mismatch m m 1 0.7248 
19-May-2018_16:00:30 Exp 7323 20 male R 1 1 9 immoralSelf moralSelf mismatch m m 1 0.7408 
19-May-2018_16:00:32 Exp 7323 20 male R 1 1 10 immoralOther immoralSelf mismatch m m 1 0.7211 
19-May-2018_16:00:34 Exp 7323 20 male R 1 1 11 moralOther moralOther match n n 1 0.6092 
19-May-2018_16:00:36 Exp 7323 20 male R 1 1 12 moralOther moralOther match n n 1 0.5992 
19-May-2018_16:00:39 Exp 7323 20 male R 1 1 13 moralSelf moralSelf match n n 1 0.7034 
19-May-2018_16:00:41 Exp 7323 20 male R 1 1 14 moralOther moralOther match n n 1 0.6916 
19-May-2018_16:00:43 Exp 7323 20 male R 1 1 15 immoralSelf moralOther mismatch m m 1 0.7857 
19-May-2018_16:00:45 Exp 7323 20 male R 1 1 16 immoralOther immoralOther match n n 1 0.5820 
19-May-2018_16:00:47 Exp 7323 20 male R 1 1 17 immoralSelf immoralSelf match n m 0 0.7059 
19-May-2018_16:00:50 Exp 7323 20 male R 1 1 18 immoralSelf moralOther mismatch m m 1 0.7420 
19-May-2018_16:00:52 Exp 7323 20 male R 1 1 19 moralOther immoralSelf mismatch m m 1 0.8103 
19-May-2018_16:00:54 Exp 7323 20 male R 1 1 20 moralOther immoralOther mismatch m m 1 0.7283 
19-May-2018_16:00:56 Exp 7323 20 male R 1 1 21 immoralOther immoralOther match n n 1 0.5824 
19-May-2018_16:00:59 Exp 7323 20 male R 1 1 22 moralSelf immoralSelf mismatch m m 1 0.7946 
19-May-2018_16:01:01 Exp 7323 20 male R 1 1 23 moralOther moralSelf mismatch m m 1 0.7168 
19-May-2018_16:01:03 Exp 7323 20 male R 1 1 24 moralSelf immoralOther mismatch m m 1 0.6228 
19-May-2018_16:01:05 Exp 7323 20 male R 1 2 1 moralSelf moralSelf match n n 1 0.6910 
19-May-2018_16:01:07 Exp 7323 20 male R 1 2 2 immoralSelf moralSelf mismatch m m 1 0.6169 
19-May-2018_16:01:09 Exp 7323 20 male R 1 2 3 immoralOther immoralOther match n n 1 0.5913 
19-May-2018_16:01:12 Exp 7323 20 male R 1 2 4 moralSelf immoralSelf mismatch m m 1 0.7533 
19-May-2018_16:01:14 Exp 7323 20 male R 1 2 5 immoralOther immoralOther match n n 1 0.5875 
19-May-2018_16:01:16 Exp 7323 20 male R 1 2 6 moralSelf immoralOther mismatch m m 1 0.5815 
19-May-2018_16:01:18 Exp 7323 20 male R 1 2 7 moralOther moralOther match n m 0 0.7377 
19-May-2018_16:01:20 Exp 7323 20 male R 1 2 8 immoralOther moralOther mismatch m m 1 0.6459 
19-May-2018_16:01:22 Exp 7323 20 male R 1 2 9 immoralOther moralOther mismatch m m 1 0.6219 
19-May-2018_16:01:25 Exp 7323 20 male R 1 2 10 moralOther immoralSelf mismatch m m 1 0.6900 
19-May-2018_16:01:27 Exp 7323 20 male R 1 2 11 moralOther moralOther match n n 1 0.7762 
19-May-2018_16:01:29 Exp 7323 20 male R 1 2 12 immoralSelf immoralSelf match n n 1 0.7344 
19-May-2018_16:01:31 Exp 7323 20 male R 1 2 13 moralSelf moralSelf match n n 1 0.7484 
19-May-2018_16:01:34 Exp 7323 20 male R 1 2 14 moralSelf moralOther mismatch m m 1 0.6865 
19-May-2018_16:01:36 Exp 7323 20 male R 1 2 15 immoralSelf moralOther mismatch m n 0 0.8387 
19-May-2018_16:01:38 Exp 7323 20 male R 1 2 16 immoralSelf immoralSelf match n n 1 0.7348 
19-May-2018_16:01:40 Exp 7323 20 male R 1 2 17 moralOther moralOther match n n 1 0.6770 
19-May-2018_16:01:43 Exp 7323 20 male R 1 2 18 moralOther immoralSelf mismatch m m 1 0.6471 
19-May-2018_16:01:45 Exp 7323 20 male R 1 2 19 moralSelf moralSelf match n n 1 0.6133 
19-May-2018_16:01:47 Exp 7323 20 male R 1 2 20 immoralOther moralSelf mismatch m m 1 0.6913 
19-May-2018_16:01:49 Exp 7323 20 male R 1 2 21 immoralSelf immoralSelf match n n 1 0.7134 
19-May-2018_16:01:51 Exp 7323 20 male R 1 2 22 immoralSelf moralOther mismatch m m 1 0.7316 
19-May-2018_16:01:54 Exp 7323 20 male R 1 2 23 immoralOther immoralOther match n n 1 0.6338 
19-May-2018_16:01:56 Exp 7323 20 male R 1 2 24 moralOther moralSelf mismatch m m 1 0.6838 
Date Prac Sub Age Sex Hand Block Bin Trial Shape Label Match CorrResp Resp ACC RT
19-May-2018_16:05:48 Exp 7323 20 male R 1 1 1 moralSelf moralSelf match n n 1 0.6290 
19-May-2018_16:05:51 Exp 7323 20 male R 1 1 2 moralSelf immoralOther mismatch m m 1 0.7592 
19-May-2018_16:05:53 Exp 7323 20 male R 1 1 3 immoralSelf immoralSelf match n n 1 0.7818 
19-May-2018_16:05:55 Exp 7323 20 male R 1 1 4 moralSelf moralSelf match n n 1 0.5936 
19-May-2018_16:05:57 Exp 7323 20 male R 1 1 5 immoralOther immoralOther match n n 1 0.6836 
19-May-2018_16:06:00 Exp 7323 20 male R 1 1 6 immoralOther immoralOther match n n 1 0.6517 
19-May-2018_16:06:02 Exp 7323 20 male R 1 1 7 immoralSelf immoralOther mismatch m m 1 0.7699 
19-May-2018_16:06:04 Exp 7323 20 male R 1 1 8 moralOther moralSelf mismatch m m 1 0.7520 
19-May-2018_16:06:06 Exp 7323 20 male R 1 1 9 moralSelf moralOther mismatch m n 0 0.8660 
19-May-2018_16:06:09 Exp 7323 20 male R 1 1 10 immoralSelf moralSelf mismatch m n 0 0.6302 
19-May-2018_16:06:11 Exp 7323 20 male R 1 1 11 moralOther moralOther match n n 1 0.8244 
19-May-2018_16:06:13 Exp 7323 20 male R 1 1 12 immoralOther immoralSelf mismatch m m 1 0.8125 
19-May-2018_16:06:16 Exp 7323 20 male R 1 1 13 immoralOther immoralSelf mismatch m m 1 0.7707 
19-May-2018_16:06:18 Exp 7323 20 male R 1 1 14 moralOther moralOther match n n 1 0.6568 
19-May-2018_16:06:20 Exp 7323 20 male R 1 1 15 moralOther moralOther match n n 1 0.8229 
19-May-2018_16:06:22 Exp 7323 20 male R 1 1 16 moralSelf moralOther mismatch m n 0 0.8348 
19-May-2018_16:06:25 Exp 7323 20 male R 1 1 17 immoralOther moralOther mismatch m m 1 0.7331 
19-May-2018_16:06:27 Exp 7323 20 male R 1 1 18 immoralSelf immoralSelf match n n 1 0.7954 
19-May-2018_16:06:29 Exp 7323 20 male R 1 1 19 moralOther moralSelf mismatch m m 1 0.6614 
19-May-2018_16:06:31 Exp 7323 20 male R 1 1 20 immoralSelf immoralSelf match n n 1 0.8096 
19-May-2018_16:06:34 Exp 7323 20 male R 1 1 21 immoralSelf immoralOther mismatch m m 1 0.7276 
19-May-2018_16:06:36 Exp 7323 20 male R 1 1 22 immoralOther immoralOther match n n 1 0.6778 
19-May-2018_16:06:38 Exp 7323 20 male R 1 1 23 moralSelf moralSelf match n n 1 0.6859 
19-May-2018_16:06:41 Exp 7323 20 male R 1 1 24 moralOther moralSelf mismatch m m 1 0.9500 
19-May-2018_16:06:43 Exp 7323 20 male R 1 2 1 moralOther moralOther match n m 0 0.7042 
19-May-2018_16:06:45 Exp 7323 20 male R 1 2 2 moralSelf immoralSelf mismatch m m 1 0.8043 
19-May-2018_16:06:47 Exp 7323 20 male R 1 2 3 immoralSelf immoralSelf match n n 1 0.8285 
19-May-2018_16:06:50 Exp 7323 20 male R 1 2 4 moralOther moralSelf mismatch m m 1 0.7666 
19-May-2018_16:06:52 Exp 7323 20 male R 1 2 5 moralSelf immoralSelf mismatch m m 1 0.7668 
19-May-2018_16:06:54 Exp 7323 20 male R 1 2 6 moralOther moralOther match n n 1 0.7988 
19-May-2018_16:06:57 Exp 7323 20 male R 1 2 7 moralSelf moralOther mismatch m m 1 0.7830 
19-May-2018_16:06:59 Exp 7323 20 male R 1 2 8 moralSelf moralSelf match n n 1 0.6911 
19-May-2018_16:07:01 Exp 7323 20 male R 1 2 9 immoralSelf immoralOther mismatch m m 1 0.7133 
19-May-2018_16:07:03 Exp 7323 20 male R 1 2 10 immoralOther moralSelf mismatch m m 1 0.6833 
19-May-2018_16:07:06 Exp 7323 20 male R 1 2 11 moralOther moralSelf mismatch m m 1 0.7636 
19-May-2018_16:07:08 Exp 7323 20 male R 1 2 12 immoralOther moralOther mismatch m m 1 0.6756 
19-May-2018_16:07:10 Exp 7323 20 male R 1 2 13 immoralOther immoralOther match n n 1 0.7577 
19-May-2018_16:07:12 Exp 7323 20 male R 1 2 14 immoralSelf immoralSelf match n n 1 0.9261 
19-May-2018_16:07:15 Exp 7323 20 male R 1 2 15 immoralSelf immoralOther mismatch m m 1 0.7020 
19-May-2018_16:07:17 Exp 7323 20 male R 1 2 16 moralSelf moralSelf match n n 1 0.6021 
19-May-2018_16:07:19 Exp 7323 20 male R 1 2 17 immoralOther immoralOther match n n 1 0.6102 
19-May-2018_16:07:21 Exp 7323 20 male R 1 2 18 immoralOther immoralSelf mismatch m m 1 0.6084 
19-May-2018_16:07:23 Exp 7323 20 male R 1 2 19 moralSelf moralSelf match n n 1 0.6466 
19-May-2018_16:07:25 Exp 7323 20 male R 1 2 20 immoralSelf immoralSelf match n n 1 0.6786 
19-May-2018_16:07:28 Exp 7323 20 male R 1 2 21 immoralSelf immoralOther mismatch m m 1 0.6228 
19-May-2018_16:07:30 Exp 7323 20 male R 1 2 22 immoralOther immoralOther match n n 1 0.6268 
19-May-2018_16:07:32 Exp 7323 20 male R 1 2 23 moralOther moralOther match n n 1 0.7110 
19-May-2018_16:07:34 Exp 7323 20 male R 1 2 24 moralOther immoralOther mismatch m m 1 0.6250 
