Date Prac Sub Age Sex Hand Block Bin Trial Shape Label Match CorrResp Resp ACC RT
16-May-2018_15:44:37 Exp 7317 24 female R 1 1 1 immoralSelf immoralSelf match m m 1 0.6061 
16-May-2018_15:44:39 Exp 7317 24 female R 1 1 2 immoralOther immoralOther match m m 1 0.5070 
16-May-2018_15:44:41 Exp 7317 24 female R 1 1 3 immoralOther immoralOther match m m 1 0.5259 
16-May-2018_15:44:44 Exp 7317 24 female R 1 1 4 immoralOther immoralSelf mismatch n n 1 0.8691 
16-May-2018_15:44:46 Exp 7317 24 female R 1 1 5 moralOther moralOther match m n 0 0.8353 
16-May-2018_15:44:49 Exp 7317 24 female R 1 1 6 immoralOther moralOther mismatch n n 1 0.7808 
16-May-2018_15:44:51 Exp 7317 24 female R 1 1 7 immoralSelf moralSelf mismatch n m 0 0.5771 
16-May-2018_15:44:54 Exp 7317 24 female R 1 1 8 moralOther immoralSelf mismatch n n 1 1.0054 
16-May-2018_15:44:56 Exp 7317 24 female R 1 1 9 moralOther moralSelf mismatch n m 0 1.0662 
16-May-2018_15:44:59 Exp 7317 24 female R 1 1 10 immoralSelf moralOther mismatch n n 1 0.9962 
16-May-2018_15:45:01 Exp 7317 24 female R 1 1 11 moralSelf immoralOther mismatch n m 0 0.8928 
16-May-2018_15:45:04 Exp 7317 24 female R 1 1 12 immoralSelf immoralSelf match m n 0 1.0595 
16-May-2018_15:45:07 Exp 7317 24 female R 1 1 13 immoralOther moralOther mismatch n n 1 0.9015 
16-May-2018_15:45:09 Exp 7317 24 female R 1 1 14 moralSelf moralSelf match m m 1 0.5322 
16-May-2018_15:45:11 Exp 7317 24 female R 1 1 15 moralSelf moralSelf match m m 1 0.6876 
16-May-2018_15:45:14 Exp 7317 24 female R 1 1 16 moralOther moralOther match m n 0 0.8740 
16-May-2018_15:45:16 Exp 7317 24 female R 1 1 17 moralSelf immoralOther mismatch n m 0 0.7603 
16-May-2018_15:45:19 Exp 7317 24 female R 1 1 18 moralOther immoralSelf mismatch n n 1 0.8442 
16-May-2018_15:45:21 Exp 7317 24 female R 1 1 19 immoralSelf immoralSelf match m m 1 0.6819 
16-May-2018_15:45:23 Exp 7317 24 female R 1 1 20 moralSelf moralSelf match m m 1 0.7164 
16-May-2018_15:45:26 Exp 7317 24 female R 1 1 21 immoralSelf moralOther mismatch n n 1 0.7396 
16-May-2018_15:45:28 Exp 7317 24 female R 1 1 22 moralOther moralOther match m m 1 0.5711 
16-May-2018_15:45:30 Exp 7317 24 female R 1 1 23 immoralOther immoralOther match m m 1 0.6433 
16-May-2018_15:45:32 Exp 7317 24 female R 1 1 24 moralSelf moralOther mismatch n m 0 0.5727 
16-May-2018_15:45:35 Exp 7317 24 female R 1 2 1 immoralSelf immoralSelf match m NA -1 1.0841 
16-May-2018_15:45:37 Exp 7317 24 female R 1 2 2 immoralOther immoralSelf mismatch n n 1 0.8953 
16-May-2018_15:45:40 Exp 7317 24 female R 1 2 3 moralSelf moralSelf match m m 1 0.7180 
16-May-2018_15:45:42 Exp 7317 24 female R 1 2 4 immoralSelf immoralSelf match m m 1 0.7411 
16-May-2018_15:45:45 Exp 7317 24 female R 1 2 5 moralSelf moralSelf match m m 1 0.7007 
16-May-2018_15:45:47 Exp 7317 24 female R 1 2 6 immoralOther moralSelf mismatch n n 1 0.7394 
16-May-2018_15:45:49 Exp 7317 24 female R 1 2 7 immoralSelf immoralSelf match m n 0 0.8190 
16-May-2018_15:45:52 Exp 7317 24 female R 1 2 8 moralSelf immoralOther mismatch n n 1 0.9081 
16-May-2018_15:45:54 Exp 7317 24 female R 1 2 9 moralOther immoralOther mismatch n n 1 0.8230 
16-May-2018_15:45:57 Exp 7317 24 female R 1 2 10 immoralSelf moralOther mismatch n n 1 1.0683 
16-May-2018_15:45:59 Exp 7317 24 female R 1 2 11 moralOther moralOther match m n 0 0.5305 
16-May-2018_15:46:02 Exp 7317 24 female R 1 2 12 moralOther moralOther match m m 1 0.6539 
16-May-2018_15:46:04 Exp 7317 24 female R 1 2 13 moralOther immoralOther mismatch n n 1 0.6676 
16-May-2018_15:46:06 Exp 7317 24 female R 1 2 14 immoralSelf immoralOther mismatch n m 0 0.5539 
16-May-2018_15:46:08 Exp 7317 24 female R 1 2 15 moralSelf moralSelf match m m 1 0.8057 
16-May-2018_15:46:11 Exp 7317 24 female R 1 2 16 moralSelf immoralOther mismatch n n 1 0.8025 
16-May-2018_15:46:13 Exp 7317 24 female R 1 2 17 immoralOther immoralOther match m m 1 0.5434 
16-May-2018_15:46:16 Exp 7317 24 female R 1 2 18 immoralSelf moralOther mismatch n n 1 0.9429 
16-May-2018_15:46:18 Exp 7317 24 female R 1 2 19 moralOther moralOther match m m 1 0.6706 
16-May-2018_15:46:20 Exp 7317 24 female R 1 2 20 moralOther immoralOther mismatch n n 1 0.6768 
16-May-2018_15:46:23 Exp 7317 24 female R 1 2 21 immoralOther moralOther mismatch n n 1 0.8270 
16-May-2018_15:46:25 Exp 7317 24 female R 1 2 22 immoralOther immoralOther match m m 1 0.7362 
16-May-2018_15:46:28 Exp 7317 24 female R 1 2 23 immoralOther immoralOther match m m 1 0.8597 
16-May-2018_15:46:30 Exp 7317 24 female R 1 2 24 moralSelf moralOther mismatch n m 0 1.0377 
16-May-2018_15:46:33 Exp 7317 24 female R 1 3 1 moralSelf moralSelf match m NA -1 1.0841 
16-May-2018_15:46:35 Exp 7317 24 female R 1 3 2 immoralSelf immoralSelf match m n 0 0.8097 
16-May-2018_15:46:38 Exp 7317 24 female R 1 3 3 immoralOther immoralOther match m m 1 0.6587 
16-May-2018_15:46:40 Exp 7317 24 female R 1 3 4 immoralSelf moralSelf mismatch n NA -1 1.0841 
16-May-2018_15:46:43 Exp 7317 24 female R 1 3 5 moralSelf moralSelf match m m 1 0.7111 
16-May-2018_15:46:45 Exp 7317 24 female R 1 3 6 moralOther immoralSelf mismatch n n 1 0.8581 
16-May-2018_15:46:48 Exp 7317 24 female R 1 3 7 moralOther immoralOther mismatch n n 1 0.7241 
16-May-2018_15:46:50 Exp 7317 24 female R 1 3 8 immoralOther moralOther mismatch n n 1 0.8673 
16-May-2018_15:46:52 Exp 7317 24 female R 1 3 9 moralOther moralOther match m n 0 0.5972 
16-May-2018_15:46:55 Exp 7317 24 female R 1 3 10 immoralSelf moralOther mismatch n n 1 0.7860 
16-May-2018_15:46:57 Exp 7317 24 female R 1 3 11 immoralOther immoralOther match m m 1 0.8585 
16-May-2018_15:47:00 Exp 7317 24 female R 1 3 12 moralSelf immoralOther mismatch n n 1 0.8287 
16-May-2018_15:47:02 Exp 7317 24 female R 1 3 13 immoralOther immoralOther match m n 0 0.8099 
16-May-2018_15:47:05 Exp 7317 24 female R 1 3 14 moralOther moralSelf mismatch n m 0 0.9789 
16-May-2018_15:47:07 Exp 7317 24 female R 1 3 15 immoralSelf immoralSelf match m m 1 0.9433 
16-May-2018_15:47:10 Exp 7317 24 female R 1 3 16 moralSelf moralOther mismatch n m 0 0.6549 
16-May-2018_15:47:12 Exp 7317 24 female R 1 3 17 immoralSelf immoralSelf match m m 1 0.9087 
16-May-2018_15:47:15 Exp 7317 24 female R 1 3 18 moralOther moralOther match m NA -1 1.0841 
16-May-2018_15:47:17 Exp 7317 24 female R 1 3 19 immoralOther moralOther mismatch n n 1 0.8660 
16-May-2018_15:47:20 Exp 7317 24 female R 1 3 20 moralSelf moralSelf match m m 1 0.9720 
16-May-2018_15:47:23 Exp 7317 24 female R 1 3 21 immoralSelf moralOther mismatch n m 0 0.9321 
16-May-2018_15:47:25 Exp 7317 24 female R 1 3 22 moralOther moralOther match m m 1 0.9674 
16-May-2018_15:47:28 Exp 7317 24 female R 1 3 23 immoralOther moralOther mismatch n n 1 0.7275 
16-May-2018_15:47:30 Exp 7317 24 female R 1 3 24 moralSelf immoralOther mismatch n n 1 0.8191 
16-May-2018_15:47:46 Exp 7317 24 female R 1 4 1 moralSelf moralSelf match m NA -1 1.0841 
16-May-2018_15:47:49 Exp 7317 24 female R 1 4 2 moralOther immoralSelf mismatch n m 0 0.7402 
16-May-2018_15:47:51 Exp 7317 24 female R 1 4 3 immoralOther moralSelf mismatch n n 1 0.6918 
16-May-2018_15:47:53 Exp 7317 24 female R 1 4 4 moralSelf moralSelf match m m 1 0.8185 
16-May-2018_15:47:56 Exp 7317 24 female R 1 4 5 moralOther moralSelf mismatch n n 1 0.8275 
16-May-2018_15:47:58 Exp 7317 24 female R 1 4 6 moralSelf moralSelf match m m 1 0.8568 
16-May-2018_15:48:01 Exp 7317 24 female R 1 4 7 moralOther immoralSelf mismatch n m 0 0.9310 
16-May-2018_15:48:03 Exp 7317 24 female R 1 4 8 moralOther moralOther match m m 1 0.8223 
16-May-2018_15:48:06 Exp 7317 24 female R 1 4 9 immoralSelf immoralSelf match m n 0 0.7315 
16-May-2018_15:48:08 Exp 7317 24 female R 1 4 10 immoralSelf moralOther mismatch n n 1 1.0709 
16-May-2018_15:48:11 Exp 7317 24 female R 1 4 11 immoralOther moralOther mismatch n n 1 0.6532 
16-May-2018_15:48:13 Exp 7317 24 female R 1 4 12 immoralSelf moralSelf mismatch n m 0 0.8429 
16-May-2018_15:48:16 Exp 7317 24 female R 1 4 13 moralSelf immoralSelf mismatch n m 0 0.8204 
16-May-2018_15:48:18 Exp 7317 24 female R 1 4 14 moralOther moralOther match m m 1 0.7094 
16-May-2018_15:48:20 Exp 7317 24 female R 1 4 15 immoralSelf immoralOther mismatch n n 1 0.8083 
16-May-2018_15:48:23 Exp 7317 24 female R 1 4 16 moralSelf immoralSelf mismatch n m 0 0.8692 
16-May-2018_15:48:25 Exp 7317 24 female R 1 4 17 immoralSelf immoralSelf match m m 1 0.7473 
16-May-2018_15:48:28 Exp 7317 24 female R 1 4 18 immoralOther immoralOther match m m 1 0.6829 
16-May-2018_15:48:30 Exp 7317 24 female R 1 4 19 moralSelf immoralSelf mismatch n n 1 0.8454 
16-May-2018_15:48:32 Exp 7317 24 female R 1 4 20 immoralOther immoralSelf mismatch n m 0 0.8032 
16-May-2018_15:48:35 Exp 7317 24 female R 1 4 21 immoralSelf immoralSelf match m m 1 0.9441 
16-May-2018_15:48:37 Exp 7317 24 female R 1 4 22 immoralOther immoralOther match m m 1 0.7837 
16-May-2018_15:48:40 Exp 7317 24 female R 1 4 23 moralOther moralOther match m m 1 0.7479 
16-May-2018_15:48:42 Exp 7317 24 female R 1 4 24 immoralOther immoralOther match m m 1 0.6997 
16-May-2018_15:48:44 Exp 7317 24 female R 1 5 1 immoralOther immoralOther match m m 1 0.6823 
16-May-2018_15:48:47 Exp 7317 24 female R 1 5 2 moralOther moralOther match m NA -1 1.0841 
16-May-2018_15:48:50 Exp 7317 24 female R 1 5 3 moralOther moralSelf mismatch n n 1 0.7672 
16-May-2018_15:48:52 Exp 7317 24 female R 1 5 4 immoralOther moralOther mismatch n n 1 0.8553 
16-May-2018_15:48:55 Exp 7317 24 female R 1 5 5 immoralOther moralSelf mismatch n n 1 0.9170 
16-May-2018_15:48:57 Exp 7317 24 female R 1 5 6 moralOther immoralSelf mismatch n m 0 0.7562 
16-May-2018_15:48:59 Exp 7317 24 female R 1 5 7 moralOther moralSelf mismatch n n 1 0.8881 
16-May-2018_15:49:02 Exp 7317 24 female R 1 5 8 moralSelf immoralOther mismatch n n 1 0.9226 
16-May-2018_15:49:04 Exp 7317 24 female R 1 5 9 moralOther moralOther match m n 0 0.7456 
16-May-2018_15:49:07 Exp 7317 24 female R 1 5 10 immoralSelf immoralSelf match m m 1 0.9373 
16-May-2018_15:49:09 Exp 7317 24 female R 1 5 11 moralSelf immoralOther mismatch n n 1 0.8047 
16-May-2018_15:49:12 Exp 7317 24 female R 1 5 12 immoralOther immoralOther match m m 1 0.6895 
16-May-2018_15:49:14 Exp 7317 24 female R 1 5 13 immoralSelf moralSelf mismatch n m 0 0.9480 
16-May-2018_15:49:17 Exp 7317 24 female R 1 5 14 immoralOther moralSelf mismatch n n 1 0.7956 
16-May-2018_15:49:19 Exp 7317 24 female R 1 5 15 moralOther moralOther match m n 0 0.9161 
16-May-2018_15:49:22 Exp 7317 24 female R 1 5 16 moralSelf immoralOther mismatch n n 1 0.8994 
16-May-2018_15:49:24 Exp 7317 24 female R 1 5 17 moralSelf moralSelf match m m 1 0.8820 
16-May-2018_15:49:27 Exp 7317 24 female R 1 5 18 immoralOther immoralOther match m m 1 0.7403 
16-May-2018_15:49:29 Exp 7317 24 female R 1 5 19 immoralSelf moralOther mismatch n m 0 0.6122 
16-May-2018_15:49:32 Exp 7317 24 female R 1 5 20 immoralSelf immoralSelf match m m 1 0.9251 
16-May-2018_15:49:34 Exp 7317 24 female R 1 5 21 immoralSelf immoralSelf match m m 1 0.8044 
16-May-2018_15:49:37 Exp 7317 24 female R 1 5 22 moralSelf moralSelf match m m 1 0.9291 
16-May-2018_15:49:39 Exp 7317 24 female R 1 5 23 immoralSelf moralOther mismatch n m 0 0.8685 
16-May-2018_15:49:42 Exp 7317 24 female R 1 5 24 moralSelf moralSelf match m m 1 1.0268 
16-May-2018_15:49:47 Exp 7317 24 female R 2 1 1 immoralSelf immoralSelf match m NA -1 1.0841 
16-May-2018_15:49:50 Exp 7317 24 female R 2 1 2 moralOther moralSelf mismatch n NA -1 1.0841 
16-May-2018_15:49:53 Exp 7317 24 female R 2 1 3 immoralSelf moralSelf mismatch n NA -1 1.0841 
16-May-2018_15:49:55 Exp 7317 24 female R 2 1 4 moralSelf moralOther mismatch n m 0 0.5920 
16-May-2018_15:49:57 Exp 7317 24 female R 2 1 5 moralOther immoralOther mismatch n m 0 0.3445 
16-May-2018_15:49:59 Exp 7317 24 female R 2 1 6 immoralOther immoralOther match m n 0 0.3282 
16-May-2018_15:50:01 Exp 7317 24 female R 2 1 7 moralSelf immoralOther mismatch n m 0 0.5556 
16-May-2018_15:50:03 Exp 7317 24 female R 2 1 8 moralOther immoralSelf mismatch n n 1 0.3994 
16-May-2018_15:50:05 Exp 7317 24 female R 2 1 9 moralSelf moralSelf match m n 0 0.3082 
16-May-2018_15:50:07 Exp 7317 24 female R 2 1 10 immoralOther immoralSelf mismatch n m 0 0.3112 
16-May-2018_15:50:09 Exp 7317 24 female R 2 1 11 immoralSelf moralOther mismatch n n 1 0.6900 
16-May-2018_15:50:12 Exp 7317 24 female R 2 1 12 moralOther moralOther match m m 1 0.6764 
16-May-2018_15:50:14 Exp 7317 24 female R 2 1 13 immoralOther moralSelf mismatch n n 1 0.6987 
16-May-2018_15:50:16 Exp 7317 24 female R 2 1 14 moralSelf moralSelf match m m 1 0.7053 
16-May-2018_15:50:19 Exp 7317 24 female R 2 1 15 immoralOther immoralOther match m m 1 0.5884 
16-May-2018_15:50:21 Exp 7317 24 female R 2 1 16 moralOther moralOther match m n 0 0.6848 
16-May-2018_15:50:23 Exp 7317 24 female R 2 1 17 moralOther moralOther match m m 1 0.5513 
16-May-2018_15:50:26 Exp 7317 24 female R 2 1 18 immoralOther immoralSelf mismatch n n 1 0.7151 
16-May-2018_15:50:28 Exp 7317 24 female R 2 1 19 immoralSelf immoralSelf match m m 1 0.6423 
16-May-2018_15:50:30 Exp 7317 24 female R 2 1 20 immoralOther immoralOther match m m 1 0.6678 
16-May-2018_15:50:32 Exp 7317 24 female R 2 1 21 moralSelf moralOther mismatch n m 0 0.6980 
16-May-2018_15:50:35 Exp 7317 24 female R 2 1 22 immoralSelf moralSelf mismatch n n 1 0.7927 
16-May-2018_15:50:37 Exp 7317 24 female R 2 1 23 immoralSelf immoralSelf match m m 1 0.6173 
16-May-2018_15:50:39 Exp 7317 24 female R 2 1 24 moralSelf moralSelf match m m 1 0.5464 
16-May-2018_15:50:41 Exp 7317 24 female R 2 2 1 immoralSelf immoralSelf match m m 1 0.6020 
16-May-2018_15:50:44 Exp 7317 24 female R 2 2 2 moralOther immoralOther mismatch n n 1 0.7506 
16-May-2018_15:50:47 Exp 7317 24 female R 2 2 3 immoralOther moralSelf mismatch n NA -1 1.0841 
16-May-2018_15:50:49 Exp 7317 24 female R 2 2 4 moralOther moralOther match m NA -1 1.0841 
16-May-2018_15:50:52 Exp 7317 24 female R 2 2 5 immoralOther moralSelf mismatch n n 1 0.9995 
16-May-2018_15:50:54 Exp 7317 24 female R 2 2 6 immoralOther immoralOther match m m 1 0.6044 
16-May-2018_15:50:57 Exp 7317 24 female R 2 2 7 immoralSelf immoralOther mismatch n n 1 0.8572 
16-May-2018_15:50:59 Exp 7317 24 female R 2 2 8 moralSelf moralSelf match m m 1 0.6911 
16-May-2018_15:51:02 Exp 7317 24 female R 2 2 9 moralSelf immoralSelf mismatch n n 1 0.9377 
16-May-2018_15:51:04 Exp 7317 24 female R 2 2 10 moralSelf moralSelf match m m 1 0.9812 
16-May-2018_15:51:07 Exp 7317 24 female R 2 2 11 moralOther moralOther match m m 1 0.9695 
16-May-2018_15:51:09 Exp 7317 24 female R 2 2 12 immoralOther moralOther mismatch n n 1 0.6897 
16-May-2018_15:51:12 Exp 7317 24 female R 2 2 13 immoralSelf immoralSelf match m m 1 1.0120 
16-May-2018_15:51:14 Exp 7317 24 female R 2 2 14 moralSelf moralSelf match m m 1 0.7731 
16-May-2018_15:51:17 Exp 7317 24 female R 2 2 15 moralOther immoralOther mismatch n m 0 0.9971 
16-May-2018_15:51:19 Exp 7317 24 female R 2 2 16 immoralSelf moralSelf mismatch n n 1 0.9620 
16-May-2018_15:51:22 Exp 7317 24 female R 2 2 17 moralOther moralOther match m NA -1 1.0841 
16-May-2018_15:51:25 Exp 7317 24 female R 2 2 18 immoralSelf immoralSelf match m n 0 0.7807 
16-May-2018_15:51:27 Exp 7317 24 female R 2 2 19 immoralOther immoralOther match m m 1 0.6969 
16-May-2018_15:51:29 Exp 7317 24 female R 2 2 20 moralOther immoralSelf mismatch n m 0 0.8956 
16-May-2018_15:51:32 Exp 7317 24 female R 2 2 21 moralSelf moralOther mismatch n m 0 0.8224 
16-May-2018_15:51:34 Exp 7317 24 female R 2 2 22 moralSelf immoralOther mismatch n n 1 1.0275 
16-May-2018_15:51:37 Exp 7317 24 female R 2 2 23 immoralSelf moralSelf mismatch n m 0 0.9210 
16-May-2018_15:51:39 Exp 7317 24 female R 2 2 24 immoralOther immoralOther match m m 1 0.7682 
16-May-2018_15:51:42 Exp 7317 24 female R 2 3 1 moralSelf moralSelf match m m 1 0.9922 
16-May-2018_15:51:45 Exp 7317 24 female R 2 3 2 immoralOther moralOther mismatch n n 1 0.9287 
16-May-2018_15:51:47 Exp 7317 24 female R 2 3 3 immoralSelf moralSelf mismatch n NA -1 1.0841 
16-May-2018_15:51:50 Exp 7317 24 female R 2 3 4 moralOther moralOther match m m 1 0.8466 
16-May-2018_15:51:52 Exp 7317 24 female R 2 3 5 moralSelf moralSelf match m m 1 0.8123 
16-May-2018_15:51:55 Exp 7317 24 female R 2 3 6 immoralSelf immoralSelf match m m 1 0.8133 
16-May-2018_15:51:57 Exp 7317 24 female R 2 3 7 moralSelf moralOther mismatch n m 0 0.5745 
16-May-2018_15:51:59 Exp 7317 24 female R 2 3 8 immoralSelf moralSelf mismatch n m 0 0.8588 
16-May-2018_15:52:02 Exp 7317 24 female R 2 3 9 immoralOther moralOther mismatch n n 1 0.7486 
16-May-2018_15:52:04 Exp 7317 24 female R 2 3 10 immoralOther immoralOther match m m 1 0.9004 
16-May-2018_15:52:07 Exp 7317 24 female R 2 3 11 immoralSelf immoralSelf match m m 1 0.8911 
16-May-2018_15:52:09 Exp 7317 24 female R 2 3 12 immoralOther immoralOther match m m 1 0.7057 
16-May-2018_15:52:12 Exp 7317 24 female R 2 3 13 immoralOther immoralOther match m m 1 0.6687 
16-May-2018_15:52:14 Exp 7317 24 female R 2 3 14 moralOther moralOther match m m 1 0.8988 
16-May-2018_15:52:17 Exp 7317 24 female R 2 3 15 moralOther immoralSelf mismatch n n 1 0.9855 
16-May-2018_15:52:19 Exp 7317 24 female R 2 3 16 moralSelf moralSelf match m m 1 0.7701 
16-May-2018_15:52:21 Exp 7317 24 female R 2 3 17 moralOther immoralOther mismatch n n 1 0.7702 
16-May-2018_15:52:24 Exp 7317 24 female R 2 3 18 moralOther moralOther match m m 1 0.8742 
16-May-2018_15:52:27 Exp 7317 24 female R 2 3 19 immoralSelf immoralSelf match m n 0 1.0485 
16-May-2018_15:52:29 Exp 7317 24 female R 2 3 20 moralOther immoralSelf mismatch n n 1 0.9742 
16-May-2018_15:52:32 Exp 7317 24 female R 2 3 21 moralSelf immoralOther mismatch n m 0 0.8506 
16-May-2018_15:52:34 Exp 7317 24 female R 2 3 22 immoralOther immoralSelf mismatch n n 1 0.9362 
16-May-2018_15:52:37 Exp 7317 24 female R 2 3 23 immoralSelf moralOther mismatch n NA -1 1.0841 
16-May-2018_15:52:40 Exp 7317 24 female R 2 3 24 moralSelf immoralOther mismatch n n 1 0.8463 
16-May-2018_15:52:48 Exp 7317 24 female R 2 4 1 moralOther moralSelf mismatch n m 0 0.5896 
16-May-2018_15:52:50 Exp 7317 24 female R 2 4 2 immoralSelf moralSelf mismatch n n 1 0.8303 
16-May-2018_15:52:53 Exp 7317 24 female R 2 4 3 immoralSelf immoralSelf match m m 1 0.6274 
16-May-2018_15:52:55 Exp 7317 24 female R 2 4 4 moralOther immoralOther mismatch n n 1 0.8167 
16-May-2018_15:52:58 Exp 7317 24 female R 2 4 5 moralOther moralOther match m n 0 0.9138 
16-May-2018_15:53:00 Exp 7317 24 female R 2 4 6 moralOther moralOther match m n 0 0.8367 
16-May-2018_15:53:02 Exp 7317 24 female R 2 4 7 immoralOther immoralOther match m m 1 0.7583 
16-May-2018_15:53:05 Exp 7317 24 female R 2 4 8 immoralOther moralSelf mismatch n n 1 0.8021 
16-May-2018_15:53:07 Exp 7317 24 female R 2 4 9 moralSelf immoralOther mismatch n n 1 0.8790 
16-May-2018_15:53:10 Exp 7317 24 female R 2 4 10 immoralSelf immoralOther mismatch n n 1 0.7971 
16-May-2018_15:53:12 Exp 7317 24 female R 2 4 11 moralOther moralOther match m m 1 0.8260 
16-May-2018_15:53:14 Exp 7317 24 female R 2 4 12 moralSelf moralSelf match m m 1 0.5352 
16-May-2018_15:53:17 Exp 7317 24 female R 2 4 13 immoralSelf moralSelf mismatch n n 1 0.9865 
16-May-2018_15:53:19 Exp 7317 24 female R 2 4 14 moralSelf moralOther mismatch n m 0 0.8193 
16-May-2018_15:53:22 Exp 7317 24 female R 2 4 15 immoralOther immoralOther match m m 1 0.8202 
16-May-2018_15:53:24 Exp 7317 24 female R 2 4 16 moralSelf immoralSelf mismatch n n 1 0.9332 
16-May-2018_15:53:27 Exp 7317 24 female R 2 4 17 immoralSelf immoralSelf match m m 1 0.7447 
16-May-2018_15:53:30 Exp 7317 24 female R 2 4 18 immoralSelf immoralSelf match m NA -1 1.0841 
16-May-2018_15:53:32 Exp 7317 24 female R 2 4 19 moralOther immoralOther mismatch n m 0 0.6827 
16-May-2018_15:53:34 Exp 7317 24 female R 2 4 20 immoralOther immoralOther match m m 1 0.7971 
16-May-2018_15:53:37 Exp 7317 24 female R 2 4 21 moralSelf moralSelf match m m 1 0.7859 
16-May-2018_15:53:39 Exp 7317 24 female R 2 4 22 immoralOther moralOther mismatch n n 1 0.8586 
16-May-2018_15:53:42 Exp 7317 24 female R 2 4 23 moralSelf moralSelf match m n 0 0.9725 
16-May-2018_15:53:44 Exp 7317 24 female R 2 4 24 immoralOther moralSelf mismatch n n 1 0.8848 
16-May-2018_15:53:47 Exp 7317 24 female R 2 5 1 immoralSelf immoralSelf match m m 1 1.0631 
16-May-2018_15:53:50 Exp 7317 24 female R 2 5 2 moralSelf moralOther mismatch n m 0 1.0810 
16-May-2018_15:53:52 Exp 7317 24 female R 2 5 3 moralSelf moralSelf match m NA -1 1.0841 
16-May-2018_15:53:55 Exp 7317 24 female R 2 5 4 immoralOther immoralSelf mismatch n n 1 0.8700 
16-May-2018_15:53:58 Exp 7317 24 female R 2 5 5 moralOther moralOther match m m 1 0.9642 
16-May-2018_15:54:00 Exp 7317 24 female R 2 5 6 immoralSelf moralOther mismatch n n 1 0.9883 
16-May-2018_15:54:03 Exp 7317 24 female R 2 5 7 immoralSelf moralOther mismatch n m 0 0.8449 
16-May-2018_15:54:05 Exp 7317 24 female R 2 5 8 moralSelf moralSelf match m m 1 0.8746 
16-May-2018_15:54:07 Exp 7317 24 female R 2 5 9 immoralOther immoralOther match m m 1 0.5689 
16-May-2018_15:54:10 Exp 7317 24 female R 2 5 10 moralOther moralSelf mismatch n m 0 0.8250 
16-May-2018_15:54:12 Exp 7317 24 female R 2 5 11 moralOther moralOther match m m 1 0.8062 
16-May-2018_15:54:15 Exp 7317 24 female R 2 5 12 moralSelf immoralSelf mismatch n n 1 0.9710 
16-May-2018_15:54:17 Exp 7317 24 female R 2 5 13 immoralSelf immoralOther mismatch n m 0 0.7793 
16-May-2018_15:54:20 Exp 7317 24 female R 2 5 14 immoralOther immoralOther match m m 1 0.6715 
16-May-2018_15:54:22 Exp 7317 24 female R 2 5 15 immoralSelf immoralSelf match m n 0 0.8057 
16-May-2018_15:54:25 Exp 7317 24 female R 2 5 16 moralSelf immoralSelf mismatch n NA -1 1.0841 
16-May-2018_15:54:27 Exp 7317 24 female R 2 5 17 immoralSelf immoralSelf match m n 0 0.5889 
16-May-2018_15:54:30 Exp 7317 24 female R 2 5 18 moralOther moralOther match m n 0 0.9736 
16-May-2018_15:54:32 Exp 7317 24 female R 2 5 19 immoralOther immoralOther match m m 1 0.6498 
16-May-2018_15:54:35 Exp 7317 24 female R 2 5 20 moralSelf moralSelf match m NA -1 1.0841 
16-May-2018_15:54:37 Exp 7317 24 female R 2 5 21 moralOther moralSelf mismatch n m 0 0.7861 
16-May-2018_15:54:40 Exp 7317 24 female R 2 5 22 immoralOther moralSelf mismatch n NA -1 1.0841 
16-May-2018_15:54:42 Exp 7317 24 female R 2 5 23 moralOther immoralOther mismatch n m 0 0.6452 
16-May-2018_15:54:45 Exp 7317 24 female R 2 5 24 immoralOther immoralSelf mismatch n NA -1 1.0841 
16-May-2018_15:54:50 Exp 7317 24 female R 3 1 1 immoralOther moralSelf mismatch n NA -1 1.0841 
16-May-2018_15:54:53 Exp 7317 24 female R 3 1 2 moralOther moralOther match m n 0 0.4804 
16-May-2018_15:54:55 Exp 7317 24 female R 3 1 3 immoralOther immoralOther match m m 1 0.3308 
16-May-2018_15:54:57 Exp 7317 24 female R 3 1 4 moralSelf moralSelf match m m 1 0.5662 
16-May-2018_15:54:59 Exp 7317 24 female R 3 1 5 immoralSelf immoralSelf match m m 1 0.4543 
16-May-2018_15:55:01 Exp 7317 24 female R 3 1 6 moralOther moralOther match m m 1 0.4760 
16-May-2018_15:55:03 Exp 7317 24 female R 3 1 7 moralOther moralOther match m n 0 0.6182 
16-May-2018_15:55:05 Exp 7317 24 female R 3 1 8 moralSelf moralSelf match m m 1 0.6513 
16-May-2018_15:55:08 Exp 7317 24 female R 3 1 9 immoralSelf moralSelf mismatch n m 0 0.5451 
16-May-2018_15:55:10 Exp 7317 24 female R 3 1 10 moralSelf immoralSelf mismatch n n 1 0.6326 
16-May-2018_15:55:12 Exp 7317 24 female R 3 1 11 moralSelf immoralSelf mismatch n n 1 0.8021 
16-May-2018_15:55:15 Exp 7317 24 female R 3 1 12 immoralSelf moralSelf mismatch n m 0 0.9908 
16-May-2018_15:55:17 Exp 7317 24 female R 3 1 13 moralOther immoralOther mismatch n n 1 0.8236 
16-May-2018_15:55:20 Exp 7317 24 female R 3 1 14 moralSelf immoralSelf mismatch n n 1 0.7486 
16-May-2018_15:55:22 Exp 7317 24 female R 3 1 15 immoralOther immoralSelf mismatch n n 1 0.9324 
16-May-2018_15:55:25 Exp 7317 24 female R 3 1 16 moralOther moralSelf mismatch n NA -1 1.0841 
16-May-2018_15:55:28 Exp 7317 24 female R 3 1 17 moralSelf moralSelf match m m 1 0.9063 
16-May-2018_15:55:30 Exp 7317 24 female R 3 1 18 immoralSelf immoralSelf match m NA -1 1.0841 
16-May-2018_15:55:33 Exp 7317 24 female R 3 1 19 immoralOther immoralOther match m m 1 0.6236 
16-May-2018_15:55:35 Exp 7317 24 female R 3 1 20 moralOther immoralOther mismatch n n 1 0.8450 
16-May-2018_15:55:37 Exp 7317 24 female R 3 1 21 immoralOther moralOther mismatch n m 0 0.6986 
16-May-2018_15:55:40 Exp 7317 24 female R 3 1 22 immoralOther immoralOther match m m 1 0.8334 
16-May-2018_15:55:42 Exp 7317 24 female R 3 1 23 immoralSelf immoralSelf match m m 1 0.8268 
16-May-2018_15:55:45 Exp 7317 24 female R 3 1 24 immoralSelf moralOther mismatch n n 1 1.0562 
16-May-2018_15:55:48 Exp 7317 24 female R 3 2 1 immoralOther moralSelf mismatch n NA -1 1.0841 
16-May-2018_15:55:50 Exp 7317 24 female R 3 2 2 immoralOther immoralOther match m m 1 0.6126 
16-May-2018_15:55:52 Exp 7317 24 female R 3 2 3 immoralSelf immoralSelf match m m 1 0.5817 
16-May-2018_15:55:55 Exp 7317 24 female R 3 2 4 moralSelf immoralSelf mismatch n m 0 0.7940 
16-May-2018_15:55:57 Exp 7317 24 female R 3 2 5 moralOther moralOther match m n 0 0.9305 
16-May-2018_15:56:00 Exp 7317 24 female R 3 2 6 immoralSelf immoralOther mismatch n n 1 0.8860 
16-May-2018_15:56:02 Exp 7317 24 female R 3 2 7 moralOther moralOther match m m 1 0.9924 
16-May-2018_15:56:05 Exp 7317 24 female R 3 2 8 moralOther immoralOther mismatch n m 0 0.8090 
16-May-2018_15:56:07 Exp 7317 24 female R 3 2 9 immoralSelf immoralSelf match m m 1 0.9700 
16-May-2018_15:56:10 Exp 7317 24 female R 3 2 10 moralSelf moralSelf match m m 1 0.5223 
16-May-2018_15:56:12 Exp 7317 24 female R 3 2 11 moralSelf moralSelf match m m 1 0.6493 
16-May-2018_15:56:14 Exp 7317 24 female R 3 2 12 immoralOther immoralSelf mismatch n m 0 0.7910 
16-May-2018_15:56:17 Exp 7317 24 female R 3 2 13 immoralSelf moralSelf mismatch n NA -1 1.0841 
16-May-2018_15:56:19 Exp 7317 24 female R 3 2 14 moralSelf immoralOther mismatch n n 1 0.8900 
16-May-2018_15:56:22 Exp 7317 24 female R 3 2 15 moralOther moralSelf mismatch n m 0 0.8524 
16-May-2018_15:56:25 Exp 7317 24 female R 3 2 16 moralSelf moralOther mismatch n NA -1 1.0841 
16-May-2018_15:56:27 Exp 7317 24 female R 3 2 17 immoralOther immoralOther match m n 0 0.4207 
16-May-2018_15:56:29 Exp 7317 24 female R 3 2 18 moralOther immoralOther mismatch n m 0 0.6099 
16-May-2018_15:56:31 Exp 7317 24 female R 3 2 19 immoralOther moralOther mismatch n n 1 0.6909 
16-May-2018_15:56:34 Exp 7317 24 female R 3 2 20 immoralSelf immoralSelf match m n 0 0.7893 
16-May-2018_15:56:36 Exp 7317 24 female R 3 2 21 moralSelf moralSelf match m m 1 0.7981 
16-May-2018_15:56:39 Exp 7317 24 female R 3 2 22 immoralSelf moralOther mismatch n m 0 0.9627 
16-May-2018_15:56:41 Exp 7317 24 female R 3 2 23 moralOther moralOther match m m 1 0.6269 
16-May-2018_15:56:43 Exp 7317 24 female R 3 2 24 immoralOther immoralOther match m m 1 0.6321 
16-May-2018_15:56:46 Exp 7317 24 female R 3 3 1 immoralOther immoralOther match m m 1 0.9493 
16-May-2018_15:56:48 Exp 7317 24 female R 3 3 2 immoralOther immoralSelf mismatch n n 1 0.6531 
16-May-2018_15:56:51 Exp 7317 24 female R 3 3 3 immoralSelf immoralSelf match m m 1 0.8428 
16-May-2018_15:56:53 Exp 7317 24 female R 3 3 4 moralSelf moralSelf match m m 1 0.6683 
16-May-2018_15:56:55 Exp 7317 24 female R 3 3 5 immoralOther immoralSelf mismatch n m 0 0.7546 
16-May-2018_15:56:58 Exp 7317 24 female R 3 3 6 immoralSelf moralOther mismatch n n 1 0.8943 
16-May-2018_15:57:00 Exp 7317 24 female R 3 3 7 moralOther moralSelf mismatch n m 0 0.7252 
16-May-2018_15:57:03 Exp 7317 24 female R 3 3 8 moralOther moralOther match m m 1 0.9882 
16-May-2018_15:57:05 Exp 7317 24 female R 3 3 9 immoralOther moralOther mismatch n n 1 0.6848 
16-May-2018_15:57:08 Exp 7317 24 female R 3 3 10 moralOther immoralSelf mismatch n m 0 0.9674 
16-May-2018_15:57:10 Exp 7317 24 female R 3 3 11 immoralSelf immoralOther mismatch n n 1 0.8074 
16-May-2018_15:57:13 Exp 7317 24 female R 3 3 12 immoralOther immoralOther match m m 1 0.7881 
16-May-2018_15:57:15 Exp 7317 24 female R 3 3 13 immoralOther immoralOther match m m 1 0.6608 
16-May-2018_15:57:17 Exp 7317 24 female R 3 3 14 moralOther moralOther match m n 0 0.7267 
16-May-2018_15:57:20 Exp 7317 24 female R 3 3 15 moralSelf immoralSelf mismatch n n 1 0.8821 
16-May-2018_15:57:22 Exp 7317 24 female R 3 3 16 moralSelf moralSelf match m m 1 0.6848 
16-May-2018_15:57:24 Exp 7317 24 female R 3 3 17 immoralSelf immoralSelf match m m 1 0.5191 
16-May-2018_15:57:27 Exp 7317 24 female R 3 3 18 moralOther moralOther match m n 0 0.7182 
16-May-2018_15:57:29 Exp 7317 24 female R 3 3 19 immoralSelf immoralSelf match m m 1 0.8294 
16-May-2018_15:57:31 Exp 7317 24 female R 3 3 20 moralOther moralSelf mismatch n m 0 0.6425 
16-May-2018_15:57:34 Exp 7317 24 female R 3 3 21 moralSelf immoralOther mismatch n n 1 0.8201 
16-May-2018_15:57:36 Exp 7317 24 female R 3 3 22 moralSelf moralSelf match m NA -1 1.0841 
16-May-2018_15:57:39 Exp 7317 24 female R 3 3 23 immoralSelf moralOther mismatch n m 0 1.0076 
16-May-2018_15:57:41 Exp 7317 24 female R 3 3 24 moralSelf moralOther mismatch n n 1 0.7564 
16-May-2018_15:57:55 Exp 7317 24 female R 3 4 1 immoralSelf immoralSelf match m n 0 0.8459 
16-May-2018_15:57:58 Exp 7317 24 female R 3 4 2 immoralOther immoralOther match m m 1 0.6117 
16-May-2018_15:58:00 Exp 7317 24 female R 3 4 3 immoralOther immoralSelf mismatch n n 1 0.6686 
16-May-2018_15:58:02 Exp 7317 24 female R 3 4 4 immoralSelf immoralOther mismatch n m 0 0.6669 
16-May-2018_15:58:05 Exp 7317 24 female R 3 4 5 moralOther immoralOther mismatch n n 1 0.7408 
16-May-2018_15:58:07 Exp 7317 24 female R 3 4 6 moralOther moralOther match m n 0 0.8685 
16-May-2018_15:58:10 Exp 7317 24 female R 3 4 7 moralOther immoralOther mismatch n n 1 0.8427 
16-May-2018_15:58:12 Exp 7317 24 female R 3 4 8 moralSelf moralOther mismatch n m 0 0.8203 
16-May-2018_15:58:14 Exp 7317 24 female R 3 4 9 moralSelf moralSelf match m m 1 0.6773 
16-May-2018_15:58:17 Exp 7317 24 female R 3 4 10 moralSelf immoralOther mismatch n n 1 0.6754 
16-May-2018_15:58:19 Exp 7317 24 female R 3 4 11 immoralSelf moralOther mismatch n n 1 1.0176 
16-May-2018_15:58:22 Exp 7317 24 female R 3 4 12 immoralOther immoralOther match m m 1 0.7947 
16-May-2018_15:58:24 Exp 7317 24 female R 3 4 13 immoralOther immoralOther match m m 1 0.6033 
16-May-2018_15:58:26 Exp 7317 24 female R 3 4 14 moralOther immoralSelf mismatch n n 1 0.8081 
16-May-2018_15:58:29 Exp 7317 24 female R 3 4 15 moralOther moralOther match m m 1 0.7969 
16-May-2018_15:58:31 Exp 7317 24 female R 3 4 16 moralSelf immoralSelf mismatch n n 1 0.9297 
16-May-2018_15:58:34 Exp 7317 24 female R 3 4 17 moralSelf moralSelf match m m 1 0.6850 
16-May-2018_15:58:36 Exp 7317 24 female R 3 4 18 moralOther moralOther match m n 0 0.7035 
16-May-2018_15:58:39 Exp 7317 24 female R 3 4 19 immoralSelf moralSelf mismatch n m 0 0.7865 
16-May-2018_15:58:41 Exp 7317 24 female R 3 4 20 immoralOther moralSelf mismatch n n 1 0.7790 
16-May-2018_15:58:44 Exp 7317 24 female R 3 4 21 immoralOther immoralSelf mismatch n n 1 0.9993 
16-May-2018_15:58:46 Exp 7317 24 female R 3 4 22 immoralSelf immoralSelf match m m 1 0.8602 
16-May-2018_15:58:49 Exp 7317 24 female R 3 4 23 immoralSelf immoralSelf match m m 1 0.8302 
16-May-2018_15:58:51 Exp 7317 24 female R 3 4 24 moralSelf moralSelf match m m 1 0.6674 
16-May-2018_15:58:53 Exp 7317 24 female R 3 5 1 immoralSelf immoralSelf match m m 1 0.8055 
16-May-2018_15:58:56 Exp 7317 24 female R 3 5 2 immoralOther immoralOther match m m 1 0.8662 
16-May-2018_15:58:58 Exp 7317 24 female R 3 5 3 moralOther moralOther match m m 1 0.7962 
16-May-2018_15:59:01 Exp 7317 24 female R 3 5 4 moralOther immoralOther mismatch n n 1 0.7567 
16-May-2018_15:59:03 Exp 7317 24 female R 3 5 5 moralSelf moralOther mismatch n m 0 0.8005 
16-May-2018_15:59:06 Exp 7317 24 female R 3 5 6 immoralOther moralOther mismatch n n 1 0.8855 
16-May-2018_15:59:08 Exp 7317 24 female R 3 5 7 moralSelf moralSelf match m m 1 0.7679 
16-May-2018_15:59:10 Exp 7317 24 female R 3 5 8 immoralSelf immoralSelf match m n 0 0.8799 
16-May-2018_15:59:13 Exp 7317 24 female R 3 5 9 moralSelf moralSelf match m m 1 0.5785 
16-May-2018_15:59:15 Exp 7317 24 female R 3 5 10 moralSelf immoralSelf mismatch n n 1 0.9987 
16-May-2018_15:59:18 Exp 7317 24 female R 3 5 11 immoralSelf moralSelf mismatch n n 1 1.0275 
16-May-2018_15:59:20 Exp 7317 24 female R 3 5 12 immoralOther immoralSelf mismatch n n 1 0.7848 
16-May-2018_15:59:23 Exp 7317 24 female R 3 5 13 immoralSelf moralSelf mismatch n NA -1 1.0841 
16-May-2018_15:59:25 Exp 7317 24 female R 3 5 14 immoralSelf immoralSelf match m n 0 0.6396 
16-May-2018_15:59:28 Exp 7317 24 female R 3 5 15 immoralOther immoralOther match m m 1 0.7532 
16-May-2018_15:59:30 Exp 7317 24 female R 3 5 16 moralOther immoralSelf mismatch n n 1 0.9490 
16-May-2018_15:59:33 Exp 7317 24 female R 3 5 17 moralOther immoralSelf mismatch n m 0 0.9327 
16-May-2018_15:59:35 Exp 7317 24 female R 3 5 18 moralSelf moralSelf match m m 1 0.8080 
16-May-2018_15:59:38 Exp 7317 24 female R 3 5 19 immoralSelf immoralOther mismatch n n 1 0.7649 
16-May-2018_15:59:40 Exp 7317 24 female R 3 5 20 immoralOther moralOther mismatch n n 1 0.8850 
16-May-2018_15:59:43 Exp 7317 24 female R 3 5 21 moralOther moralOther match m m 1 0.6635 
16-May-2018_15:59:45 Exp 7317 24 female R 3 5 22 moralSelf moralOther mismatch n n 1 0.7693 
16-May-2018_15:59:47 Exp 7317 24 female R 3 5 23 immoralOther immoralOther match m m 1 0.7295 
16-May-2018_15:59:50 Exp 7317 24 female R 3 5 24 moralOther moralOther match m n 0 0.6529 
Date Prac Sub Age Sex Hand Block Bin Trial Shape Label Match CorrResp Resp ACC RT
16-May-2018_16:05:17 Exp 7317 24 female R 1 1 1 moralOther moralSelf mismatch n m 0 0.6479 
16-May-2018_16:05:20 Exp 7317 24 female R 1 1 2 immoralSelf immoralSelf match m m 1 0.9738 
16-May-2018_16:05:22 Exp 7317 24 female R 1 1 3 moralSelf immoralOther mismatch n n 1 0.9141 
16-May-2018_16:05:25 Exp 7317 24 female R 1 1 4 immoralOther moralSelf mismatch n n 1 0.9171 
16-May-2018_16:05:27 Exp 7317 24 female R 1 1 5 moralOther immoralSelf mismatch n n 1 0.9163 
16-May-2018_16:05:30 Exp 7317 24 female R 1 1 6 immoralOther immoralOther match m m 1 0.6833 
16-May-2018_16:05:32 Exp 7317 24 female R 1 1 7 immoralSelf immoralSelf match m m 1 0.9818 
16-May-2018_16:05:35 Exp 7317 24 female R 1 1 8 moralOther moralOther match m n 0 0.8742 
16-May-2018_16:05:37 Exp 7317 24 female R 1 1 9 moralSelf immoralOther mismatch n n 1 0.8324 
16-May-2018_16:05:40 Exp 7317 24 female R 1 1 10 moralSelf moralSelf match m m 1 0.9380 
16-May-2018_16:05:42 Exp 7317 24 female R 1 1 11 immoralOther immoralOther match m m 1 0.6934 
16-May-2018_16:05:45 Exp 7317 24 female R 1 1 12 immoralOther immoralSelf mismatch n n 1 0.9560 
16-May-2018_16:05:47 Exp 7317 24 female R 1 1 13 moralOther moralOther match m n 0 0.9198 
16-May-2018_16:05:50 Exp 7317 24 female R 1 1 14 moralOther moralOther match m m 1 0.6870 
16-May-2018_16:05:52 Exp 7317 24 female R 1 1 15 moralSelf moralSelf match m m 1 0.8975 
16-May-2018_16:05:55 Exp 7317 24 female R 1 1 16 immoralSelf moralOther mismatch n m 0 0.9602 
16-May-2018_16:05:57 Exp 7317 24 female R 1 1 17 immoralSelf immoralOther mismatch n n 1 0.9960 
16-May-2018_16:06:00 Exp 7317 24 female R 1 1 18 immoralOther immoralOther match m m 1 0.8687 
16-May-2018_16:06:02 Exp 7317 24 female R 1 1 19 moralSelf immoralOther mismatch n n 1 0.8108 
16-May-2018_16:06:05 Exp 7317 24 female R 1 1 20 moralSelf moralSelf match m m 1 0.7638 
16-May-2018_16:06:07 Exp 7317 24 female R 1 1 21 moralOther moralSelf mismatch n n 1 0.9320 
16-May-2018_16:06:10 Exp 7317 24 female R 1 1 22 immoralOther moralSelf mismatch n n 1 0.8473 
16-May-2018_16:06:12 Exp 7317 24 female R 1 1 23 immoralSelf immoralSelf match m m 1 0.8292 
16-May-2018_16:06:15 Exp 7317 24 female R 1 1 24 immoralSelf immoralOther mismatch n n 1 0.8583 
16-May-2018_16:06:17 Exp 7317 24 female R 1 2 1 moralSelf moralOther mismatch n m 0 0.7723 
16-May-2018_16:06:20 Exp 7317 24 female R 1 2 2 moralOther immoralSelf mismatch n NA -1 1.0841 
16-May-2018_16:06:23 Exp 7317 24 female R 1 2 3 immoralSelf immoralSelf match m m 1 0.9268 
16-May-2018_16:06:25 Exp 7317 24 female R 1 2 4 moralSelf moralSelf match m m 1 0.7943 
16-May-2018_16:06:27 Exp 7317 24 female R 1 2 5 immoralSelf moralOther mismatch n m 0 0.8349 
16-May-2018_16:06:30 Exp 7317 24 female R 1 2 6 moralSelf immoralSelf mismatch n n 1 0.9004 
16-May-2018_16:06:32 Exp 7317 24 female R 1 2 7 moralOther moralOther match m m 1 0.8670 
16-May-2018_16:06:35 Exp 7317 24 female R 1 2 8 moralSelf moralSelf match m m 1 0.6850 
16-May-2018_16:06:37 Exp 7317 24 female R 1 2 9 immoralOther immoralOther match m m 1 0.5675 
16-May-2018_16:06:40 Exp 7317 24 female R 1 2 10 immoralSelf immoralOther mismatch n m 0 0.9916 
16-May-2018_16:06:42 Exp 7317 24 female R 1 2 11 immoralOther immoralOther match m m 1 0.8082 
16-May-2018_16:06:44 Exp 7317 24 female R 1 2 12 immoralOther moralSelf mismatch n n 1 0.8130 
16-May-2018_16:06:47 Exp 7317 24 female R 1 2 13 immoralSelf immoralSelf match m m 1 0.6540 
16-May-2018_16:06:49 Exp 7317 24 female R 1 2 14 immoralOther moralOther mismatch n n 1 0.7238 
16-May-2018_16:06:52 Exp 7317 24 female R 1 2 15 moralSelf moralSelf match m n 0 0.8430 
16-May-2018_16:06:54 Exp 7317 24 female R 1 2 16 immoralSelf immoralSelf match m m 1 0.7723 
16-May-2018_16:06:56 Exp 7317 24 female R 1 2 17 moralSelf immoralSelf mismatch n n 1 0.8444 
16-May-2018_16:06:59 Exp 7317 24 female R 1 2 18 moralOther immoralOther mismatch n NA -1 1.0841 
16-May-2018_16:07:02 Exp 7317 24 female R 1 2 19 immoralOther immoralSelf mismatch n n 1 0.7888 
16-May-2018_16:07:04 Exp 7317 24 female R 1 2 20 moralOther moralOther match m m 1 0.7972 
16-May-2018_16:07:06 Exp 7317 24 female R 1 2 21 moralOther immoralSelf mismatch n n 1 0.6661 
16-May-2018_16:07:09 Exp 7317 24 female R 1 2 22 moralOther moralOther match m m 1 1.0761 
16-May-2018_16:07:12 Exp 7317 24 female R 1 2 23 immoralSelf moralOther mismatch n NA -1 1.0841 
16-May-2018_16:07:14 Exp 7317 24 female R 1 2 24 immoralOther immoralOther match m m 1 0.7487 
Date Prac Sub Age Sex Hand Block Bin Trial Shape Label Match CorrResp Resp ACC RT
16-May-2018_16:12:03 Exp 7317 24 female R 1 1 1 moralOther immoralOther mismatch n m 0 1.0254 
16-May-2018_16:12:05 Exp 7317 24 female R 1 1 2 moralSelf moralSelf match m m 1 0.8549 
16-May-2018_16:12:08 Exp 7317 24 female R 1 1 3 moralOther immoralSelf mismatch n NA -1 1.0841 
16-May-2018_16:12:10 Exp 7317 24 female R 1 1 4 immoralOther immoralOther match m m 1 0.5030 
16-May-2018_16:12:13 Exp 7317 24 female R 1 1 5 immoralSelf immoralOther mismatch n n 1 0.6980 
16-May-2018_16:12:15 Exp 7317 24 female R 1 1 6 immoralSelf immoralSelf match m m 1 0.7846 
16-May-2018_16:12:17 Exp 7317 24 female R 1 1 7 immoralOther moralOther mismatch n n 1 0.7410 
16-May-2018_16:12:20 Exp 7317 24 female R 1 1 8 immoralSelf immoralOther mismatch n n 1 0.8766 
16-May-2018_16:12:22 Exp 7317 24 female R 1 1 9 immoralOther immoralOther match m m 1 0.7228 
16-May-2018_16:12:25 Exp 7317 24 female R 1 1 10 moralOther moralOther match m n 0 0.9940 
16-May-2018_16:12:27 Exp 7317 24 female R 1 1 11 immoralSelf immoralOther mismatch n n 1 0.8826 
16-May-2018_16:12:30 Exp 7317 24 female R 1 1 12 immoralOther moralOther mismatch n n 1 0.7810 
16-May-2018_16:12:32 Exp 7317 24 female R 1 1 13 moralSelf immoralSelf mismatch n n 1 0.9613 
16-May-2018_16:12:35 Exp 7317 24 female R 1 1 14 moralSelf immoralSelf mismatch n n 1 0.7012 
16-May-2018_16:12:37 Exp 7317 24 female R 1 1 15 immoralSelf immoralSelf match m m 1 0.9158 
16-May-2018_16:12:40 Exp 7317 24 female R 1 1 16 moralOther immoralSelf mismatch n n 1 0.8510 
16-May-2018_16:12:42 Exp 7317 24 female R 1 1 17 immoralSelf immoralSelf match m m 1 0.7127 
16-May-2018_16:12:44 Exp 7317 24 female R 1 1 18 immoralOther immoralOther match m m 1 0.7157 
16-May-2018_16:12:47 Exp 7317 24 female R 1 1 19 moralOther moralOther match m m 1 0.6269 
16-May-2018_16:12:49 Exp 7317 24 female R 1 1 20 moralOther moralOther match m n 0 0.9282 
16-May-2018_16:12:52 Exp 7317 24 female R 1 1 21 immoralOther moralOther mismatch n n 1 0.9316 
16-May-2018_16:12:54 Exp 7317 24 female R 1 1 22 moralSelf immoralOther mismatch n n 1 1.0388 
16-May-2018_16:12:57 Exp 7317 24 female R 1 1 23 moralSelf moralSelf match m m 1 0.7925 
16-May-2018_16:12:59 Exp 7317 24 female R 1 1 24 moralSelf moralSelf match m n 0 0.9129 
16-May-2018_16:13:02 Exp 7317 24 female R 1 2 1 moralOther moralSelf mismatch n n 1 0.7319 
16-May-2018_16:13:04 Exp 7317 24 female R 1 2 2 immoralOther immoralOther match m m 1 0.6472 
16-May-2018_16:13:07 Exp 7317 24 female R 1 2 3 moralSelf moralOther mismatch n NA -1 1.0841 
16-May-2018_16:13:09 Exp 7317 24 female R 1 2 4 immoralSelf immoralOther mismatch n NA -1 1.0841 
16-May-2018_16:13:12 Exp 7317 24 female R 1 2 5 immoralSelf immoralSelf match m m 1 0.8421 
16-May-2018_16:13:14 Exp 7317 24 female R 1 2 6 moralSelf moralOther mismatch n m 0 0.7635 
16-May-2018_16:13:17 Exp 7317 24 female R 1 2 7 immoralOther moralSelf mismatch n n 1 0.8356 
16-May-2018_16:13:19 Exp 7317 24 female R 1 2 8 immoralSelf immoralSelf match m m 1 0.8690 
16-May-2018_16:13:22 Exp 7317 24 female R 1 2 9 moralSelf moralSelf match m m 1 0.7153 
16-May-2018_16:13:24 Exp 7317 24 female R 1 2 10 moralSelf immoralSelf mismatch n n 1 0.8345 
16-May-2018_16:13:26 Exp 7317 24 female R 1 2 11 immoralOther immoralOther match m m 1 0.6440 
16-May-2018_16:13:29 Exp 7317 24 female R 1 2 12 immoralSelf moralOther mismatch n n 1 0.8054 
16-May-2018_16:13:31 Exp 7317 24 female R 1 2 13 moralOther moralOther match m m 1 0.9141 
16-May-2018_16:13:34 Exp 7317 24 female R 1 2 14 immoralOther immoralOther match m m 1 0.6131 
16-May-2018_16:13:36 Exp 7317 24 female R 1 2 15 moralOther moralOther match m m 1 0.9343 
16-May-2018_16:13:39 Exp 7317 24 female R 1 2 16 immoralSelf moralOther mismatch n n 1 0.9856 
16-May-2018_16:13:41 Exp 7317 24 female R 1 2 17 moralSelf moralSelf match m m 1 0.7062 
16-May-2018_16:13:44 Exp 7317 24 female R 1 2 18 moralOther moralSelf mismatch n n 1 1.0371 
16-May-2018_16:13:46 Exp 7317 24 female R 1 2 19 immoralOther moralSelf mismatch n n 1 0.8866 
16-May-2018_16:13:49 Exp 7317 24 female R 1 2 20 immoralSelf immoralSelf match m m 1 0.8810 
16-May-2018_16:13:52 Exp 7317 24 female R 1 2 21 moralOther immoralSelf mismatch n NA -1 1.0841 
16-May-2018_16:13:54 Exp 7317 24 female R 1 2 22 immoralOther moralOther mismatch n n 1 0.7180 
16-May-2018_16:13:56 Exp 7317 24 female R 1 2 23 moralSelf moralSelf match m m 1 0.8851 
16-May-2018_16:13:59 Exp 7317 24 female R 1 2 24 moralOther moralOther match m NA -1 1.0841 
Date Prac Sub Age Sex Hand Block Bin Trial Shape Label Match CorrResp Resp ACC RT
16-May-2018_16:18:19 Exp 7317 24 female R 1 1 1 immoralSelf immoralSelf match m NA -1 1.0841 
16-May-2018_16:18:21 Exp 7317 24 female R 1 1 2 immoralOther moralSelf mismatch n m 0 0.8583 
16-May-2018_16:18:23 Exp 7317 24 female R 1 1 3 immoralOther moralOther mismatch n n 1 0.6124 
16-May-2018_16:18:26 Exp 7317 24 female R 1 1 4 immoralOther moralOther mismatch n n 1 0.8853 
16-May-2018_16:18:29 Exp 7317 24 female R 1 1 5 moralOther moralSelf mismatch n n 1 0.9278 
16-May-2018_16:18:31 Exp 7317 24 female R 1 1 6 immoralOther immoralOther match m m 1 0.6112 
16-May-2018_16:18:33 Exp 7317 24 female R 1 1 7 moralOther immoralSelf mismatch n m 0 0.8763 
16-May-2018_16:18:36 Exp 7317 24 female R 1 1 8 moralSelf moralSelf match m m 1 0.8664 
16-May-2018_16:18:38 Exp 7317 24 female R 1 1 9 immoralOther immoralOther match m m 1 0.6604 
16-May-2018_16:18:41 Exp 7317 24 female R 1 1 10 immoralSelf immoralSelf match m m 1 0.8305 
16-May-2018_16:18:43 Exp 7317 24 female R 1 1 11 moralSelf immoralSelf mismatch n n 1 0.8836 
16-May-2018_16:18:46 Exp 7317 24 female R 1 1 12 immoralSelf moralSelf mismatch n n 1 0.9741 
16-May-2018_16:18:48 Exp 7317 24 female R 1 1 13 immoralSelf immoralOther mismatch n n 1 0.9944 
16-May-2018_16:18:51 Exp 7317 24 female R 1 1 14 immoralSelf immoralSelf match m m 1 0.9710 
16-May-2018_16:18:53 Exp 7317 24 female R 1 1 15 moralSelf immoralSelf mismatch n n 1 0.9311 
16-May-2018_16:18:56 Exp 7317 24 female R 1 1 16 moralOther immoralOther mismatch n n 1 0.8705 
16-May-2018_16:18:58 Exp 7317 24 female R 1 1 17 immoralSelf immoralOther mismatch n n 1 0.9327 
16-May-2018_16:19:01 Exp 7317 24 female R 1 1 18 moralSelf moralSelf match m m 1 0.7202 
16-May-2018_16:19:03 Exp 7317 24 female R 1 1 19 immoralOther immoralOther match m m 1 0.7432 
16-May-2018_16:19:06 Exp 7317 24 female R 1 1 20 moralOther moralOther match m n 0 0.9989 
16-May-2018_16:19:08 Exp 7317 24 female R 1 1 21 moralOther moralOther match m m 1 0.8597 
16-May-2018_16:19:11 Exp 7317 24 female R 1 1 22 moralSelf moralSelf match m m 1 0.7657 
16-May-2018_16:19:13 Exp 7317 24 female R 1 1 23 moralSelf immoralSelf mismatch n NA -1 1.0841 
16-May-2018_16:19:16 Exp 7317 24 female R 1 1 24 moralOther moralOther match m m 1 0.9283 
16-May-2018_16:19:18 Exp 7317 24 female R 1 2 1 moralOther moralOther match m m 1 0.6117 
16-May-2018_16:19:21 Exp 7317 24 female R 1 2 2 moralSelf immoralOther mismatch n n 1 0.8047 
16-May-2018_16:19:23 Exp 7317 24 female R 1 2 3 immoralSelf immoralSelf match m m 1 0.7615 
16-May-2018_16:19:26 Exp 7317 24 female R 1 2 4 moralOther moralOther match m m 1 0.9573 
16-May-2018_16:19:28 Exp 7317 24 female R 1 2 5 moralOther immoralSelf mismatch n m 0 1.0572 
16-May-2018_16:19:31 Exp 7317 24 female R 1 2 6 immoralOther immoralOther match m m 1 0.5472 
16-May-2018_16:19:33 Exp 7317 24 female R 1 2 7 immoralOther immoralSelf mismatch n n 1 0.6988 
16-May-2018_16:19:35 Exp 7317 24 female R 1 2 8 immoralSelf immoralSelf match m m 1 0.6974 
16-May-2018_16:19:38 Exp 7317 24 female R 1 2 9 immoralSelf moralOther mismatch n n 1 0.9681 
16-May-2018_16:19:40 Exp 7317 24 female R 1 2 10 immoralSelf immoralOther mismatch n n 1 0.8323 
16-May-2018_16:19:43 Exp 7317 24 female R 1 2 11 moralSelf immoralSelf mismatch n n 1 0.8978 
16-May-2018_16:19:45 Exp 7317 24 female R 1 2 12 moralSelf moralSelf match m m 1 0.6885 
16-May-2018_16:19:48 Exp 7317 24 female R 1 2 13 moralSelf moralSelf match m m 1 0.7869 
16-May-2018_16:19:50 Exp 7317 24 female R 1 2 14 immoralOther immoralSelf mismatch n n 1 0.8995 
16-May-2018_16:19:52 Exp 7317 24 female R 1 2 15 immoralOther immoralOther match m m 1 0.5222 
16-May-2018_16:19:55 Exp 7317 24 female R 1 2 16 immoralOther immoralOther match m m 1 0.7053 
16-May-2018_16:19:57 Exp 7317 24 female R 1 2 17 moralSelf moralOther mismatch n n 1 0.7403 
16-May-2018_16:19:59 Exp 7317 24 female R 1 2 18 immoralSelf immoralSelf match m m 1 0.7478 
16-May-2018_16:20:02 Exp 7317 24 female R 1 2 19 moralOther moralOther match m m 1 0.6755 
16-May-2018_16:20:04 Exp 7317 24 female R 1 2 20 moralOther moralSelf mismatch n m 0 0.5936 
16-May-2018_16:20:06 Exp 7317 24 female R 1 2 21 immoralOther immoralSelf mismatch n n 1 0.8343 
16-May-2018_16:20:09 Exp 7317 24 female R 1 2 22 moralOther immoralOther mismatch n n 1 0.8595 
16-May-2018_16:20:11 Exp 7317 24 female R 1 2 23 moralSelf moralSelf match m m 1 0.7177 
16-May-2018_16:20:14 Exp 7317 24 female R 1 2 24 immoralSelf moralSelf mismatch n n 1 0.8689 
Date Prac Sub Age Sex Hand Block Bin Trial Shape Label Match CorrResp Resp ACC RT
16-May-2018_16:24:46 Exp 7317 24 female R 1 1 1 moralSelf moralSelf match m m 1 0.6022 
16-May-2018_16:24:48 Exp 7317 24 female R 1 1 2 immoralSelf immoralSelf match m m 1 0.6550 
16-May-2018_16:24:51 Exp 7317 24 female R 1 1 3 immoralSelf moralOther mismatch n NA -1 1.0841 
16-May-2018_16:24:53 Exp 7317 24 female R 1 1 4 immoralSelf immoralSelf match m NA -1 1.0841 
16-May-2018_16:24:56 Exp 7317 24 female R 1 1 5 moralSelf immoralOther mismatch n n 1 0.7377 
16-May-2018_16:24:58 Exp 7317 24 female R 1 1 6 moralSelf moralSelf match m m 1 0.8131 
16-May-2018_16:25:00 Exp 7317 24 female R 1 1 7 immoralOther immoralOther match m m 1 0.6462 
16-May-2018_16:25:03 Exp 7317 24 female R 1 1 8 moralOther moralSelf mismatch n m 0 0.9559 
16-May-2018_16:25:05 Exp 7317 24 female R 1 1 9 moralOther moralOther match m m 1 0.9117 
16-May-2018_16:25:08 Exp 7317 24 female R 1 1 10 moralOther moralOther match m m 1 0.8267 
16-May-2018_16:25:10 Exp 7317 24 female R 1 1 11 immoralOther immoralOther match m m 1 0.7280 
16-May-2018_16:25:13 Exp 7317 24 female R 1 1 12 moralOther moralSelf mismatch n NA -1 1.0841 
16-May-2018_16:25:16 Exp 7317 24 female R 1 1 13 moralSelf immoralSelf mismatch n n 1 0.9739 
16-May-2018_16:25:18 Exp 7317 24 female R 1 1 14 moralSelf moralSelf match m m 1 0.8422 
16-May-2018_16:25:21 Exp 7317 24 female R 1 1 15 immoralSelf immoralSelf match m m 1 0.7716 
16-May-2018_16:25:23 Exp 7317 24 female R 1 1 16 moralSelf immoralOther mismatch n n 1 0.7638 
16-May-2018_16:25:25 Exp 7317 24 female R 1 1 17 immoralOther immoralSelf mismatch n n 1 0.9159 
16-May-2018_16:25:28 Exp 7317 24 female R 1 1 18 immoralSelf moralSelf mismatch n n 1 0.8910 
16-May-2018_16:25:30 Exp 7317 24 female R 1 1 19 immoralOther immoralOther match m m 1 0.7494 
16-May-2018_16:25:33 Exp 7317 24 female R 1 1 20 immoralOther immoralSelf mismatch n n 1 0.7651 
16-May-2018_16:25:35 Exp 7317 24 female R 1 1 21 immoralSelf moralOther mismatch n n 1 0.7892 
16-May-2018_16:25:37 Exp 7317 24 female R 1 1 22 moralOther moralOther match m m 1 0.6537 
16-May-2018_16:25:40 Exp 7317 24 female R 1 1 23 moralOther immoralSelf mismatch n n 1 0.8516 
16-May-2018_16:25:42 Exp 7317 24 female R 1 1 24 immoralOther moralOther mismatch n n 1 0.8413 
16-May-2018_16:25:45 Exp 7317 24 female R 1 2 1 immoralOther immoralSelf mismatch n NA -1 1.0841 
16-May-2018_16:25:48 Exp 7317 24 female R 1 2 2 immoralSelf immoralOther mismatch n m 0 0.8692 
16-May-2018_16:25:50 Exp 7317 24 female R 1 2 3 immoralSelf moralOther mismatch n n 1 0.7875 
16-May-2018_16:25:53 Exp 7317 24 female R 1 2 4 moralSelf moralSelf match m m 1 0.8279 
16-May-2018_16:25:55 Exp 7317 24 female R 1 2 5 immoralOther immoralSelf mismatch n n 1 0.9453 
16-May-2018_16:25:57 Exp 7317 24 female R 1 2 6 immoralOther immoralOther match m m 1 0.4888 
16-May-2018_16:26:00 Exp 7317 24 female R 1 2 7 moralSelf immoralSelf mismatch n n 1 0.7473 
16-May-2018_16:26:02 Exp 7317 24 female R 1 2 8 moralOther moralOther match m m 1 0.8110 
16-May-2018_16:26:04 Exp 7317 24 female R 1 2 9 immoralOther immoralOther match m m 1 0.7479 
16-May-2018_16:26:07 Exp 7317 24 female R 1 2 10 moralSelf moralOther mismatch n n 1 0.6996 
16-May-2018_16:26:09 Exp 7317 24 female R 1 2 11 immoralSelf immoralSelf match m m 1 0.8982 
16-May-2018_16:26:12 Exp 7317 24 female R 1 2 12 immoralSelf immoralSelf match m m 1 0.6490 
16-May-2018_16:26:14 Exp 7317 24 female R 1 2 13 moralOther immoralOther mismatch n n 1 0.7107 
16-May-2018_16:26:17 Exp 7317 24 female R 1 2 14 moralOther immoralSelf mismatch n m 0 0.9775 
16-May-2018_16:26:19 Exp 7317 24 female R 1 2 15 moralSelf immoralOther mismatch n n 1 0.8939 
16-May-2018_16:26:22 Exp 7317 24 female R 1 2 16 immoralOther immoralOther match m m 1 0.9325 
16-May-2018_16:26:24 Exp 7317 24 female R 1 2 17 moralSelf moralSelf match m m 1 0.7760 
16-May-2018_16:26:26 Exp 7317 24 female R 1 2 18 moralOther immoralOther mismatch n n 1 0.7883 
16-May-2018_16:26:29 Exp 7317 24 female R 1 2 19 moralOther moralOther match m m 1 1.0048 
16-May-2018_16:26:32 Exp 7317 24 female R 1 2 20 immoralSelf moralSelf mismatch n n 1 1.0178 
16-May-2018_16:26:34 Exp 7317 24 female R 1 2 21 immoralOther moralSelf mismatch n n 1 1.0587 
16-May-2018_16:26:37 Exp 7317 24 female R 1 2 22 moralOther moralOther match m m 1 0.7728 
16-May-2018_16:26:39 Exp 7317 24 female R 1 2 23 immoralSelf immoralSelf match m m 1 0.6928 
16-May-2018_16:26:42 Exp 7317 24 female R 1 2 24 moralSelf moralSelf match m m 1 0.7796 
Date Prac Sub Age Sex Hand Block Bin Trial Shape Label Match CorrResp Resp ACC RT
16-May-2018_16:30:52 Exp 7317 24 female R 1 1 1 moralSelf moralSelf match m m 1 0.6471 
16-May-2018_16:30:54 Exp 7317 24 female R 1 1 2 moralOther moralSelf mismatch n n 1 0.7729 
16-May-2018_16:30:57 Exp 7317 24 female R 1 1 3 immoralSelf immoralOther mismatch n n 1 0.7729 
16-May-2018_16:30:59 Exp 7317 24 female R 1 1 4 immoralOther immoralOther match m m 1 0.5970 
16-May-2018_16:31:01 Exp 7317 24 female R 1 1 5 moralSelf moralSelf match m m 1 0.8259 
16-May-2018_16:31:04 Exp 7317 24 female R 1 1 6 moralOther moralOther match m m 1 0.9031 
16-May-2018_16:31:06 Exp 7317 24 female R 1 1 7 immoralOther immoralSelf mismatch n n 1 0.7140 
16-May-2018_16:31:09 Exp 7317 24 female R 1 1 8 immoralOther moralOther mismatch n n 1 0.8448 
16-May-2018_16:31:11 Exp 7317 24 female R 1 1 9 immoralOther immoralOther match m m 1 0.4907 
16-May-2018_16:31:13 Exp 7317 24 female R 1 1 10 immoralSelf immoralOther mismatch n n 1 0.7331 
16-May-2018_16:31:15 Exp 7317 24 female R 1 1 11 moralOther moralOther match m m 1 0.6325 
16-May-2018_16:31:18 Exp 7317 24 female R 1 1 12 immoralOther immoralOther match m n 0 0.8659 
16-May-2018_16:31:20 Exp 7317 24 female R 1 1 13 moralOther moralOther match m m 1 0.8040 
16-May-2018_16:31:23 Exp 7317 24 female R 1 1 14 immoralSelf immoralSelf match m m 1 0.8487 
16-May-2018_16:31:25 Exp 7317 24 female R 1 1 15 immoralSelf immoralOther mismatch n n 1 0.7825 
16-May-2018_16:31:27 Exp 7317 24 female R 1 1 16 moralSelf moralOther mismatch n m 0 0.6508 
16-May-2018_16:31:30 Exp 7317 24 female R 1 1 17 moralSelf moralSelf match m m 1 0.5685 
16-May-2018_16:31:32 Exp 7317 24 female R 1 1 18 immoralSelf immoralSelf match m m 1 0.7287 
16-May-2018_16:31:34 Exp 7317 24 female R 1 1 19 moralSelf immoralOther mismatch n n 1 0.8041 
16-May-2018_16:31:37 Exp 7317 24 female R 1 1 20 immoralSelf immoralSelf match m m 1 0.7529 
16-May-2018_16:31:39 Exp 7317 24 female R 1 1 21 immoralOther immoralSelf mismatch n n 1 0.8528 
16-May-2018_16:31:42 Exp 7317 24 female R 1 1 22 moralSelf moralOther mismatch n m 0 0.6903 
16-May-2018_16:31:44 Exp 7317 24 female R 1 1 23 moralOther moralSelf mismatch n n 1 0.8289 
16-May-2018_16:31:47 Exp 7317 24 female R 1 1 24 moralOther moralSelf mismatch n NA -1 1.0841 
16-May-2018_16:31:49 Exp 7317 24 female R 1 2 1 immoralSelf immoralOther mismatch n n 1 0.7726 
16-May-2018_16:31:52 Exp 7317 24 female R 1 2 2 immoralOther immoralSelf mismatch n n 1 0.9569 
16-May-2018_16:31:54 Exp 7317 24 female R 1 2 3 moralOther moralOther match m m 1 1.0565 
16-May-2018_16:31:57 Exp 7317 24 female R 1 2 4 immoralSelf immoralSelf match m m 1 0.5465 
16-May-2018_16:31:59 Exp 7317 24 female R 1 2 5 moralSelf moralOther mismatch n m 0 0.7542 
16-May-2018_16:32:01 Exp 7317 24 female R 1 2 6 immoralOther immoralOther match m m 1 0.6941 
16-May-2018_16:32:04 Exp 7317 24 female R 1 2 7 moralSelf moralOther mismatch n n 1 0.9167 
16-May-2018_16:32:07 Exp 7317 24 female R 1 2 8 moralOther immoralOther mismatch n n 1 1.0278 
16-May-2018_16:32:09 Exp 7317 24 female R 1 2 9 moralOther moralSelf mismatch n NA -1 1.0841 
16-May-2018_16:32:11 Exp 7317 24 female R 1 2 10 moralSelf moralSelf match m m 1 0.5636 
16-May-2018_16:32:14 Exp 7317 24 female R 1 2 11 immoralOther moralOther mismatch n n 1 0.8197 
16-May-2018_16:32:16 Exp 7317 24 female R 1 2 12 immoralSelf moralOther mismatch n n 1 0.7647 
16-May-2018_16:32:19 Exp 7317 24 female R 1 2 13 moralSelf moralSelf match m m 1 0.6848 
16-May-2018_16:32:21 Exp 7317 24 female R 1 2 14 immoralOther immoralOther match m m 1 0.7673 
16-May-2018_16:32:24 Exp 7317 24 female R 1 2 15 immoralSelf immoralSelf match m m 1 0.8873 
16-May-2018_16:32:26 Exp 7317 24 female R 1 2 16 immoralSelf immoralSelf match m n 0 0.8498 
16-May-2018_16:32:29 Exp 7317 24 female R 1 2 17 moralOther moralOther match m n 0 0.9036 
16-May-2018_16:32:31 Exp 7317 24 female R 1 2 18 immoralOther immoralSelf mismatch n m 0 0.6985 
16-May-2018_16:32:33 Exp 7317 24 female R 1 2 19 moralOther moralOther match m m 1 0.8892 
16-May-2018_16:32:36 Exp 7317 24 female R 1 2 20 moralSelf moralOther mismatch n m 0 0.8516 
16-May-2018_16:32:38 Exp 7317 24 female R 1 2 21 immoralSelf immoralOther mismatch n m 0 0.8333 
16-May-2018_16:32:41 Exp 7317 24 female R 1 2 22 moralOther immoralOther mismatch n NA -1 1.0841 
16-May-2018_16:32:43 Exp 7317 24 female R 1 2 23 immoralOther immoralOther match m m 1 0.5414 
16-May-2018_16:32:46 Exp 7317 24 female R 1 2 24 moralSelf moralSelf match m m 1 0.6450 
