Date Prac Sub Age Sex Hand Block Bin Trial Shape Label Match CorrResp Resp ACC RT
26-May-2018_15:01:20 Exp 7328 20 male R 1 1 1 immoralOther moralOther mismatch m n 0 0.7852 
26-May-2018_15:01:22 Exp 7328 20 male R 1 1 2 immoralSelf immoralSelf match n n 1 0.8294 
26-May-2018_15:01:24 Exp 7328 20 male R 1 1 3 moralOther moralOther match n n 1 0.7506 
26-May-2018_15:01:26 Exp 7328 20 male R 1 1 4 immoralSelf immoralOther mismatch m m 1 0.7662 
26-May-2018_15:01:28 Exp 7328 20 male R 1 1 5 moralSelf moralSelf match n n 1 0.5701 
26-May-2018_15:01:30 Exp 7328 20 male R 1 1 6 moralSelf moralSelf match n n 1 0.7099 
26-May-2018_15:01:32 Exp 7328 20 male R 1 1 7 immoralSelf immoralSelf match n n 1 0.6605 
26-May-2018_15:01:34 Exp 7328 20 male R 1 1 8 moralSelf immoralSelf mismatch m m 1 0.6422 
26-May-2018_15:01:37 Exp 7328 20 male R 1 1 9 immoralSelf moralSelf mismatch m m 1 0.9195 
26-May-2018_15:01:39 Exp 7328 20 male R 1 1 10 moralOther immoralSelf mismatch m m 1 0.9785 
26-May-2018_15:01:42 Exp 7328 20 male R 1 1 11 moralSelf immoralSelf mismatch m m 1 1.0744 
26-May-2018_15:01:44 Exp 7328 20 male R 1 1 12 moralOther moralOther match n n 1 0.5085 
26-May-2018_15:01:46 Exp 7328 20 male R 1 1 13 moralOther moralOther match n n 1 0.7552 
26-May-2018_15:01:48 Exp 7328 20 male R 1 1 14 immoralOther immoralOther match n m 0 0.6108 
26-May-2018_15:01:50 Exp 7328 20 male R 1 1 15 immoralOther moralSelf mismatch m m 1 0.8316 
26-May-2018_15:01:52 Exp 7328 20 male R 1 1 16 moralOther immoralSelf mismatch m m 1 0.8406 
26-May-2018_15:01:54 Exp 7328 20 male R 1 1 17 immoralOther immoralOther match n n 1 0.7658 
26-May-2018_15:01:57 Exp 7328 20 male R 1 1 18 moralSelf moralSelf match n n 1 0.6337 
26-May-2018_15:01:59 Exp 7328 20 male R 1 1 19 immoralSelf immoralSelf match n n 1 0.8469 
26-May-2018_15:02:01 Exp 7328 20 male R 1 1 20 moralSelf moralOther mismatch m n 0 0.5685 
26-May-2018_15:02:03 Exp 7328 20 male R 1 1 21 immoralOther immoralOther match n n 1 1.0603 
26-May-2018_15:02:06 Exp 7328 20 male R 1 1 22 immoralOther moralSelf mismatch m m 1 1.0021 
26-May-2018_15:02:08 Exp 7328 20 male R 1 1 23 immoralSelf moralSelf mismatch m m 1 0.7866 
26-May-2018_15:02:10 Exp 7328 20 male R 1 1 24 moralOther moralSelf mismatch m n 0 0.7829 
26-May-2018_15:02:12 Exp 7328 20 male R 1 2 1 moralSelf moralOther mismatch m n 0 0.5430 
26-May-2018_15:02:14 Exp 7328 20 male R 1 2 2 moralSelf immoralOther mismatch m m 1 0.6664 
26-May-2018_15:02:17 Exp 7328 20 male R 1 2 3 moralOther moralOther match n NA -1 1.1081 
26-May-2018_15:02:19 Exp 7328 20 male R 1 2 4 immoralOther moralSelf mismatch m n 0 1.0628 
26-May-2018_15:02:21 Exp 7328 20 male R 1 2 5 moralSelf moralSelf match n n 1 0.5966 
26-May-2018_15:02:23 Exp 7328 20 male R 1 2 6 moralOther moralOther match n n 1 0.6488 
26-May-2018_15:02:26 Exp 7328 20 male R 1 2 7 moralOther immoralSelf mismatch m m 1 0.9383 
26-May-2018_15:02:28 Exp 7328 20 male R 1 2 8 immoralSelf moralOther mismatch m m 1 0.6057 
26-May-2018_15:02:30 Exp 7328 20 male R 1 2 9 moralOther moralOther match n n 1 0.7262 
26-May-2018_15:02:32 Exp 7328 20 male R 1 2 10 moralOther moralSelf mismatch m m 1 0.8093 
26-May-2018_15:02:34 Exp 7328 20 male R 1 2 11 immoralOther immoralOther match n m 0 1.0220 
26-May-2018_15:02:37 Exp 7328 20 male R 1 2 12 moralSelf moralSelf match n n 1 0.6471 
26-May-2018_15:02:39 Exp 7328 20 male R 1 2 13 immoralSelf immoralOther mismatch m m 1 0.9206 
26-May-2018_15:02:41 Exp 7328 20 male R 1 2 14 immoralOther immoralOther match n NA -1 1.1081 
26-May-2018_15:02:44 Exp 7328 20 male R 1 2 15 immoralSelf moralOther mismatch m m 1 0.7461 
26-May-2018_15:02:46 Exp 7328 20 male R 1 2 16 immoralSelf immoralSelf match n n 1 0.8375 
26-May-2018_15:02:48 Exp 7328 20 male R 1 2 17 immoralOther immoralSelf mismatch m m 1 0.9868 
26-May-2018_15:02:50 Exp 7328 20 male R 1 2 18 moralSelf moralSelf match n n 1 0.6472 
26-May-2018_15:02:53 Exp 7328 20 male R 1 2 19 immoralSelf immoralSelf match n NA -1 1.1081 
26-May-2018_15:02:55 Exp 7328 20 male R 1 2 20 moralSelf immoralOther mismatch m m 1 0.7992 
26-May-2018_15:02:57 Exp 7328 20 male R 1 2 21 immoralOther immoralSelf mismatch m n 0 0.7758 
26-May-2018_15:02:59 Exp 7328 20 male R 1 2 22 immoralSelf immoralSelf match n n 1 0.8319 
26-May-2018_15:03:02 Exp 7328 20 male R 1 2 23 immoralOther immoralOther match n m 0 0.7689 
26-May-2018_15:03:04 Exp 7328 20 male R 1 2 24 moralOther moralSelf mismatch m m 1 0.9008 
26-May-2018_15:03:06 Exp 7328 20 male R 1 3 1 moralOther immoralOther mismatch m m 1 0.9832 
26-May-2018_15:03:09 Exp 7328 20 male R 1 3 2 immoralSelf moralOther mismatch m m 1 0.7113 
26-May-2018_15:03:11 Exp 7328 20 male R 1 3 3 immoralSelf immoralSelf match n n 1 0.7981 
26-May-2018_15:03:13 Exp 7328 20 male R 1 3 4 moralSelf immoralOther mismatch m m 1 0.8226 
26-May-2018_15:03:15 Exp 7328 20 male R 1 3 5 moralSelf moralSelf match n n 1 0.7596 
26-May-2018_15:03:17 Exp 7328 20 male R 1 3 6 moralOther moralOther match n n 1 0.8472 
26-May-2018_15:03:20 Exp 7328 20 male R 1 3 7 moralOther immoralSelf mismatch m m 1 0.7846 
26-May-2018_15:03:22 Exp 7328 20 male R 1 3 8 immoralSelf immoralSelf match n n 1 0.8248 
26-May-2018_15:03:24 Exp 7328 20 male R 1 3 9 moralSelf immoralSelf mismatch m n 0 0.9538 
26-May-2018_15:03:27 Exp 7328 20 male R 1 3 10 moralOther immoralOther mismatch m n 0 0.8654 
26-May-2018_15:03:29 Exp 7328 20 male R 1 3 11 immoralOther moralOther mismatch m m 1 0.6232 
26-May-2018_15:03:31 Exp 7328 20 male R 1 3 12 immoralOther moralOther mismatch m m 1 0.8402 
26-May-2018_15:03:33 Exp 7328 20 male R 1 3 13 immoralSelf moralOther mismatch m m 1 0.7974 
26-May-2018_15:03:35 Exp 7328 20 male R 1 3 14 immoralOther immoralOther match n n 1 0.8940 
26-May-2018_15:03:38 Exp 7328 20 male R 1 3 15 immoralSelf moralOther mismatch m m 1 0.7364 
26-May-2018_15:03:40 Exp 7328 20 male R 1 3 16 immoralOther immoralSelf mismatch m m 1 1.0796 
26-May-2018_15:03:42 Exp 7328 20 male R 1 3 17 immoralOther immoralOther match n n 1 0.9897 
26-May-2018_15:03:45 Exp 7328 20 male R 1 3 18 moralSelf immoralSelf mismatch m m 1 0.6661 
26-May-2018_15:03:47 Exp 7328 20 male R 1 3 19 moralOther moralOther match n n 1 0.9599 
26-May-2018_15:03:49 Exp 7328 20 male R 1 3 20 immoralSelf immoralSelf match n n 1 0.9754 
26-May-2018_15:03:51 Exp 7328 20 male R 1 3 21 moralOther moralOther match n n 1 0.6876 
26-May-2018_15:03:54 Exp 7328 20 male R 1 3 22 moralSelf moralSelf match n n 1 0.6857 
26-May-2018_15:03:56 Exp 7328 20 male R 1 3 23 moralSelf moralSelf match n n 1 0.6200 
26-May-2018_15:03:58 Exp 7328 20 male R 1 3 24 immoralOther immoralOther match n n 1 0.8088 
26-May-2018_15:04:39 Exp 7328 20 male R 1 4 1 moralOther moralOther match n n 1 0.7102 
26-May-2018_15:04:41 Exp 7328 20 male R 1 4 2 moralSelf moralSelf match n n 1 0.5809 
26-May-2018_15:04:44 Exp 7328 20 male R 1 4 3 immoralSelf moralOther mismatch m m 1 0.7328 
26-May-2018_15:04:46 Exp 7328 20 male R 1 4 4 immoralOther immoralSelf mismatch m n 0 0.8840 
26-May-2018_15:04:48 Exp 7328 20 male R 1 4 5 moralOther moralOther match n m 0 0.8023 
26-May-2018_15:04:50 Exp 7328 20 male R 1 4 6 moralSelf moralOther mismatch m m 1 0.7947 
26-May-2018_15:04:53 Exp 7328 20 male R 1 4 7 immoralOther moralOther mismatch m m 1 0.9030 
26-May-2018_15:04:55 Exp 7328 20 male R 1 4 8 moralOther moralSelf mismatch m m 1 0.9658 
26-May-2018_15:04:57 Exp 7328 20 male R 1 4 9 immoralSelf immoralSelf match n n 1 0.8176 
26-May-2018_15:05:00 Exp 7328 20 male R 1 4 10 immoralOther immoralSelf mismatch m m 1 0.8064 
26-May-2018_15:05:02 Exp 7328 20 male R 1 4 11 moralSelf moralOther mismatch m n 0 0.7989 
26-May-2018_15:05:04 Exp 7328 20 male R 1 4 12 moralSelf moralSelf match n n 1 0.6475 
26-May-2018_15:05:06 Exp 7328 20 male R 1 4 13 moralSelf immoralSelf mismatch m m 1 0.7051 
26-May-2018_15:05:08 Exp 7328 20 male R 1 4 14 immoralSelf immoralSelf match n n 1 0.8637 
26-May-2018_15:05:10 Exp 7328 20 male R 1 4 15 moralOther moralOther match n m 0 0.7654 
26-May-2018_15:05:13 Exp 7328 20 male R 1 4 16 immoralSelf immoralOther mismatch m m 1 0.9932 
26-May-2018_15:05:15 Exp 7328 20 male R 1 4 17 immoralOther immoralOther match n n 1 0.7735 
26-May-2018_15:05:17 Exp 7328 20 male R 1 4 18 moralOther immoralOther mismatch m n 0 0.6697 
26-May-2018_15:05:20 Exp 7328 20 male R 1 4 19 immoralSelf moralSelf mismatch m m 1 0.9596 
26-May-2018_15:05:22 Exp 7328 20 male R 1 4 20 moralOther immoralOther mismatch m n 0 0.7033 
26-May-2018_15:05:24 Exp 7328 20 male R 1 4 21 immoralOther immoralOther match n m 0 1.0379 
26-May-2018_15:05:26 Exp 7328 20 male R 1 4 22 moralSelf moralSelf match n n 1 0.6592 
26-May-2018_15:05:28 Exp 7328 20 male R 1 4 23 immoralOther immoralOther match n n 1 0.7849 
26-May-2018_15:05:31 Exp 7328 20 male R 1 4 24 immoralSelf immoralSelf match n n 1 0.7451 
26-May-2018_15:05:33 Exp 7328 20 male R 1 5 1 immoralSelf immoralSelf match n n 1 0.7084 
26-May-2018_15:05:35 Exp 7328 20 male R 1 5 2 moralOther immoralOther mismatch m n 0 0.6590 
26-May-2018_15:05:37 Exp 7328 20 male R 1 5 3 moralSelf immoralOther mismatch m m 1 0.9288 
26-May-2018_15:05:40 Exp 7328 20 male R 1 5 4 moralOther moralSelf mismatch m m 1 1.0319 
26-May-2018_15:05:42 Exp 7328 20 male R 1 5 5 moralSelf moralSelf match n n 1 0.7851 
26-May-2018_15:05:44 Exp 7328 20 male R 1 5 6 immoralOther moralOther mismatch m m 1 0.9210 
26-May-2018_15:05:46 Exp 7328 20 male R 1 5 7 immoralOther immoralOther match n n 1 0.8040 
26-May-2018_15:05:49 Exp 7328 20 male R 1 5 8 immoralSelf immoralSelf match n n 1 0.8525 
26-May-2018_15:05:51 Exp 7328 20 male R 1 5 9 moralSelf moralSelf match n n 1 0.7501 
26-May-2018_15:05:53 Exp 7328 20 male R 1 5 10 immoralSelf moralSelf mismatch m n 0 0.7336 
26-May-2018_15:05:55 Exp 7328 20 male R 1 5 11 moralSelf moralOther mismatch m n 0 0.6448 
26-May-2018_15:05:57 Exp 7328 20 male R 1 5 12 moralSelf immoralOther mismatch m m 1 1.0383 
26-May-2018_15:06:00 Exp 7328 20 male R 1 5 13 immoralOther moralSelf mismatch m m 1 1.0675 
26-May-2018_15:06:02 Exp 7328 20 male R 1 5 14 immoralSelf moralSelf mismatch m n 0 0.8413 
26-May-2018_15:06:05 Exp 7328 20 male R 1 5 15 moralOther immoralSelf mismatch m m 1 1.0385 
26-May-2018_15:06:07 Exp 7328 20 male R 1 5 16 immoralOther immoralOther match n n 1 0.8358 
26-May-2018_15:06:09 Exp 7328 20 male R 1 5 17 immoralSelf moralOther mismatch m m 1 0.6971 
26-May-2018_15:06:11 Exp 7328 20 male R 1 5 18 moralOther moralOther match n m 0 0.7075 
26-May-2018_15:06:13 Exp 7328 20 male R 1 5 19 immoralSelf immoralSelf match n m 0 0.8741 
26-May-2018_15:06:16 Exp 7328 20 male R 1 5 20 moralOther moralOther match n m 0 0.7722 
26-May-2018_15:06:18 Exp 7328 20 male R 1 5 21 immoralOther moralSelf mismatch m m 1 0.9441 
26-May-2018_15:06:20 Exp 7328 20 male R 1 5 22 moralSelf moralSelf match n n 1 0.5714 
26-May-2018_15:06:22 Exp 7328 20 male R 1 5 23 moralOther moralOther match n m 0 0.9193 
26-May-2018_15:06:25 Exp 7328 20 male R 1 5 24 immoralOther immoralOther match n n 1 0.7621 
26-May-2018_15:06:30 Exp 7328 20 male R 2 1 1 moralOther moralOther match n NA -1 1.1081 
26-May-2018_15:06:32 Exp 7328 20 male R 2 1 2 moralOther immoralOther mismatch m n 0 0.3572 
26-May-2018_15:06:34 Exp 7328 20 male R 2 1 3 moralSelf moralSelf match n n 1 0.4768 
26-May-2018_15:06:36 Exp 7328 20 male R 2 1 4 immoralOther moralOther mismatch m m 1 0.6229 
26-May-2018_15:06:38 Exp 7328 20 male R 2 1 5 moralSelf immoralSelf mismatch m m 1 0.6719 
26-May-2018_15:06:40 Exp 7328 20 male R 2 1 6 immoralSelf immoralSelf match n n 1 0.7458 
26-May-2018_15:06:42 Exp 7328 20 male R 2 1 7 immoralOther immoralSelf mismatch m m 1 0.8692 
26-May-2018_15:06:45 Exp 7328 20 male R 2 1 8 immoralOther immoralOther match n n 1 0.7833 
26-May-2018_15:06:47 Exp 7328 20 male R 2 1 9 immoralSelf immoralSelf match n n 1 0.6793 
26-May-2018_15:06:49 Exp 7328 20 male R 2 1 10 immoralOther immoralOther match n n 1 0.7533 
26-May-2018_15:06:51 Exp 7328 20 male R 2 1 11 immoralOther moralSelf mismatch m m 1 0.7608 
26-May-2018_15:06:53 Exp 7328 20 male R 2 1 12 immoralSelf immoralSelf match n n 1 0.7364 
26-May-2018_15:06:55 Exp 7328 20 male R 2 1 13 moralOther immoralOther mismatch m n 0 0.6636 
26-May-2018_15:06:57 Exp 7328 20 male R 2 1 14 immoralSelf moralOther mismatch m m 1 0.7333 
26-May-2018_15:07:00 Exp 7328 20 male R 2 1 15 moralOther immoralSelf mismatch m n 0 0.7404 
26-May-2018_15:07:02 Exp 7328 20 male R 2 1 16 immoralSelf immoralOther mismatch m m 1 0.8078 
26-May-2018_15:07:04 Exp 7328 20 male R 2 1 17 moralSelf moralOther mismatch m n 0 0.5764 
26-May-2018_15:07:06 Exp 7328 20 male R 2 1 18 moralSelf moralSelf match n n 1 0.7525 
26-May-2018_15:07:08 Exp 7328 20 male R 2 1 19 moralOther moralOther match n n 1 0.9441 
26-May-2018_15:07:10 Exp 7328 20 male R 2 1 20 moralOther moralOther match n n 1 0.6355 
26-May-2018_15:07:13 Exp 7328 20 male R 2 1 21 moralSelf immoralOther mismatch m m 1 0.7367 
26-May-2018_15:07:15 Exp 7328 20 male R 2 1 22 immoralOther immoralOther match n m 0 0.9838 
26-May-2018_15:07:17 Exp 7328 20 male R 2 1 23 immoralSelf immoralOther mismatch m NA -1 1.1081 
26-May-2018_15:07:19 Exp 7328 20 male R 2 1 24 moralSelf moralSelf match n n 1 0.5986 
26-May-2018_15:07:22 Exp 7328 20 male R 2 2 1 moralSelf moralSelf match n n 1 0.7672 
26-May-2018_15:07:24 Exp 7328 20 male R 2 2 2 immoralOther immoralOther match n n 1 0.8110 
26-May-2018_15:07:26 Exp 7328 20 male R 2 2 3 immoralSelf immoralOther mismatch m m 1 0.7599 
26-May-2018_15:07:28 Exp 7328 20 male R 2 2 4 moralOther moralOther match n m 0 0.8553 
26-May-2018_15:07:31 Exp 7328 20 male R 2 2 5 moralSelf moralOther mismatch m m 1 0.9449 
26-May-2018_15:07:33 Exp 7328 20 male R 2 2 6 moralSelf immoralOther mismatch m m 1 0.7243 
26-May-2018_15:07:35 Exp 7328 20 male R 2 2 7 immoralSelf immoralOther mismatch m m 1 0.7833 
26-May-2018_15:07:38 Exp 7328 20 male R 2 2 8 immoralSelf immoralSelf match n n 1 1.0313 
26-May-2018_15:07:40 Exp 7328 20 male R 2 2 9 moralOther moralOther match n n 1 0.6483 
26-May-2018_15:07:42 Exp 7328 20 male R 2 2 10 immoralOther moralSelf mismatch m NA -1 1.1081 
26-May-2018_15:07:44 Exp 7328 20 male R 2 2 11 immoralOther moralOther mismatch m m 1 0.9365 
26-May-2018_15:07:47 Exp 7328 20 male R 2 2 12 moralSelf moralSelf match n n 1 0.6397 
26-May-2018_15:07:49 Exp 7328 20 male R 2 2 13 moralOther immoralOther mismatch m m 1 1.0849 
26-May-2018_15:07:51 Exp 7328 20 male R 2 2 14 moralOther immoralOther mismatch m m 1 1.0272 
26-May-2018_15:07:54 Exp 7328 20 male R 2 2 15 moralSelf moralSelf match n n 1 0.6202 
26-May-2018_15:07:56 Exp 7328 20 male R 2 2 16 immoralSelf immoralSelf match n m 0 1.0089 
26-May-2018_15:07:58 Exp 7328 20 male R 2 2 17 immoralOther immoralOther match n m 0 1.0378 
26-May-2018_15:08:00 Exp 7328 20 male R 2 2 18 moralOther moralOther match n n 1 0.6510 
26-May-2018_15:08:03 Exp 7328 20 male R 2 2 19 moralSelf immoralOther mismatch m m 1 0.8286 
26-May-2018_15:08:05 Exp 7328 20 male R 2 2 20 moralOther immoralOther mismatch m m 1 0.8616 
26-May-2018_15:08:07 Exp 7328 20 male R 2 2 21 immoralOther immoralOther match n n 1 0.7314 
26-May-2018_15:08:09 Exp 7328 20 male R 2 2 22 immoralSelf moralOther mismatch m m 1 0.7064 
26-May-2018_15:08:11 Exp 7328 20 male R 2 2 23 immoralSelf immoralSelf match n n 1 0.7771 
26-May-2018_15:08:14 Exp 7328 20 male R 2 2 24 immoralOther moralSelf mismatch m m 1 0.9771 
26-May-2018_15:08:16 Exp 7328 20 male R 2 3 1 moralOther moralSelf mismatch m m 1 0.8333 
26-May-2018_15:08:19 Exp 7328 20 male R 2 3 2 immoralSelf immoralSelf match n NA -1 1.1081 
26-May-2018_15:08:21 Exp 7328 20 male R 2 3 3 immoralSelf moralSelf mismatch m m 1 0.8932 
26-May-2018_15:08:23 Exp 7328 20 male R 2 3 4 immoralOther immoralOther match n n 1 0.7837 
26-May-2018_15:08:25 Exp 7328 20 male R 2 3 5 immoralOther immoralOther match n n 1 0.7038 
26-May-2018_15:08:27 Exp 7328 20 male R 2 3 6 moralSelf moralSelf match n n 1 0.6465 
26-May-2018_15:08:30 Exp 7328 20 male R 2 3 7 immoralSelf immoralSelf match n n 1 1.0640 
26-May-2018_15:08:32 Exp 7328 20 male R 2 3 8 moralOther moralOther match n m 0 0.7177 
26-May-2018_15:08:34 Exp 7328 20 male R 2 3 9 moralOther moralOther match n n 1 0.5046 
26-May-2018_15:08:36 Exp 7328 20 male R 2 3 10 immoralOther immoralSelf mismatch m n 0 1.0472 
26-May-2018_15:08:39 Exp 7328 20 male R 2 3 11 moralSelf immoralSelf mismatch m m 1 0.8247 
26-May-2018_15:08:41 Exp 7328 20 male R 2 3 12 moralOther moralSelf mismatch m m 1 0.8977 
26-May-2018_15:08:44 Exp 7328 20 male R 2 3 13 immoralOther immoralSelf mismatch m NA -1 1.1081 
26-May-2018_15:08:46 Exp 7328 20 male R 2 3 14 moralOther moralOther match n n 1 0.8028 
26-May-2018_15:08:48 Exp 7328 20 male R 2 3 15 immoralSelf moralOther mismatch m m 1 0.6514 
26-May-2018_15:08:50 Exp 7328 20 male R 2 3 16 immoralSelf immoralOther mismatch m m 1 1.0450 
26-May-2018_15:08:53 Exp 7328 20 male R 2 3 17 moralSelf immoralOther mismatch m m 1 0.7984 
26-May-2018_15:08:54 Exp 7328 20 male R 2 3 18 moralSelf moralSelf match n n 1 0.4950 
26-May-2018_15:08:57 Exp 7328 20 male R 2 3 19 immoralOther immoralSelf mismatch m m 1 0.9694 
26-May-2018_15:08:59 Exp 7328 20 male R 2 3 20 moralOther moralSelf mismatch m n 0 0.7412 
26-May-2018_15:09:01 Exp 7328 20 male R 2 3 21 immoralOther immoralOther match n n 1 1.0966 
26-May-2018_15:09:04 Exp 7328 20 male R 2 3 22 moralSelf immoralSelf mismatch m m 1 0.7872 
26-May-2018_15:09:06 Exp 7328 20 male R 2 3 23 moralSelf moralSelf match n n 1 0.7594 
26-May-2018_15:09:08 Exp 7328 20 male R 2 3 24 immoralSelf immoralSelf match n m 0 0.8630 
26-May-2018_15:10:18 Exp 7328 20 male R 2 4 1 moralSelf immoralOther mismatch m m 1 0.7861 
26-May-2018_15:10:20 Exp 7328 20 male R 2 4 2 moralOther immoralOther mismatch m n 0 0.6785 
26-May-2018_15:10:22 Exp 7328 20 male R 2 4 3 moralOther moralOther match n n 1 0.5125 
26-May-2018_15:10:24 Exp 7328 20 male R 2 4 4 moralOther immoralOther mismatch m m 1 0.6631 
26-May-2018_15:10:27 Exp 7328 20 male R 2 4 5 immoralOther immoralOther match n n 1 0.9009 
26-May-2018_15:10:29 Exp 7328 20 male R 2 4 6 moralOther moralOther match n n 1 0.6234 
26-May-2018_15:10:31 Exp 7328 20 male R 2 4 7 immoralSelf moralSelf mismatch m m 1 0.6803 
26-May-2018_15:10:33 Exp 7328 20 male R 2 4 8 immoralOther moralOther mismatch m m 1 0.7906 
26-May-2018_15:10:35 Exp 7328 20 male R 2 4 9 immoralSelf immoralSelf match n n 1 0.6989 
26-May-2018_15:10:37 Exp 7328 20 male R 2 4 10 immoralOther immoralSelf mismatch m m 1 0.8853 
26-May-2018_15:10:39 Exp 7328 20 male R 2 4 11 moralOther moralOther match n n 1 0.7395 
26-May-2018_15:10:42 Exp 7328 20 male R 2 4 12 moralSelf moralSelf match n n 1 0.6388 
26-May-2018_15:10:44 Exp 7328 20 male R 2 4 13 immoralSelf immoralOther mismatch m m 1 0.8362 
26-May-2018_15:10:46 Exp 7328 20 male R 2 4 14 moralSelf moralSelf match n n 1 0.5294 
26-May-2018_15:10:48 Exp 7328 20 male R 2 4 15 moralSelf moralSelf match n n 1 0.5365 
26-May-2018_15:10:50 Exp 7328 20 male R 2 4 16 moralOther immoralSelf mismatch m m 1 0.7836 
26-May-2018_15:10:52 Exp 7328 20 male R 2 4 17 immoralOther immoralOther match n n 1 1.0158 
26-May-2018_15:10:55 Exp 7328 20 male R 2 4 18 immoralSelf immoralSelf match n n 1 0.8846 
26-May-2018_15:10:57 Exp 7328 20 male R 2 4 19 moralSelf immoralOther mismatch m m 1 0.7548 
26-May-2018_15:10:59 Exp 7328 20 male R 2 4 20 immoralSelf immoralSelf match n n 1 0.6264 
26-May-2018_15:11:01 Exp 7328 20 male R 2 4 21 immoralOther moralOther mismatch m m 1 0.7713 
26-May-2018_15:11:03 Exp 7328 20 male R 2 4 22 immoralOther immoralOther match n n 1 0.7752 
26-May-2018_15:11:06 Exp 7328 20 male R 2 4 23 immoralSelf immoralOther mismatch m m 1 0.9833 
26-May-2018_15:11:08 Exp 7328 20 male R 2 4 24 moralSelf immoralOther mismatch m m 1 0.6634 
26-May-2018_15:11:10 Exp 7328 20 male R 2 5 1 immoralOther moralOther mismatch m m 1 1.0051 
26-May-2018_15:11:13 Exp 7328 20 male R 2 5 2 moralOther immoralOther mismatch m m 1 0.9898 
26-May-2018_15:11:15 Exp 7328 20 male R 2 5 3 moralOther immoralOther mismatch m n 0 1.0260 
26-May-2018_15:11:17 Exp 7328 20 male R 2 5 4 moralOther moralOther match n n 1 0.6111 
26-May-2018_15:11:19 Exp 7328 20 male R 2 5 5 moralSelf moralOther mismatch m m 1 0.7038 
26-May-2018_15:11:22 Exp 7328 20 male R 2 5 6 immoralOther immoralOther match n NA -1 1.1081 
26-May-2018_15:11:24 Exp 7328 20 male R 2 5 7 moralOther moralOther match n n 1 0.5572 
26-May-2018_15:11:26 Exp 7328 20 male R 2 5 8 immoralSelf immoralOther mismatch m m 1 0.6049 
26-May-2018_15:11:28 Exp 7328 20 male R 2 5 9 immoralOther immoralOther match n n 1 0.5975 
26-May-2018_15:11:30 Exp 7328 20 male R 2 5 10 immoralOther immoralOther match n n 1 0.6700 
26-May-2018_15:11:32 Exp 7328 20 male R 2 5 11 immoralSelf moralOther mismatch m m 1 0.7119 
26-May-2018_15:11:34 Exp 7328 20 male R 2 5 12 moralSelf immoralSelf mismatch m m 1 0.7346 
26-May-2018_15:11:36 Exp 7328 20 male R 2 5 13 immoralSelf immoralSelf match n m 0 0.7817 
26-May-2018_15:11:38 Exp 7328 20 male R 2 5 14 moralSelf moralSelf match n n 1 0.6138 
26-May-2018_15:11:41 Exp 7328 20 male R 2 5 15 moralSelf moralOther mismatch m m 1 0.8345 
26-May-2018_15:11:43 Exp 7328 20 male R 2 5 16 immoralSelf moralOther mismatch m m 1 0.7998 
26-May-2018_15:11:45 Exp 7328 20 male R 2 5 17 moralOther moralSelf mismatch m m 1 1.0324 
26-May-2018_15:11:47 Exp 7328 20 male R 2 5 18 moralSelf moralSelf match n n 1 0.6056 
26-May-2018_15:11:49 Exp 7328 20 male R 2 5 19 moralSelf moralSelf match n n 1 0.6302 
26-May-2018_15:11:52 Exp 7328 20 male R 2 5 20 immoralSelf immoralSelf match n n 1 0.9192 
26-May-2018_15:11:54 Exp 7328 20 male R 2 5 21 immoralOther moralOther mismatch m m 1 0.6822 
26-May-2018_15:11:56 Exp 7328 20 male R 2 5 22 immoralOther moralOther mismatch m m 1 0.7763 
26-May-2018_15:11:58 Exp 7328 20 male R 2 5 23 moralOther moralOther match n n 1 0.6884 
26-May-2018_15:12:00 Exp 7328 20 male R 2 5 24 immoralSelf immoralSelf match n n 1 0.7426 
26-May-2018_15:12:06 Exp 7328 20 male R 3 1 1 moralSelf moralSelf match n NA -1 1.1081 
26-May-2018_15:12:08 Exp 7328 20 male R 3 1 2 immoralSelf moralSelf mismatch m m 1 0.7772 
26-May-2018_15:12:10 Exp 7328 20 male R 3 1 3 immoralSelf immoralSelf match n n 1 0.7373 
26-May-2018_15:12:12 Exp 7328 20 male R 3 1 4 immoralOther immoralOther match n n 1 0.8805 
26-May-2018_15:12:15 Exp 7328 20 male R 3 1 5 moralSelf immoralSelf mismatch m m 1 0.6547 
26-May-2018_15:12:17 Exp 7328 20 male R 3 1 6 immoralOther immoralSelf mismatch m m 1 0.9362 
26-May-2018_15:12:19 Exp 7328 20 male R 3 1 7 immoralSelf moralSelf mismatch m m 1 0.8154 
26-May-2018_15:12:21 Exp 7328 20 male R 3 1 8 immoralOther immoralOther match n n 1 0.7161 
26-May-2018_15:12:24 Exp 7328 20 male R 3 1 9 immoralSelf immoralSelf match n n 1 0.9271 
26-May-2018_15:12:26 Exp 7328 20 male R 3 1 10 moralOther immoralSelf mismatch m NA -1 1.1081 
26-May-2018_15:12:28 Exp 7328 20 male R 3 1 11 immoralOther immoralSelf mismatch m n 0 0.3809 
26-May-2018_15:12:30 Exp 7328 20 male R 3 1 12 moralOther immoralOther mismatch m n 0 0.7489 
26-May-2018_15:12:32 Exp 7328 20 male R 3 1 13 immoralOther immoralOther match n n 1 0.7683 
26-May-2018_15:12:35 Exp 7328 20 male R 3 1 14 moralOther immoralSelf mismatch m m 1 0.8602 
26-May-2018_15:12:37 Exp 7328 20 male R 3 1 15 moralSelf moralSelf match n n 1 0.8499 
26-May-2018_15:12:39 Exp 7328 20 male R 3 1 16 moralSelf moralSelf match n n 1 0.6914 
26-May-2018_15:12:41 Exp 7328 20 male R 3 1 17 moralOther moralOther match n n 1 0.8778 
26-May-2018_15:12:44 Exp 7328 20 male R 3 1 18 immoralOther moralSelf mismatch m m 1 0.8878 
26-May-2018_15:12:46 Exp 7328 20 male R 3 1 19 moralSelf immoralSelf mismatch m m 1 0.7981 
26-May-2018_15:12:48 Exp 7328 20 male R 3 1 20 moralSelf moralOther mismatch m n 0 0.6465 
26-May-2018_15:12:50 Exp 7328 20 male R 3 1 21 immoralSelf moralSelf mismatch m m 1 0.8481 
26-May-2018_15:12:52 Exp 7328 20 male R 3 1 22 moralOther moralOther match n n 1 0.7936 
26-May-2018_15:12:54 Exp 7328 20 male R 3 1 23 moralOther moralOther match n n 1 0.6860 
26-May-2018_15:12:57 Exp 7328 20 male R 3 1 24 immoralSelf immoralSelf match n n 1 0.9241 
26-May-2018_15:12:59 Exp 7328 20 male R 3 2 1 immoralSelf immoralSelf match n n 1 0.7750 
26-May-2018_15:13:01 Exp 7328 20 male R 3 2 2 immoralSelf moralOther mismatch m m 1 0.7991 
26-May-2018_15:13:03 Exp 7328 20 male R 3 2 3 moralSelf moralSelf match n n 1 0.6637 
26-May-2018_15:13:06 Exp 7328 20 male R 3 2 4 moralOther immoralSelf mismatch m m 1 0.8773 
26-May-2018_15:13:08 Exp 7328 20 male R 3 2 5 moralOther moralOther match n n 1 0.7274 
26-May-2018_15:13:10 Exp 7328 20 male R 3 2 6 immoralOther immoralOther match n n 1 0.8464 
26-May-2018_15:13:12 Exp 7328 20 male R 3 2 7 moralOther immoralOther mismatch m m 1 0.7760 
26-May-2018_15:13:14 Exp 7328 20 male R 3 2 8 moralOther moralOther match n n 1 0.7601 
26-May-2018_15:13:17 Exp 7328 20 male R 3 2 9 immoralOther moralOther mismatch m NA -1 1.1081 
26-May-2018_15:13:19 Exp 7328 20 male R 3 2 10 moralOther immoralSelf mismatch m n 0 0.9904 
26-May-2018_15:13:22 Exp 7328 20 male R 3 2 11 immoralSelf immoralSelf match n n 1 0.8305 
26-May-2018_15:13:24 Exp 7328 20 male R 3 2 12 immoralSelf immoralOther mismatch m m 1 0.7676 
26-May-2018_15:13:26 Exp 7328 20 male R 3 2 13 moralSelf immoralSelf mismatch m m 1 0.7714 
26-May-2018_15:13:28 Exp 7328 20 male R 3 2 14 moralSelf moralSelf match n n 1 0.7432 
26-May-2018_15:13:30 Exp 7328 20 male R 3 2 15 immoralSelf moralSelf mismatch m m 1 0.8106 
26-May-2018_15:13:33 Exp 7328 20 male R 3 2 16 immoralOther moralSelf mismatch m m 1 0.7673 
26-May-2018_15:13:35 Exp 7328 20 male R 3 2 17 immoralOther immoralOther match n n 1 0.8032 
26-May-2018_15:13:37 Exp 7328 20 male R 3 2 18 moralOther moralOther match n n 1 0.7798 
26-May-2018_15:13:39 Exp 7328 20 male R 3 2 19 moralSelf immoralOther mismatch m m 1 1.0279 
26-May-2018_15:13:42 Exp 7328 20 male R 3 2 20 immoralOther immoralOther match n n 1 0.6769 
26-May-2018_15:13:44 Exp 7328 20 male R 3 2 21 moralSelf immoralSelf mismatch m m 1 0.6068 
26-May-2018_15:13:46 Exp 7328 20 male R 3 2 22 immoralSelf immoralSelf match n n 1 0.6954 
26-May-2018_15:13:48 Exp 7328 20 male R 3 2 23 moralSelf moralSelf match n n 1 0.5538 
26-May-2018_15:13:50 Exp 7328 20 male R 3 2 24 immoralOther moralSelf mismatch m m 1 0.7854 
26-May-2018_15:13:52 Exp 7328 20 male R 3 3 1 moralSelf moralSelf match n n 1 0.7098 
26-May-2018_15:13:54 Exp 7328 20 male R 3 3 2 immoralSelf moralSelf mismatch m m 1 0.9325 
26-May-2018_15:13:56 Exp 7328 20 male R 3 3 3 immoralOther immoralOther match n n 1 0.7475 
26-May-2018_15:13:59 Exp 7328 20 male R 3 3 4 moralOther moralOther match n n 1 0.5990 
26-May-2018_15:14:00 Exp 7328 20 male R 3 3 5 moralSelf moralSelf match n n 1 0.5436 
26-May-2018_15:14:03 Exp 7328 20 male R 3 3 6 immoralOther immoralSelf mismatch m n 0 0.9469 
26-May-2018_15:14:05 Exp 7328 20 male R 3 3 7 moralOther moralSelf mismatch m n 0 0.6622 
26-May-2018_15:14:07 Exp 7328 20 male R 3 3 8 moralOther immoralSelf mismatch m m 1 0.8600 
26-May-2018_15:14:09 Exp 7328 20 male R 3 3 9 moralSelf immoralSelf mismatch m m 1 0.7777 
26-May-2018_15:14:12 Exp 7328 20 male R 3 3 10 immoralSelf immoralSelf match n n 1 1.1059 
26-May-2018_15:14:14 Exp 7328 20 male R 3 3 11 immoralSelf immoralOther mismatch m n 0 0.8005 
26-May-2018_15:14:17 Exp 7328 20 male R 3 3 12 immoralOther moralSelf mismatch m m 1 0.9931 
26-May-2018_15:14:19 Exp 7328 20 male R 3 3 13 immoralOther moralSelf mismatch m m 1 0.7174 
26-May-2018_15:14:21 Exp 7328 20 male R 3 3 14 immoralSelf immoralSelf match n m 0 1.0403 
26-May-2018_15:14:23 Exp 7328 20 male R 3 3 15 immoralSelf immoralSelf match n n 1 0.7017 
26-May-2018_15:14:25 Exp 7328 20 male R 3 3 16 moralOther moralOther match n n 1 0.6720 
26-May-2018_15:14:28 Exp 7328 20 male R 3 3 17 immoralOther immoralOther match n n 1 0.8660 
26-May-2018_15:14:30 Exp 7328 20 male R 3 3 18 moralOther immoralSelf mismatch m m 1 0.7834 
26-May-2018_15:14:32 Exp 7328 20 male R 3 3 19 immoralSelf moralSelf mismatch m m 1 0.8958 
26-May-2018_15:14:34 Exp 7328 20 male R 3 3 20 moralOther moralOther match n n 1 0.6023 
26-May-2018_15:14:36 Exp 7328 20 male R 3 3 21 immoralOther immoralOther match n n 1 0.7948 
26-May-2018_15:14:39 Exp 7328 20 male R 3 3 22 moralSelf moralOther mismatch m m 1 0.8231 
26-May-2018_15:14:41 Exp 7328 20 male R 3 3 23 moralSelf moralSelf match n n 1 0.6401 
26-May-2018_15:14:43 Exp 7328 20 male R 3 3 24 moralSelf moralOther mismatch m m 1 0.9334 
26-May-2018_15:15:47 Exp 7328 20 male R 3 4 1 moralOther moralOther match n n 1 0.5975 
26-May-2018_15:15:49 Exp 7328 20 male R 3 4 2 immoralOther immoralSelf mismatch m m 1 0.7981 
26-May-2018_15:15:51 Exp 7328 20 male R 3 4 3 moralOther moralSelf mismatch m m 1 0.6866 
26-May-2018_15:15:53 Exp 7328 20 male R 3 4 4 immoralSelf immoralSelf match n n 1 0.8768 
26-May-2018_15:15:55 Exp 7328 20 male R 3 4 5 moralSelf moralSelf match n n 1 0.6068 
26-May-2018_15:15:58 Exp 7328 20 male R 3 4 6 immoralSelf immoralOther mismatch m m 1 0.9194 
26-May-2018_15:16:00 Exp 7328 20 male R 3 4 7 moralSelf moralSelf match n n 1 0.5543 
26-May-2018_15:16:02 Exp 7328 20 male R 3 4 8 moralOther immoralOther mismatch m n 0 0.7539 
26-May-2018_15:16:04 Exp 7328 20 male R 3 4 9 moralOther immoralOther mismatch m m 1 0.8495 
26-May-2018_15:16:06 Exp 7328 20 male R 3 4 10 moralSelf immoralSelf mismatch m m 1 0.6669 
26-May-2018_15:16:08 Exp 7328 20 male R 3 4 11 moralSelf immoralOther mismatch m m 1 0.6567 
26-May-2018_15:16:10 Exp 7328 20 male R 3 4 12 moralSelf immoralSelf mismatch m m 1 0.8544 
26-May-2018_15:16:13 Exp 7328 20 male R 3 4 13 immoralOther immoralOther match n NA -1 1.1081 
26-May-2018_15:16:15 Exp 7328 20 male R 3 4 14 immoralSelf immoralSelf match n n 1 0.6386 
26-May-2018_15:16:17 Exp 7328 20 male R 3 4 15 moralOther moralOther match n n 1 0.7239 
26-May-2018_15:16:19 Exp 7328 20 male R 3 4 16 immoralOther immoralOther match n m 0 0.7988 
26-May-2018_15:16:22 Exp 7328 20 male R 3 4 17 immoralOther immoralSelf mismatch m m 1 0.8873 
26-May-2018_15:16:24 Exp 7328 20 male R 3 4 18 immoralSelf moralSelf mismatch m m 1 0.7335 
26-May-2018_15:16:26 Exp 7328 20 male R 3 4 19 moralOther moralOther match n n 1 0.6766 
26-May-2018_15:16:28 Exp 7328 20 male R 3 4 20 immoralSelf moralSelf mismatch m m 1 0.7347 
26-May-2018_15:16:30 Exp 7328 20 male R 3 4 21 moralSelf moralSelf match n n 1 0.6298 
26-May-2018_15:16:32 Exp 7328 20 male R 3 4 22 immoralOther moralOther mismatch m m 1 0.6469 
26-May-2018_15:16:34 Exp 7328 20 male R 3 4 23 immoralSelf immoralSelf match n n 1 0.7043 
26-May-2018_15:16:37 Exp 7328 20 male R 3 4 24 immoralOther immoralOther match n n 1 0.7590 
26-May-2018_15:16:39 Exp 7328 20 male R 3 5 1 immoralOther immoralOther match n n 1 0.8786 
26-May-2018_15:16:41 Exp 7328 20 male R 3 5 2 moralSelf immoralOther mismatch m m 1 0.7285 
26-May-2018_15:16:43 Exp 7328 20 male R 3 5 3 immoralOther moralOther mismatch m m 1 0.8877 
26-May-2018_15:16:46 Exp 7328 20 male R 3 5 4 moralOther immoralOther mismatch m n 0 0.7739 
26-May-2018_15:16:48 Exp 7328 20 male R 3 5 5 moralOther immoralSelf mismatch m m 1 0.7580 
26-May-2018_15:16:50 Exp 7328 20 male R 3 5 6 moralOther moralOther match n n 1 0.4937 
26-May-2018_15:16:52 Exp 7328 20 male R 3 5 7 immoralSelf immoralSelf match n n 1 0.9361 
26-May-2018_15:16:54 Exp 7328 20 male R 3 5 8 moralOther moralSelf mismatch m n 0 0.6872 
26-May-2018_15:16:56 Exp 7328 20 male R 3 5 9 moralSelf moralSelf match n n 1 0.8775 
26-May-2018_15:16:59 Exp 7328 20 male R 3 5 10 immoralOther moralOther mismatch m m 1 0.7674 
26-May-2018_15:17:01 Exp 7328 20 male R 3 5 11 moralSelf immoralSelf mismatch m m 1 0.8832 
26-May-2018_15:17:03 Exp 7328 20 male R 3 5 12 immoralSelf immoralOther mismatch m n 0 1.0094 
26-May-2018_15:17:05 Exp 7328 20 male R 3 5 13 moralOther moralOther match n n 1 0.7662 
26-May-2018_15:17:08 Exp 7328 20 male R 3 5 14 moralSelf moralOther mismatch m m 1 0.7062 
26-May-2018_15:17:10 Exp 7328 20 male R 3 5 15 moralOther moralOther match n n 1 0.7607 
26-May-2018_15:17:12 Exp 7328 20 male R 3 5 16 immoralOther immoralOther match n n 1 0.9764 
26-May-2018_15:17:15 Exp 7328 20 male R 3 5 17 moralSelf moralSelf match n n 1 0.9285 
26-May-2018_15:17:17 Exp 7328 20 male R 3 5 18 immoralSelf immoralSelf match n n 1 0.7116 
26-May-2018_15:17:19 Exp 7328 20 male R 3 5 19 immoralSelf immoralSelf match n n 1 0.7342 
26-May-2018_15:17:21 Exp 7328 20 male R 3 5 20 immoralOther immoralOther match n n 1 0.7814 
26-May-2018_15:17:23 Exp 7328 20 male R 3 5 21 immoralOther immoralSelf mismatch m n 0 1.0135 
26-May-2018_15:17:26 Exp 7328 20 male R 3 5 22 moralSelf moralSelf match n n 1 0.7702 
26-May-2018_15:17:28 Exp 7328 20 male R 3 5 23 immoralSelf moralSelf mismatch m n 0 0.9821 
26-May-2018_15:17:30 Exp 7328 20 male R 3 5 24 immoralSelf moralOther mismatch m m 1 0.8862 
Date Prac Sub Age Sex Hand Block Bin Trial Shape Label Match CorrResp Resp ACC RT
26-May-2018_15:23:47 Exp 7328 20 male R 1 1 1 immoralSelf immoralOther mismatch m m 1 0.8098 
26-May-2018_15:23:49 Exp 7328 20 male R 1 1 2 moralOther moralSelf mismatch m m 1 0.8385 
26-May-2018_15:23:51 Exp 7328 20 male R 1 1 3 immoralOther immoralSelf mismatch m m 1 0.7719 
26-May-2018_15:23:53 Exp 7328 20 male R 1 1 4 immoralSelf immoralSelf match n n 1 0.7358 
26-May-2018_15:23:55 Exp 7328 20 male R 1 1 5 moralSelf immoralSelf mismatch m n 0 0.9189 
26-May-2018_15:23:58 Exp 7328 20 male R 1 1 6 immoralSelf moralSelf mismatch m m 1 0.6658 
26-May-2018_15:24:00 Exp 7328 20 male R 1 1 7 moralSelf immoralSelf mismatch m m 1 0.6316 
26-May-2018_15:24:02 Exp 7328 20 male R 1 1 8 immoralSelf moralSelf mismatch m n 0 0.7605 
26-May-2018_15:24:04 Exp 7328 20 male R 1 1 9 moralOther moralSelf mismatch m m 1 0.8721 
26-May-2018_15:24:06 Exp 7328 20 male R 1 1 10 moralOther moralSelf mismatch m m 1 0.8901 
26-May-2018_15:24:09 Exp 7328 20 male R 1 1 11 immoralSelf immoralSelf match n n 1 0.7444 
26-May-2018_15:24:11 Exp 7328 20 male R 1 1 12 immoralOther immoralSelf mismatch m m 1 1.0117 
26-May-2018_15:24:13 Exp 7328 20 male R 1 1 13 immoralOther immoralOther match n m 0 0.8885 
26-May-2018_15:24:15 Exp 7328 20 male R 1 1 14 moralOther moralOther match n n 1 0.6707 
26-May-2018_15:24:17 Exp 7328 20 male R 1 1 15 moralOther moralOther match n n 1 0.4407 
26-May-2018_15:24:19 Exp 7328 20 male R 1 1 16 moralOther moralOther match n n 1 0.5420 
26-May-2018_15:24:21 Exp 7328 20 male R 1 1 17 moralSelf moralSelf match n n 1 0.8333 
26-May-2018_15:24:23 Exp 7328 20 male R 1 1 18 immoralSelf immoralSelf match n m 0 0.5986 
26-May-2018_15:24:26 Exp 7328 20 male R 1 1 19 moralSelf moralSelf match n n 1 0.6151 
26-May-2018_15:24:27 Exp 7328 20 male R 1 1 20 moralSelf moralSelf match n n 1 0.5479 
26-May-2018_15:24:30 Exp 7328 20 male R 1 1 21 moralSelf moralOther mismatch m m 1 0.7433 
26-May-2018_15:24:32 Exp 7328 20 male R 1 1 22 immoralOther immoralSelf mismatch m m 1 0.9627 
26-May-2018_15:24:34 Exp 7328 20 male R 1 1 23 immoralOther immoralOther match n m 0 1.0385 
26-May-2018_15:24:36 Exp 7328 20 male R 1 1 24 immoralOther immoralOther match n n 1 0.5478 
26-May-2018_15:24:39 Exp 7328 20 male R 1 2 1 immoralOther moralSelf mismatch m m 1 0.9511 
26-May-2018_15:24:41 Exp 7328 20 male R 1 2 2 moralOther moralSelf mismatch m n 0 0.7348 
26-May-2018_15:24:43 Exp 7328 20 male R 1 2 3 moralOther moralOther match n n 1 0.9500 
26-May-2018_15:24:46 Exp 7328 20 male R 1 2 4 moralSelf moralOther mismatch m NA -1 1.1081 
26-May-2018_15:24:48 Exp 7328 20 male R 1 2 5 moralOther moralOther match n n 1 0.6281 
26-May-2018_15:24:50 Exp 7328 20 male R 1 2 6 immoralSelf moralSelf mismatch m n 0 0.8533 
26-May-2018_15:24:53 Exp 7328 20 male R 1 2 7 moralSelf moralOther mismatch m m 1 0.9027 
26-May-2018_15:24:55 Exp 7328 20 male R 1 2 8 immoralOther moralOther mismatch m n 0 1.0172 
26-May-2018_15:24:57 Exp 7328 20 male R 1 2 9 moralOther moralSelf mismatch m m 1 0.8620 
26-May-2018_15:24:59 Exp 7328 20 male R 1 2 10 moralSelf moralSelf match n n 1 0.7077 
26-May-2018_15:25:02 Exp 7328 20 male R 1 2 11 immoralSelf immoralSelf match n n 1 0.8104 
26-May-2018_15:25:04 Exp 7328 20 male R 1 2 12 moralSelf moralSelf match n n 1 0.6872 
26-May-2018_15:25:06 Exp 7328 20 male R 1 2 13 immoralOther moralSelf mismatch m m 1 0.8053 
26-May-2018_15:25:08 Exp 7328 20 male R 1 2 14 immoralOther immoralOther match n n 1 1.0379 
26-May-2018_15:25:11 Exp 7328 20 male R 1 2 15 moralSelf moralSelf match n n 1 0.7073 
26-May-2018_15:25:13 Exp 7328 20 male R 1 2 16 immoralSelf immoralSelf match n n 1 0.6418 
26-May-2018_15:25:15 Exp 7328 20 male R 1 2 17 immoralSelf immoralSelf match n n 1 0.8472 
26-May-2018_15:25:17 Exp 7328 20 male R 1 2 18 moralOther moralOther match n n 1 0.7286 
26-May-2018_15:25:19 Exp 7328 20 male R 1 2 19 moralOther moralSelf mismatch m n 0 0.8638 
26-May-2018_15:25:21 Exp 7328 20 male R 1 2 20 immoralOther immoralOther match n n 1 0.7655 
26-May-2018_15:25:24 Exp 7328 20 male R 1 2 21 immoralSelf moralOther mismatch m m 1 0.8414 
26-May-2018_15:25:26 Exp 7328 20 male R 1 2 22 immoralSelf immoralOther mismatch m m 1 1.0146 
26-May-2018_15:25:28 Exp 7328 20 male R 1 2 23 immoralOther immoralOther match n n 1 0.7955 
26-May-2018_15:25:31 Exp 7328 20 male R 1 2 24 moralSelf moralOther mismatch m m 1 0.7598 
Date Prac Sub Age Sex Hand Block Bin Trial Shape Label Match CorrResp Resp ACC RT
26-May-2018_15:33:57 Exp 7328 20 male R 1 1 1 immoralOther immoralOther match n n 1 0.8657 
26-May-2018_15:33:59 Exp 7328 20 male R 1 1 2 immoralSelf moralSelf mismatch m m 1 0.9036 
26-May-2018_15:34:01 Exp 7328 20 male R 1 1 3 moralSelf moralSelf match n n 1 0.7182 
26-May-2018_15:34:04 Exp 7328 20 male R 1 1 4 immoralOther moralSelf mismatch m m 1 0.7291 
26-May-2018_15:34:06 Exp 7328 20 male R 1 1 5 immoralOther moralSelf mismatch m m 1 0.8002 
26-May-2018_15:34:08 Exp 7328 20 male R 1 1 6 moralOther moralOther match n n 1 0.5928 
26-May-2018_15:34:10 Exp 7328 20 male R 1 1 7 immoralSelf immoralSelf match n n 1 0.8051 
26-May-2018_15:34:12 Exp 7328 20 male R 1 1 8 immoralOther immoralOther match n n 1 0.8457 
26-May-2018_15:34:14 Exp 7328 20 male R 1 1 9 immoralSelf immoralSelf match n n 1 0.7272 
26-May-2018_15:34:17 Exp 7328 20 male R 1 1 10 moralOther immoralSelf mismatch m m 1 0.7263 
26-May-2018_15:34:19 Exp 7328 20 male R 1 1 11 immoralSelf moralSelf mismatch m m 1 0.8333 
26-May-2018_15:34:21 Exp 7328 20 male R 1 1 12 moralOther moralOther match n n 1 0.6465 
26-May-2018_15:34:23 Exp 7328 20 male R 1 1 13 immoralSelf moralSelf mismatch m m 1 0.7120 
26-May-2018_15:34:25 Exp 7328 20 male R 1 1 14 moralOther immoralOther mismatch m m 1 0.8067 
26-May-2018_15:34:27 Exp 7328 20 male R 1 1 15 immoralOther immoralOther match n n 1 0.6073 
26-May-2018_15:34:29 Exp 7328 20 male R 1 1 16 moralSelf moralSelf match n n 1 0.6717 
26-May-2018_15:34:32 Exp 7328 20 male R 1 1 17 immoralOther immoralSelf mismatch m m 1 0.7457 
26-May-2018_15:34:34 Exp 7328 20 male R 1 1 18 moralSelf moralOther mismatch m m 1 0.7811 
26-May-2018_15:34:36 Exp 7328 20 male R 1 1 19 moralOther moralOther match n n 1 0.7252 
26-May-2018_15:34:38 Exp 7328 20 male R 1 1 20 moralOther moralSelf mismatch m m 1 0.7602 
26-May-2018_15:34:40 Exp 7328 20 male R 1 1 21 moralSelf moralSelf match n n 1 0.5837 
26-May-2018_15:34:42 Exp 7328 20 male R 1 1 22 moralSelf immoralSelf mismatch m m 1 0.8637 
26-May-2018_15:34:45 Exp 7328 20 male R 1 1 23 immoralSelf immoralSelf match n n 1 0.9416 
26-May-2018_15:34:47 Exp 7328 20 male R 1 1 24 moralSelf immoralOther mismatch m m 1 0.6889 
26-May-2018_15:34:49 Exp 7328 20 male R 1 2 1 moralOther moralOther match n n 1 0.7671 
26-May-2018_15:34:51 Exp 7328 20 male R 1 2 2 immoralSelf immoralSelf match n n 1 0.7709 
26-May-2018_15:34:53 Exp 7328 20 male R 1 2 3 immoralOther immoralSelf mismatch m m 1 0.8068 
26-May-2018_15:34:56 Exp 7328 20 male R 1 2 4 moralSelf moralOther mismatch m NA -1 1.1081 
26-May-2018_15:34:58 Exp 7328 20 male R 1 2 5 immoralOther immoralOther match n n 1 0.8300 
26-May-2018_15:35:00 Exp 7328 20 male R 1 2 6 moralOther moralOther match n n 1 0.7751 
26-May-2018_15:35:03 Exp 7328 20 male R 1 2 7 immoralSelf moralOther mismatch m m 1 0.7030 
26-May-2018_15:35:05 Exp 7328 20 male R 1 2 8 moralSelf moralSelf match n n 1 0.7738 
26-May-2018_15:35:07 Exp 7328 20 male R 1 2 9 moralSelf moralSelf match n n 1 0.6219 
26-May-2018_15:35:09 Exp 7328 20 male R 1 2 10 moralSelf immoralOther mismatch m m 1 0.7509 
26-May-2018_15:35:11 Exp 7328 20 male R 1 2 11 moralOther immoralSelf mismatch m m 1 0.6865 
26-May-2018_15:35:13 Exp 7328 20 male R 1 2 12 immoralSelf immoralSelf match n n 1 0.6767 
26-May-2018_15:35:15 Exp 7328 20 male R 1 2 13 immoralOther immoralSelf mismatch m n 0 0.7587 
26-May-2018_15:35:18 Exp 7328 20 male R 1 2 14 immoralSelf immoralOther mismatch m m 1 0.8863 
26-May-2018_15:35:20 Exp 7328 20 male R 1 2 15 moralSelf immoralOther mismatch m m 1 0.7885 
26-May-2018_15:35:22 Exp 7328 20 male R 1 2 16 moralSelf moralSelf match n n 1 0.6008 
26-May-2018_15:35:24 Exp 7328 20 male R 1 2 17 immoralSelf moralOther mismatch m m 1 0.8494 
26-May-2018_15:35:26 Exp 7328 20 male R 1 2 18 moralOther moralSelf mismatch m m 1 0.7950 
26-May-2018_15:35:29 Exp 7328 20 male R 1 2 19 moralOther immoralOther mismatch m m 1 0.7752 
26-May-2018_15:35:31 Exp 7328 20 male R 1 2 20 immoralOther immoralOther match n n 1 0.7433 
26-May-2018_15:35:33 Exp 7328 20 male R 1 2 21 immoralSelf immoralSelf match n n 1 0.8266 
26-May-2018_15:35:35 Exp 7328 20 male R 1 2 22 moralOther moralOther match n n 1 0.5637 
26-May-2018_15:35:37 Exp 7328 20 male R 1 2 23 immoralOther moralOther mismatch m m 1 0.6715 
26-May-2018_15:35:39 Exp 7328 20 male R 1 2 24 immoralOther immoralOther match n m 0 0.8415 
Date Prac Sub Age Sex Hand Block Bin Trial Shape Label Match CorrResp Resp ACC RT
26-May-2018_15:43:01 Exp 7328 20 male R 1 1 1 moralOther moralOther match n n 1 0.6519 
26-May-2018_15:43:04 Exp 7328 20 male R 1 1 2 moralSelf immoralSelf mismatch m m 1 1.1014 
26-May-2018_15:43:06 Exp 7328 20 male R 1 1 3 immoralSelf moralSelf mismatch m m 1 0.7198 
26-May-2018_15:43:08 Exp 7328 20 male R 1 1 4 immoralOther immoralOther match n m 0 0.7708 
26-May-2018_15:43:10 Exp 7328 20 male R 1 1 5 immoralOther moralSelf mismatch m m 1 0.7186 
26-May-2018_15:43:12 Exp 7328 20 male R 1 1 6 moralSelf moralSelf match n n 1 0.7216 
26-May-2018_15:43:14 Exp 7328 20 male R 1 1 7 moralSelf moralSelf match n n 1 0.5804 
26-May-2018_15:43:16 Exp 7328 20 male R 1 1 8 immoralSelf immoralSelf match n n 1 0.6445 
26-May-2018_15:43:18 Exp 7328 20 male R 1 1 9 immoralSelf moralOther mismatch m m 1 0.7500 
26-May-2018_15:43:20 Exp 7328 20 male R 1 1 10 immoralSelf immoralSelf match n n 1 0.6136 
26-May-2018_15:43:23 Exp 7328 20 male R 1 1 11 moralOther immoralSelf mismatch m m 1 0.7944 
26-May-2018_15:43:25 Exp 7328 20 male R 1 1 12 immoralOther immoralOther match n n 1 0.7186 
26-May-2018_15:43:27 Exp 7328 20 male R 1 1 13 moralSelf moralSelf match n n 1 0.5936 
26-May-2018_15:43:29 Exp 7328 20 male R 1 1 14 moralOther moralOther match n n 1 0.8060 
26-May-2018_15:43:31 Exp 7328 20 male R 1 1 15 moralOther moralOther match n n 1 0.7345 
26-May-2018_15:43:34 Exp 7328 20 male R 1 1 16 moralOther immoralOther mismatch m m 1 1.0776 
26-May-2018_15:43:36 Exp 7328 20 male R 1 1 17 immoralSelf immoralSelf match n n 1 0.8635 
26-May-2018_15:43:38 Exp 7328 20 male R 1 1 18 immoralSelf immoralOther mismatch m n 0 0.7733 
26-May-2018_15:43:40 Exp 7328 20 male R 1 1 19 immoralOther moralSelf mismatch m m 1 0.7611 
26-May-2018_15:43:42 Exp 7328 20 male R 1 1 20 moralOther immoralOther mismatch m n 0 0.5847 
26-May-2018_15:43:44 Exp 7328 20 male R 1 1 21 moralSelf moralOther mismatch m n 0 0.5929 
26-May-2018_15:43:47 Exp 7328 20 male R 1 1 22 immoralOther immoralOther match n m 0 0.8851 
26-May-2018_15:43:49 Exp 7328 20 male R 1 1 23 moralSelf immoralSelf mismatch m m 1 0.8673 
26-May-2018_15:43:51 Exp 7328 20 male R 1 1 24 immoralOther moralOther mismatch m m 1 0.9291 
26-May-2018_15:43:53 Exp 7328 20 male R 1 2 1 immoralSelf immoralSelf match n n 1 0.8163 
26-May-2018_15:43:56 Exp 7328 20 male R 1 2 2 immoralSelf moralSelf mismatch m m 1 0.7730 
26-May-2018_15:43:58 Exp 7328 20 male R 1 2 3 moralOther immoralSelf mismatch m m 1 0.8329 
26-May-2018_15:44:00 Exp 7328 20 male R 1 2 4 immoralOther moralSelf mismatch m m 1 0.8621 
26-May-2018_15:44:02 Exp 7328 20 male R 1 2 5 moralOther moralOther match n n 1 0.6919 
26-May-2018_15:44:05 Exp 7328 20 male R 1 2 6 moralSelf immoralOther mismatch m m 1 0.8143 
26-May-2018_15:44:07 Exp 7328 20 male R 1 2 7 moralSelf moralSelf match n n 1 0.6751 
26-May-2018_15:44:09 Exp 7328 20 male R 1 2 8 moralSelf immoralSelf mismatch m m 1 0.6611 
26-May-2018_15:44:11 Exp 7328 20 male R 1 2 9 moralOther moralOther match n n 1 0.6187 
26-May-2018_15:44:13 Exp 7328 20 male R 1 2 10 immoralOther immoralOther match n NA -1 1.1081 
26-May-2018_15:44:15 Exp 7328 20 male R 1 2 11 moralSelf moralSelf match n n 1 0.6783 
26-May-2018_15:44:18 Exp 7328 20 male R 1 2 12 moralOther immoralOther mismatch m m 1 0.9442 
26-May-2018_15:44:20 Exp 7328 20 male R 1 2 13 immoralOther moralOther mismatch m m 1 0.7396 
26-May-2018_15:44:22 Exp 7328 20 male R 1 2 14 moralSelf immoralOther mismatch m m 1 0.6630 
26-May-2018_15:44:24 Exp 7328 20 male R 1 2 15 immoralOther immoralSelf mismatch m m 1 0.8047 
26-May-2018_15:44:26 Exp 7328 20 male R 1 2 16 immoralSelf immoralOther mismatch m m 1 0.8053 
26-May-2018_15:44:29 Exp 7328 20 male R 1 2 17 immoralOther immoralOther match n n 1 0.7818 
26-May-2018_15:44:31 Exp 7328 20 male R 1 2 18 moralOther moralSelf mismatch m m 1 0.8540 
26-May-2018_15:44:33 Exp 7328 20 male R 1 2 19 immoralSelf immoralSelf match n n 1 0.7434 
26-May-2018_15:44:35 Exp 7328 20 male R 1 2 20 immoralSelf immoralSelf match n n 1 0.6108 
26-May-2018_15:44:37 Exp 7328 20 male R 1 2 21 immoralOther immoralOther match n n 1 0.6957 
26-May-2018_15:44:39 Exp 7328 20 male R 1 2 22 immoralSelf immoralOther mismatch m m 1 0.6420 
26-May-2018_15:44:41 Exp 7328 20 male R 1 2 23 moralSelf moralSelf match n n 1 0.6232 
26-May-2018_15:44:44 Exp 7328 20 male R 1 2 24 moralOther moralOther match n n 1 0.8963 
Date Prac Sub Age Sex Hand Block Bin Trial Shape Label Match CorrResp Resp ACC RT
26-May-2018_15:52:15 Exp 7328 20 male R 1 1 1 immoralOther moralOther mismatch m n 0 0.8928 
26-May-2018_15:52:17 Exp 7328 20 male R 1 1 2 immoralSelf immoralSelf match n n 1 0.7354 
26-May-2018_15:52:19 Exp 7328 20 male R 1 1 3 moralSelf moralSelf match n n 1 0.7344 
26-May-2018_15:52:22 Exp 7328 20 male R 1 1 4 immoralSelf moralSelf mismatch m m 1 0.9096 
26-May-2018_15:52:24 Exp 7328 20 male R 1 1 5 moralSelf immoralSelf mismatch m m 1 0.7243 
26-May-2018_15:52:26 Exp 7328 20 male R 1 1 6 moralSelf immoralSelf mismatch m m 1 1.0231 
26-May-2018_15:52:29 Exp 7328 20 male R 1 1 7 moralSelf moralOther mismatch m m 1 0.7522 
26-May-2018_15:52:31 Exp 7328 20 male R 1 1 8 immoralSelf immoralSelf match n n 1 0.8717 
26-May-2018_15:52:33 Exp 7328 20 male R 1 1 9 moralOther moralOther match n n 1 0.6818 
26-May-2018_15:52:35 Exp 7328 20 male R 1 1 10 moralOther moralOther match n n 1 0.7440 
26-May-2018_15:52:37 Exp 7328 20 male R 1 1 11 immoralOther immoralOther match n n 1 0.6994 
26-May-2018_15:52:39 Exp 7328 20 male R 1 1 12 immoralOther immoralOther match n n 1 0.7338 
26-May-2018_15:52:42 Exp 7328 20 male R 1 1 13 immoralSelf moralSelf mismatch m m 1 0.8049 
26-May-2018_15:52:44 Exp 7328 20 male R 1 1 14 moralOther immoralOther mismatch m NA -1 1.1081 
26-May-2018_15:52:47 Exp 7328 20 male R 1 1 15 immoralSelf moralSelf mismatch m m 1 0.9082 
26-May-2018_15:52:49 Exp 7328 20 male R 1 1 16 moralOther immoralOther mismatch m n 0 0.7628 
26-May-2018_15:52:51 Exp 7328 20 male R 1 1 17 immoralOther immoralOther match n n 1 0.7427 
26-May-2018_15:52:53 Exp 7328 20 male R 1 1 18 immoralOther immoralSelf mismatch m m 1 0.6340 
26-May-2018_15:52:55 Exp 7328 20 male R 1 1 19 immoralOther moralOther mismatch m n 0 0.8315 
26-May-2018_15:52:57 Exp 7328 20 male R 1 1 20 immoralSelf immoralSelf match n n 1 0.8244 
26-May-2018_15:53:00 Exp 7328 20 male R 1 1 21 moralOther moralSelf mismatch m n 0 0.7614 
26-May-2018_15:53:01 Exp 7328 20 male R 1 1 22 moralOther moralOther match n n 1 0.4810 
26-May-2018_15:53:04 Exp 7328 20 male R 1 1 23 moralSelf moralSelf match n n 1 0.6233 
26-May-2018_15:53:06 Exp 7328 20 male R 1 1 24 moralSelf moralSelf match n n 1 0.7282 
26-May-2018_15:53:08 Exp 7328 20 male R 1 2 1 immoralOther immoralOther match n n 1 1.1033 
26-May-2018_15:53:10 Exp 7328 20 male R 1 2 2 moralOther moralOther match n n 1 0.6460 
26-May-2018_15:53:12 Exp 7328 20 male R 1 2 3 immoralSelf immoralSelf match n n 1 0.7435 
26-May-2018_15:53:15 Exp 7328 20 male R 1 2 4 moralSelf immoralSelf mismatch m m 1 1.0189 
26-May-2018_15:53:17 Exp 7328 20 male R 1 2 5 immoralSelf immoralSelf match n n 1 0.7117 
26-May-2018_15:53:19 Exp 7328 20 male R 1 2 6 moralSelf moralOther mismatch m m 1 0.7504 
26-May-2018_15:53:21 Exp 7328 20 male R 1 2 7 moralOther moralSelf mismatch m m 1 0.8540 
26-May-2018_15:53:24 Exp 7328 20 male R 1 2 8 moralSelf moralSelf match n n 1 0.8555 
26-May-2018_15:53:26 Exp 7328 20 male R 1 2 9 immoralSelf moralSelf mismatch m m 1 0.8410 
26-May-2018_15:53:28 Exp 7328 20 male R 1 2 10 moralOther immoralOther mismatch m n 0 1.0142 
26-May-2018_15:53:31 Exp 7328 20 male R 1 2 11 immoralSelf immoralSelf match n n 1 1.0350 
26-May-2018_15:53:33 Exp 7328 20 male R 1 2 12 immoralOther immoralOther match n m 0 1.0323 
26-May-2018_15:53:35 Exp 7328 20 male R 1 2 13 immoralOther moralSelf mismatch m m 1 0.6935 
26-May-2018_15:53:38 Exp 7328 20 male R 1 2 14 immoralSelf moralSelf mismatch m m 1 0.9920 
26-May-2018_15:53:40 Exp 7328 20 male R 1 2 15 moralOther moralOther match n n 1 0.5484 
26-May-2018_15:53:42 Exp 7328 20 male R 1 2 16 moralSelf moralSelf match n n 1 0.7517 
26-May-2018_15:53:44 Exp 7328 20 male R 1 2 17 immoralOther immoralSelf mismatch m m 1 0.7833 
26-May-2018_15:53:46 Exp 7328 20 male R 1 2 18 immoralSelf moralOther mismatch m m 1 0.7275 
26-May-2018_15:53:49 Exp 7328 20 male R 1 2 19 moralOther moralSelf mismatch m m 1 0.7665 
26-May-2018_15:53:51 Exp 7328 20 male R 1 2 20 moralOther moralOther match n n 1 0.8184 
26-May-2018_15:53:53 Exp 7328 20 male R 1 2 21 moralSelf immoralSelf mismatch m m 1 0.7352 
26-May-2018_15:53:55 Exp 7328 20 male R 1 2 22 immoralOther immoralOther match n n 1 0.9183 
26-May-2018_15:53:57 Exp 7328 20 male R 1 2 23 moralSelf moralSelf match n n 1 0.6813 
26-May-2018_15:54:00 Exp 7328 20 male R 1 2 24 immoralOther immoralSelf mismatch m m 1 0.7114 
Date Prac Sub Age Sex Hand Block Bin Trial Shape Label Match CorrResp Resp ACC RT
26-May-2018_16:00:21 Exp 7328 20 male R 1 1 1 immoralOther immoralOther match n n 1 0.6832 
26-May-2018_16:00:23 Exp 7328 20 male R 1 1 2 moralSelf moralSelf match n n 1 0.6255 
26-May-2018_16:00:25 Exp 7328 20 male R 1 1 3 immoralOther moralSelf mismatch m m 1 0.7064 
26-May-2018_16:00:27 Exp 7328 20 male R 1 1 4 moralSelf moralOther mismatch m m 1 0.8011 
26-May-2018_16:00:29 Exp 7328 20 male R 1 1 5 moralOther moralOther match n n 1 0.7215 
26-May-2018_16:00:31 Exp 7328 20 male R 1 1 6 immoralSelf immoralOther mismatch m m 1 0.7244 
26-May-2018_16:00:33 Exp 7328 20 male R 1 1 7 immoralSelf immoralSelf match n n 1 0.5915 
26-May-2018_16:00:35 Exp 7328 20 male R 1 1 8 moralOther moralOther match n n 1 0.6919 
26-May-2018_16:00:37 Exp 7328 20 male R 1 1 9 immoralOther moralOther mismatch m m 1 0.7021 
26-May-2018_16:00:40 Exp 7328 20 male R 1 1 10 moralSelf immoralOther mismatch m m 1 0.6567 
26-May-2018_16:00:42 Exp 7328 20 male R 1 1 11 moralSelf immoralSelf mismatch m m 1 0.9664 
26-May-2018_16:00:44 Exp 7328 20 male R 1 1 12 moralOther immoralSelf mismatch m m 1 0.8342 
26-May-2018_16:00:46 Exp 7328 20 male R 1 1 13 moralOther moralSelf mismatch m m 1 0.7115 
26-May-2018_16:00:48 Exp 7328 20 male R 1 1 14 immoralSelf immoralSelf match n n 1 0.6942 
26-May-2018_16:00:51 Exp 7328 20 male R 1 1 15 immoralOther moralOther mismatch m m 1 0.8646 
26-May-2018_16:00:53 Exp 7328 20 male R 1 1 16 moralOther moralOther match n n 1 0.5824 
26-May-2018_16:00:55 Exp 7328 20 male R 1 1 17 immoralSelf immoralOther mismatch m m 1 0.7984 
26-May-2018_16:00:57 Exp 7328 20 male R 1 1 18 moralSelf moralSelf match n n 1 0.7030 
26-May-2018_16:00:59 Exp 7328 20 male R 1 1 19 moralOther immoralOther mismatch m m 1 0.8776 
26-May-2018_16:01:02 Exp 7328 20 male R 1 1 20 immoralOther immoralOther match n n 1 0.9036 
26-May-2018_16:01:04 Exp 7328 20 male R 1 1 21 immoralOther immoralOther match n n 1 0.5423 
26-May-2018_16:01:06 Exp 7328 20 male R 1 1 22 immoralSelf moralSelf mismatch m NA -1 1.1081 
26-May-2018_16:01:08 Exp 7328 20 male R 1 1 23 immoralSelf immoralSelf match n n 1 0.8483 
26-May-2018_16:01:11 Exp 7328 20 male R 1 1 24 moralSelf moralSelf match n n 1 0.7138 
26-May-2018_16:01:13 Exp 7328 20 male R 1 2 1 immoralSelf immoralSelf match n n 1 0.6726 
26-May-2018_16:01:15 Exp 7328 20 male R 1 2 2 moralOther moralOther match n n 1 0.7145 
26-May-2018_16:01:17 Exp 7328 20 male R 1 2 3 moralSelf moralSelf match n n 1 0.7052 
26-May-2018_16:01:19 Exp 7328 20 male R 1 2 4 moralOther immoralSelf mismatch m n 0 0.8958 
26-May-2018_16:01:21 Exp 7328 20 male R 1 2 5 immoralSelf immoralSelf match n n 1 0.6902 
26-May-2018_16:01:24 Exp 7328 20 male R 1 2 6 immoralOther moralOther mismatch m m 1 0.8245 
26-May-2018_16:01:26 Exp 7328 20 male R 1 2 7 moralOther immoralSelf mismatch m m 1 0.9375 
26-May-2018_16:01:28 Exp 7328 20 male R 1 2 8 immoralSelf moralSelf mismatch m m 1 0.8487 
26-May-2018_16:01:30 Exp 7328 20 male R 1 2 9 moralSelf immoralSelf mismatch m m 1 0.6421 
26-May-2018_16:01:32 Exp 7328 20 male R 1 2 10 moralSelf moralSelf match n n 1 0.5354 
26-May-2018_16:01:34 Exp 7328 20 male R 1 2 11 immoralSelf immoralSelf match n n 1 0.7586 
26-May-2018_16:01:36 Exp 7328 20 male R 1 2 12 moralSelf moralSelf match n n 1 0.5902 
26-May-2018_16:01:39 Exp 7328 20 male R 1 2 13 moralOther moralOther match n n 1 0.7624 
26-May-2018_16:01:41 Exp 7328 20 male R 1 2 14 immoralSelf immoralOther mismatch m m 1 0.7023 
26-May-2018_16:01:43 Exp 7328 20 male R 1 2 15 immoralOther immoralOther match n n 1 0.7767 
26-May-2018_16:01:45 Exp 7328 20 male R 1 2 16 moralSelf immoralOther mismatch m m 1 0.6889 
26-May-2018_16:01:47 Exp 7328 20 male R 1 2 17 immoralOther immoralSelf mismatch m m 1 0.7990 
26-May-2018_16:01:50 Exp 7328 20 male R 1 2 18 moralSelf immoralSelf mismatch m m 1 0.8475 
26-May-2018_16:01:52 Exp 7328 20 male R 1 2 19 immoralOther immoralOther match n n 1 0.7691 
26-May-2018_16:01:54 Exp 7328 20 male R 1 2 20 immoralOther moralSelf mismatch m m 1 0.8049 
26-May-2018_16:01:56 Exp 7328 20 male R 1 2 21 moralOther immoralSelf mismatch m n 0 0.7335 
26-May-2018_16:01:58 Exp 7328 20 male R 1 2 22 immoralOther immoralOther match n n 1 0.8846 
26-May-2018_16:02:01 Exp 7328 20 male R 1 2 23 immoralSelf moralOther mismatch m m 1 0.7148 
26-May-2018_16:02:03 Exp 7328 20 male R 1 2 24 moralOther moralOther match n n 1 0.6858 
