Date Sub Age Sex Hand Block Bin Trial Task Shape corrResp Resp ACC RT
16-May-2018_15:42:31 7316 21 female R 1 1 1 self moralSelf H h 1 0.6206 
16-May-2018_15:42:34 7316 21 female R 1 1 2 self immoralOther J j 1 0.7466 
16-May-2018_15:42:35 7316 21 female R 1 1 3 self immoralSelf H h 1 0.5668 
16-May-2018_15:42:37 7316 21 female R 1 1 4 self moralOther J j 1 0.5968 
16-May-2018_15:42:39 7316 21 female R 1 1 5 self moralSelf H h 1 0.4151 
16-May-2018_15:42:41 7316 21 female R 1 1 6 self immoralSelf H h 1 0.5392 
16-May-2018_15:42:43 7316 21 female R 1 1 7 self moralSelf H h 1 0.4633 
16-May-2018_15:42:45 7316 21 female R 1 1 8 self immoralSelf H h 1 0.7433 
16-May-2018_15:42:47 7316 21 female R 1 1 9 self immoralOther J j 1 0.4856 
16-May-2018_15:42:48 7316 21 female R 1 1 10 self immoralOther J j 1 0.5456 
16-May-2018_15:42:50 7316 21 female R 1 1 11 self immoralSelf H h 1 0.6376 
16-May-2018_15:42:52 7316 21 female R 1 1 12 self immoralOther J j 1 0.5237 
16-May-2018_15:42:54 7316 21 female R 1 1 13 self immoralOther J j 1 0.4718 
16-May-2018_15:42:56 7316 21 female R 1 1 14 self moralOther J j 1 0.5619 
16-May-2018_15:42:58 7316 21 female R 1 1 15 self moralOther J j 1 0.5681 
16-May-2018_15:43:00 7316 21 female R 1 1 16 self moralSelf H h 1 0.5161 
16-May-2018_15:43:01 7316 21 female R 1 1 17 self moralOther J j 1 0.6162 
16-May-2018_15:43:03 7316 21 female R 1 1 18 self moralOther J j 1 0.4904 
16-May-2018_15:43:06 7316 21 female R 1 1 19 self immoralSelf H h 1 0.6525 
16-May-2018_15:43:08 7316 21 female R 1 1 20 self moralOther J j 1 0.5986 
16-May-2018_15:43:09 7316 21 female R 1 1 21 self moralSelf H h 1 0.4867 
16-May-2018_15:43:11 7316 21 female R 1 1 22 self immoralOther J j 1 0.4948 
16-May-2018_15:43:13 7316 21 female R 1 1 23 self immoralSelf H j 0 0.5009 
16-May-2018_15:43:15 7316 21 female R 1 1 24 self moralSelf H h 1 0.5350 
16-May-2018_15:43:17 7316 21 female R 1 2 1 self immoralOther J j 1 0.5091 
16-May-2018_15:43:18 7316 21 female R 1 2 2 self immoralOther J j 1 0.5452 
16-May-2018_15:43:20 7316 21 female R 1 2 3 self moralOther J j 1 0.8234 
16-May-2018_15:43:22 7316 21 female R 1 2 4 self immoralOther J j 1 0.5594 
16-May-2018_15:43:24 7316 21 female R 1 2 5 self immoralSelf H h 1 0.5496 
16-May-2018_15:43:26 7316 21 female R 1 2 6 self moralOther J j 1 0.6157 
16-May-2018_15:43:28 7316 21 female R 1 2 7 self moralSelf H h 1 0.4758 
16-May-2018_15:43:30 7316 21 female R 1 2 8 self moralOther J j 1 0.7638 
16-May-2018_15:43:32 7316 21 female R 1 2 9 self immoralSelf H h 1 0.5460 
16-May-2018_15:43:34 7316 21 female R 1 2 10 self moralSelf H h 1 0.5782 
16-May-2018_15:43:35 7316 21 female R 1 2 11 self moralOther J j 1 0.7362 
16-May-2018_15:43:37 7316 21 female R 1 2 12 self immoralSelf H h 1 0.5523 
16-May-2018_15:43:39 7316 21 female R 1 2 13 self immoralSelf H h 1 0.6124 
16-May-2018_15:43:41 7316 21 female R 1 2 14 self moralSelf H h 1 0.5006 
16-May-2018_15:43:42 7316 21 female R 1 2 15 self moralSelf H h 1 0.4607 
16-May-2018_15:43:44 7316 21 female R 1 2 16 self immoralOther J j 1 0.5426 
16-May-2018_15:43:46 7316 21 female R 1 2 17 self immoralOther J j 1 0.4008 
16-May-2018_15:43:47 7316 21 female R 1 2 18 self immoralOther J j 1 0.4529 
16-May-2018_15:43:49 7316 21 female R 1 2 19 self moralSelf H h 1 0.5950 
16-May-2018_15:43:51 7316 21 female R 1 2 20 self moralSelf H h 1 0.4691 
16-May-2018_15:43:53 7316 21 female R 1 2 21 self immoralSelf H h 1 0.6772 
16-May-2018_15:43:55 7316 21 female R 1 2 22 self moralOther J j 1 0.5394 
16-May-2018_15:43:56 7316 21 female R 1 2 23 self immoralSelf H h 1 0.5415 
16-May-2018_15:43:58 7316 21 female R 1 2 24 self moralOther J j 1 0.5956 
16-May-2018_15:44:06 7316 21 female R 1 3 1 self immoralSelf H h 1 0.7260 
16-May-2018_15:44:08 7316 21 female R 1 3 2 self moralOther J j 1 0.5741 
16-May-2018_15:44:10 7316 21 female R 1 3 3 self moralOther J j 1 0.6422 
16-May-2018_15:44:12 7316 21 female R 1 3 4 self immoralOther J j 1 0.6022 
16-May-2018_15:44:14 7316 21 female R 1 3 5 self moralSelf H h 1 0.5164 
16-May-2018_15:44:15 7316 21 female R 1 3 6 self immoralSelf H h 1 0.4665 
16-May-2018_15:44:17 7316 21 female R 1 3 7 self moralOther J j 1 0.6125 
16-May-2018_15:44:19 7316 21 female R 1 3 8 self moralOther J j 1 0.5547 
16-May-2018_15:44:21 7316 21 female R 1 3 9 self moralSelf H h 1 0.4888 
16-May-2018_15:44:23 7316 21 female R 1 3 10 self immoralOther J j 1 0.5009 
16-May-2018_15:44:25 7316 21 female R 1 3 11 self moralSelf H h 1 0.4750 
16-May-2018_15:44:26 7316 21 female R 1 3 12 self moralOther J j 1 0.6251 
16-May-2018_15:44:28 7316 21 female R 1 3 13 self immoralOther J j 1 0.5612 
16-May-2018_15:44:30 7316 21 female R 1 3 14 self immoralSelf H h 1 0.5493 
16-May-2018_15:44:32 7316 21 female R 1 3 15 self immoralSelf H h 1 0.5054 
16-May-2018_15:44:34 7316 21 female R 1 3 16 self moralSelf H h 1 0.6255 
16-May-2018_15:44:36 7316 21 female R 1 3 17 self moralOther J j 1 0.5357 
16-May-2018_15:44:38 7316 21 female R 1 3 18 self moralSelf H h 1 0.5057 
16-May-2018_15:44:39 7316 21 female R 1 3 19 self immoralOther J j 1 0.5279 
16-May-2018_15:44:41 7316 21 female R 1 3 20 self immoralOther J j 1 0.4799 
16-May-2018_15:44:43 7316 21 female R 1 3 21 self immoralSelf H h 1 0.5040 
16-May-2018_15:44:45 7316 21 female R 1 3 22 self immoralSelf H h 1 0.5441 
16-May-2018_15:44:47 7316 21 female R 1 3 23 self immoralOther J j 1 0.4662 
16-May-2018_15:44:48 7316 21 female R 1 3 24 self moralSelf H h 1 0.4704 
16-May-2018_15:44:50 7316 21 female R 1 4 1 self immoralSelf H h 1 0.5765 
16-May-2018_15:44:52 7316 21 female R 1 4 2 self moralOther J j 1 0.5606 
16-May-2018_15:44:54 7316 21 female R 1 4 3 self moralOther J j 1 0.6407 
16-May-2018_15:44:55 7316 21 female R 1 4 4 self immoralOther J j 1 0.4988 
16-May-2018_15:44:57 7316 21 female R 1 4 5 self immoralSelf H h 1 0.5950 
16-May-2018_15:44:59 7316 21 female R 1 4 6 self moralSelf H h 1 0.4450 
16-May-2018_15:45:01 7316 21 female R 1 4 7 self immoralOther J j 1 0.4751 
16-May-2018_15:45:02 7316 21 female R 1 4 8 self moralOther J h 0 0.4893 
16-May-2018_15:45:04 7316 21 female R 1 4 9 self moralOther J h 0 0.5713 
16-May-2018_15:45:06 7316 21 female R 1 4 10 self moralOther J h 0 0.5534 
16-May-2018_15:45:08 7316 21 female R 1 4 11 self immoralOther J j 1 0.6015 
16-May-2018_15:45:09 7316 21 female R 1 4 12 self moralSelf H h 1 0.5553 
16-May-2018_15:45:11 7316 21 female R 1 4 13 self moralSelf H h 1 0.5300 
16-May-2018_15:45:13 7316 21 female R 1 4 14 self moralSelf H h 1 0.3777 
16-May-2018_15:45:14 7316 21 female R 1 4 15 self immoralOther J j 1 0.6138 
16-May-2018_15:45:16 7316 21 female R 1 4 16 self immoralOther J j 1 0.4280 
16-May-2018_15:45:18 7316 21 female R 1 4 17 self moralOther J j 1 0.9020 
16-May-2018_15:45:20 7316 21 female R 1 4 18 self immoralOther J j 1 0.5581 
16-May-2018_15:45:22 7316 21 female R 1 4 19 self immoralSelf H h 1 0.6006 
16-May-2018_15:45:24 7316 21 female R 1 4 20 self moralSelf H h 1 0.6683 
16-May-2018_15:45:25 7316 21 female R 1 4 21 self moralSelf H h 1 0.4305 
16-May-2018_15:45:27 7316 21 female R 1 4 22 self immoralSelf H h 1 0.6186 
16-May-2018_15:45:29 7316 21 female R 1 4 23 self immoralSelf H h 1 0.6067 
16-May-2018_15:45:31 7316 21 female R 1 4 24 self immoralSelf H h 1 0.4828 
16-May-2018_15:45:44 7316 21 female R 1 5 1 self immoralOther J j 1 0.5675 
16-May-2018_15:45:46 7316 21 female R 1 5 2 self immoralOther J j 1 0.4396 
16-May-2018_15:45:48 7316 21 female R 1 5 3 self moralSelf H h 1 0.5617 
16-May-2018_15:45:50 7316 21 female R 1 5 4 self moralSelf H h 1 0.3879 
16-May-2018_15:45:51 7316 21 female R 1 5 5 self moralSelf H h 1 0.3560 
16-May-2018_15:45:53 7316 21 female R 1 5 6 self moralOther J j 1 0.4640 
16-May-2018_15:45:55 7316 21 female R 1 5 7 self immoralOther J j 1 0.4462 
16-May-2018_15:45:56 7316 21 female R 1 5 8 self moralSelf H h 1 0.4442 
16-May-2018_15:45:58 7316 21 female R 1 5 9 self immoralOther J j 1 0.4883 
16-May-2018_15:46:00 7316 21 female R 1 5 10 self moralSelf H h 1 0.4385 
16-May-2018_15:46:01 7316 21 female R 1 5 11 self moralOther J j 1 0.5005 
16-May-2018_15:46:03 7316 21 female R 1 5 12 self moralOther J j 1 0.4687 
16-May-2018_15:46:05 7316 21 female R 1 5 13 self immoralSelf H h 1 0.4968 
16-May-2018_15:46:07 7316 21 female R 1 5 14 self immoralSelf H h 1 0.5108 
16-May-2018_15:46:08 7316 21 female R 1 5 15 self immoralSelf H h 1 0.3510 
16-May-2018_15:46:10 7316 21 female R 1 5 16 self immoralSelf H h 1 0.3791 
16-May-2018_15:46:11 7316 21 female R 1 5 17 self moralSelf H h 1 0.3412 
16-May-2018_15:46:13 7316 21 female R 1 5 18 self moralOther J j 1 0.4253 
16-May-2018_15:46:15 7316 21 female R 1 5 19 self immoralSelf H h 1 0.5917 
16-May-2018_15:46:17 7316 21 female R 1 5 20 self immoralSelf H h 1 0.6974 
16-May-2018_15:46:18 7316 21 female R 1 5 21 self moralOther J j 1 0.5696 
16-May-2018_15:46:20 7316 21 female R 1 5 22 self immoralOther J j 1 0.5097 
16-May-2018_15:46:22 7316 21 female R 1 5 23 self moralOther J j 1 0.4917 
16-May-2018_15:46:23 7316 21 female R 1 5 24 self immoralOther J j 1 0.4377 
Date Sub Age Sex Hand Block Bin Trial Task Shape corrResp Resp ACC RT
16-May-2018_15:48:50 7316 21 female R 2 1 1 moral immoralSelf U y 0 0.8261 
16-May-2018_15:48:52 7316 21 female R 2 1 2 moral immoralOther U u 1 1.0282 
16-May-2018_15:48:54 7316 21 female R 2 1 3 moral immoralOther U u 1 0.5743 
16-May-2018_15:48:56 7316 21 female R 2 1 4 moral immoralSelf U u 1 0.6784 
16-May-2018_15:48:58 7316 21 female R 2 1 5 moral moralOther Y y 1 0.6127 
16-May-2018_15:49:00 7316 21 female R 2 1 6 moral moralOther Y y 1 0.5168 
16-May-2018_15:49:02 7316 21 female R 2 1 7 moral moralOther Y y 1 0.4437 
16-May-2018_15:49:04 7316 21 female R 2 1 8 moral moralSelf Y y 1 0.5569 
16-May-2018_15:49:05 7316 21 female R 2 1 9 moral moralSelf Y y 1 0.7231 
16-May-2018_15:49:07 7316 21 female R 2 1 10 moral moralSelf Y y 1 0.4891 
16-May-2018_15:49:09 7316 21 female R 2 1 11 moral immoralSelf U u 1 0.4213 
16-May-2018_15:49:11 7316 21 female R 2 1 12 moral immoralOther U u 1 0.6253 
16-May-2018_15:49:13 7316 21 female R 2 1 13 moral immoralOther U u 1 0.5514 
16-May-2018_15:49:14 7316 21 female R 2 1 14 moral moralOther Y y 1 0.6475 
16-May-2018_15:49:16 7316 21 female R 2 1 15 moral moralOther Y y 1 0.5557 
16-May-2018_15:49:18 7316 21 female R 2 1 16 moral moralSelf Y y 1 0.4577 
16-May-2018_15:49:20 7316 21 female R 2 1 17 moral moralSelf Y y 1 0.3740 
16-May-2018_15:49:22 7316 21 female R 2 1 18 moral moralOther Y y 1 0.8159 
16-May-2018_15:49:24 7316 21 female R 2 1 19 moral immoralSelf U NA -1 1.0850 
16-May-2018_15:49:26 7316 21 female R 2 1 20 moral immoralOther U u 1 0.5302 
16-May-2018_15:49:28 7316 21 female R 2 1 21 moral immoralOther U u 1 0.4804 
16-May-2018_15:49:30 7316 21 female R 2 1 22 moral immoralSelf U u 1 0.5243 
16-May-2018_15:49:31 7316 21 female R 2 1 23 moral immoralSelf U u 1 0.4585 
16-May-2018_15:49:34 7316 21 female R 2 1 24 moral moralSelf Y y 1 0.5886 
16-May-2018_15:49:35 7316 21 female R 2 2 1 moral immoralSelf U u 1 0.6105 
16-May-2018_15:49:37 7316 21 female R 2 2 2 moral moralSelf Y y 1 0.5727 
16-May-2018_15:49:39 7316 21 female R 2 2 3 moral moralOther Y y 1 0.7848 
16-May-2018_15:49:41 7316 21 female R 2 2 4 moral moralSelf Y y 1 0.4870 
16-May-2018_15:49:43 7316 21 female R 2 2 5 moral moralSelf Y y 1 0.4164 
16-May-2018_15:49:45 7316 21 female R 2 2 6 moral immoralSelf U u 1 0.7092 
16-May-2018_15:49:46 7316 21 female R 2 2 7 moral moralSelf Y y 1 0.5353 
16-May-2018_15:49:48 7316 21 female R 2 2 8 moral immoralOther U u 1 0.5534 
16-May-2018_15:49:50 7316 21 female R 2 2 9 moral immoralSelf U u 1 0.8855 
16-May-2018_15:49:52 7316 21 female R 2 2 10 moral moralOther Y y 1 0.7857 
16-May-2018_15:49:54 7316 21 female R 2 2 11 moral immoralOther U u 1 0.6258 
16-May-2018_15:49:56 7316 21 female R 2 2 12 moral immoralSelf U u 1 0.5198 
16-May-2018_15:49:58 7316 21 female R 2 2 13 moral immoralSelf U u 1 0.4780 
16-May-2018_15:50:00 7316 21 female R 2 2 14 moral immoralOther U u 1 0.5461 
16-May-2018_15:50:01 7316 21 female R 2 2 15 moral moralOther Y y 1 0.6882 
16-May-2018_15:50:03 7316 21 female R 2 2 16 moral moralSelf Y y 1 0.4723 
16-May-2018_15:50:05 7316 21 female R 2 2 17 moral immoralOther U u 1 0.5524 
16-May-2018_15:50:07 7316 21 female R 2 2 18 moral immoralOther U u 1 0.4584 
16-May-2018_15:50:08 7316 21 female R 2 2 19 moral immoralOther U u 1 0.4986 
16-May-2018_15:50:10 7316 21 female R 2 2 20 moral moralOther Y y 1 0.6207 
16-May-2018_15:50:12 7316 21 female R 2 2 21 moral immoralSelf U u 1 0.7667 
16-May-2018_15:50:14 7316 21 female R 2 2 22 moral moralSelf Y y 1 0.6229 
16-May-2018_15:50:16 7316 21 female R 2 2 23 moral moralOther Y y 1 0.4249 
16-May-2018_15:50:17 7316 21 female R 2 2 24 moral moralOther Y y 1 0.5051 
16-May-2018_15:50:25 7316 21 female R 2 3 1 moral moralSelf Y y 1 0.6955 
16-May-2018_15:50:27 7316 21 female R 2 3 2 moral immoralSelf U u 1 0.7236 
16-May-2018_15:50:29 7316 21 female R 2 3 3 moral immoralOther U u 1 0.5278 
16-May-2018_15:50:31 7316 21 female R 2 3 4 moral immoralOther U u 1 0.4118 
16-May-2018_15:50:33 7316 21 female R 2 3 5 moral immoralSelf U u 1 0.4940 
16-May-2018_15:50:35 7316 21 female R 2 3 6 moral moralOther Y y 1 0.6021 
16-May-2018_15:50:36 7316 21 female R 2 3 7 moral moralSelf Y y 1 0.4121 
16-May-2018_15:50:38 7316 21 female R 2 3 8 moral moralSelf Y y 1 0.3603 
16-May-2018_15:50:40 7316 21 female R 2 3 9 moral immoralOther U y 0 0.4283 
16-May-2018_15:50:41 7316 21 female R 2 3 10 moral moralSelf Y y 1 0.5704 
16-May-2018_15:50:43 7316 21 female R 2 3 11 moral immoralOther U u 1 0.5386 
16-May-2018_15:50:45 7316 21 female R 2 3 12 moral moralOther Y y 1 0.4826 
16-May-2018_15:50:47 7316 21 female R 2 3 13 moral immoralSelf U u 1 0.6947 
16-May-2018_15:50:49 7316 21 female R 2 3 14 moral moralOther Y y 1 0.7108 
16-May-2018_15:50:51 7316 21 female R 2 3 15 moral immoralSelf U u 1 0.5691 
16-May-2018_15:50:53 7316 21 female R 2 3 16 moral moralOther Y y 1 0.5371 
16-May-2018_15:50:54 7316 21 female R 2 3 17 moral moralOther Y y 1 0.6032 
16-May-2018_15:50:56 7316 21 female R 2 3 18 moral immoralSelf U u 1 0.7034 
16-May-2018_15:50:58 7316 21 female R 2 3 19 moral moralSelf Y y 1 0.5675 
16-May-2018_15:51:00 7316 21 female R 2 3 20 moral immoralOther U u 1 0.7595 
16-May-2018_15:51:02 7316 21 female R 2 3 21 moral immoralOther U u 1 0.5457 
16-May-2018_15:51:05 7316 21 female R 2 3 22 moral immoralSelf U y 0 0.6617 
16-May-2018_15:51:07 7316 21 female R 2 3 23 moral moralSelf Y y 1 0.7039 
16-May-2018_15:51:08 7316 21 female R 2 3 24 moral moralOther Y y 1 0.5819 
16-May-2018_15:51:10 7316 21 female R 2 4 1 moral moralSelf Y y 1 0.5041 
16-May-2018_15:51:12 7316 21 female R 2 4 2 moral moralSelf Y y 1 0.4345 
16-May-2018_15:51:13 7316 21 female R 2 4 3 moral moralSelf Y y 1 0.3603 
16-May-2018_15:51:15 7316 21 female R 2 4 4 moral moralOther Y y 1 0.6585 
16-May-2018_15:51:17 7316 21 female R 2 4 5 moral immoralOther U u 1 0.5546 
16-May-2018_15:51:19 7316 21 female R 2 4 6 moral immoralSelf U u 1 0.4746 
16-May-2018_15:51:20 7316 21 female R 2 4 7 moral immoralSelf U u 1 0.5027 
16-May-2018_15:51:22 7316 21 female R 2 4 8 moral immoralOther U u 1 0.5571 
16-May-2018_15:51:24 7316 21 female R 2 4 9 moral immoralSelf U u 1 0.6146 
16-May-2018_15:51:25 7316 21 female R 2 4 10 moral moralOther Y u 0 0.4429 
16-May-2018_15:51:27 7316 21 female R 2 4 11 moral moralOther Y y 1 0.4494 
16-May-2018_15:51:29 7316 21 female R 2 4 12 moral moralOther Y y 1 0.4071 
16-May-2018_15:51:31 7316 21 female R 2 4 13 moral immoralSelf U u 1 0.9153 
16-May-2018_15:51:33 7316 21 female R 2 4 14 moral immoralSelf U u 1 0.4574 
16-May-2018_15:51:35 7316 21 female R 2 4 15 moral moralOther Y y 1 0.9554 
16-May-2018_15:51:37 7316 21 female R 2 4 16 moral immoralSelf U u 1 0.6516 
16-May-2018_15:51:39 7316 21 female R 2 4 17 moral immoralOther U u 1 0.4841 
16-May-2018_15:51:40 7316 21 female R 2 4 18 moral immoralOther U u 1 0.4358 
16-May-2018_15:51:42 7316 21 female R 2 4 19 moral immoralOther U u 1 0.5099 
16-May-2018_15:51:44 7316 21 female R 2 4 20 moral moralSelf Y y 1 0.5660 
16-May-2018_15:51:46 7316 21 female R 2 4 21 moral moralSelf Y y 1 0.4142 
16-May-2018_15:51:48 7316 21 female R 2 4 22 moral moralSelf Y y 1 0.4602 
16-May-2018_15:51:50 7316 21 female R 2 4 23 moral moralOther Y y 1 0.7163 
16-May-2018_15:51:52 7316 21 female R 2 4 24 moral immoralOther U u 1 0.5625 
16-May-2018_15:51:56 7316 21 female R 2 5 1 moral moralOther Y y 1 0.6786 
16-May-2018_15:51:58 7316 21 female R 2 5 2 moral moralSelf Y y 1 0.5208 
16-May-2018_15:52:00 7316 21 female R 2 5 3 moral immoralSelf U u 1 0.5850 
16-May-2018_15:52:02 7316 21 female R 2 5 4 moral moralOther Y y 1 0.6550 
16-May-2018_15:52:03 7316 21 female R 2 5 5 moral immoralOther U u 1 0.4872 
16-May-2018_15:52:05 7316 21 female R 2 5 6 moral moralSelf Y y 1 0.5032 
16-May-2018_15:52:07 7316 21 female R 2 5 7 moral immoralOther U u 1 0.6693 
16-May-2018_15:52:08 7316 21 female R 2 5 8 moral immoralOther U u 1 0.4455 
16-May-2018_15:52:10 7316 21 female R 2 5 9 moral moralOther Y y 1 0.4955 
16-May-2018_15:52:12 7316 21 female R 2 5 10 moral immoralSelf U u 1 0.6596 
16-May-2018_15:52:14 7316 21 female R 2 5 11 moral moralSelf Y y 1 0.6017 
16-May-2018_15:52:16 7316 21 female R 2 5 12 moral immoralOther U u 1 0.5139 
16-May-2018_15:52:18 7316 21 female R 2 5 13 moral immoralSelf U y 0 0.6579 
16-May-2018_15:52:20 7316 21 female R 2 5 14 moral immoralSelf U u 1 0.4921 
16-May-2018_15:52:21 7316 21 female R 2 5 15 moral moralOther Y y 1 0.6661 
16-May-2018_15:52:23 7316 21 female R 2 5 16 moral moralOther Y y 1 0.5502 
16-May-2018_15:52:25 7316 21 female R 2 5 17 moral immoralSelf U u 1 0.5443 
16-May-2018_15:52:27 7316 21 female R 2 5 18 moral moralSelf Y y 1 0.6145 
16-May-2018_15:52:29 7316 21 female R 2 5 19 moral immoralOther U u 1 0.8085 
16-May-2018_15:52:31 7316 21 female R 2 5 20 moral moralSelf Y y 1 0.5427 
16-May-2018_15:52:33 7316 21 female R 2 5 21 moral moralSelf Y y 1 0.5528 
16-May-2018_15:52:35 7316 21 female R 2 5 22 moral moralOther Y u 0 0.5969 
16-May-2018_15:52:37 7316 21 female R 2 5 23 moral immoralSelf U u 1 0.7411 
16-May-2018_15:52:39 7316 21 female R 2 5 24 moral immoralOther U u 1 0.5272 
Date Sub Age Sex Hand Block Bin Trial Task Shape corrResp Resp ACC RT
16-May-2018_15:54:56 7316 21 female R 3 1 1 self moralOther J j 1 0.8329 
16-May-2018_15:54:58 7316 21 female R 3 1 2 self immoralSelf H h 1 0.6890 
16-May-2018_15:55:00 7316 21 female R 3 1 3 self moralSelf H h 1 0.5451 
16-May-2018_15:55:02 7316 21 female R 3 1 4 self immoralOther J j 1 0.5472 
16-May-2018_15:55:04 7316 21 female R 3 1 5 self moralOther J h 0 0.6494 
16-May-2018_15:55:05 7316 21 female R 3 1 6 self immoralOther J j 1 0.4895 
16-May-2018_15:55:07 7316 21 female R 3 1 7 self immoralSelf H h 1 0.7135 
16-May-2018_15:55:09 7316 21 female R 3 1 8 self moralOther J j 1 0.5576 
16-May-2018_15:55:11 7316 21 female R 3 1 9 self moralSelf H h 1 0.5338 
16-May-2018_15:55:12 7316 21 female R 3 1 10 self moralSelf H h 1 0.5218 
16-May-2018_15:55:14 7316 21 female R 3 1 11 self immoralOther J j 1 0.4859 
16-May-2018_15:55:16 7316 21 female R 3 1 12 self immoralOther J j 1 0.5180 
16-May-2018_15:55:18 7316 21 female R 3 1 13 self moralOther J j 1 0.9983 
16-May-2018_15:55:20 7316 21 female R 3 1 14 self moralOther J j 1 0.5683 
16-May-2018_15:55:22 7316 21 female R 3 1 15 self moralSelf H h 1 0.6045 
16-May-2018_15:55:24 7316 21 female R 3 1 16 self immoralSelf H h 1 0.6065 
16-May-2018_15:55:26 7316 21 female R 3 1 17 self immoralSelf H h 1 0.5026 
16-May-2018_15:55:28 7316 21 female R 3 1 18 self immoralOther J j 1 0.5687 
16-May-2018_15:55:29 7316 21 female R 3 1 19 self moralSelf H h 1 0.5208 
16-May-2018_15:55:31 7316 21 female R 3 1 20 self moralSelf H h 1 0.4549 
16-May-2018_15:55:33 7316 21 female R 3 1 21 self moralOther J j 1 0.8130 
16-May-2018_15:55:35 7316 21 female R 3 1 22 self immoralOther J j 1 0.4691 
16-May-2018_15:55:37 7316 21 female R 3 1 23 self immoralSelf H h 1 0.6412 
16-May-2018_15:55:39 7316 21 female R 3 1 24 self immoralSelf H h 1 0.3973 
16-May-2018_15:55:41 7316 21 female R 3 2 1 self moralSelf H h 1 0.5294 
16-May-2018_15:55:43 7316 21 female R 3 2 2 self moralOther J j 1 0.5415 
16-May-2018_15:55:45 7316 21 female R 3 2 3 self moralOther J j 1 0.4896 
16-May-2018_15:55:47 7316 21 female R 3 2 4 self immoralSelf H h 1 0.6438 
16-May-2018_15:55:49 7316 21 female R 3 2 5 self moralSelf H h 1 0.7816 
16-May-2018_15:55:51 7316 21 female R 3 2 6 self moralSelf H h 1 0.8181 
16-May-2018_15:55:52 7316 21 female R 3 2 7 self moralSelf H h 1 0.4022 
16-May-2018_15:55:55 7316 21 female R 3 2 8 self immoralSelf H h 1 0.7283 
16-May-2018_15:55:56 7316 21 female R 3 2 9 self moralOther J j 1 0.5144 
16-May-2018_15:55:58 7316 21 female R 3 2 10 self moralOther J j 1 0.4705 
16-May-2018_15:56:00 7316 21 female R 3 2 11 self immoralOther J j 1 0.4506 
16-May-2018_15:56:02 7316 21 female R 3 2 12 self immoralSelf H j 0 0.5527 
16-May-2018_15:56:04 7316 21 female R 3 2 13 self immoralOther J NA -1 1.0850 
16-May-2018_15:56:06 7316 21 female R 3 2 14 self immoralOther J j 1 0.5169 
16-May-2018_15:56:08 7316 21 female R 3 2 15 self immoralOther J j 1 0.4351 
16-May-2018_15:56:09 7316 21 female R 3 2 16 self immoralOther J j 1 0.3451 
16-May-2018_15:56:11 7316 21 female R 3 2 17 self moralSelf H h 1 0.6392 
16-May-2018_15:56:13 7316 21 female R 3 2 18 self immoralSelf H h 1 0.5972 
16-May-2018_15:56:15 7316 21 female R 3 2 19 self immoralSelf H h 1 0.4974 
16-May-2018_15:56:17 7316 21 female R 3 2 20 self moralSelf H h 1 0.5635 
16-May-2018_15:56:19 7316 21 female R 3 2 21 self moralOther J j 1 0.7896 
16-May-2018_15:56:21 7316 21 female R 3 2 22 self immoralSelf H h 1 0.9118 
16-May-2018_15:56:23 7316 21 female R 3 2 23 self immoralOther J j 1 0.5138 
16-May-2018_15:56:24 7316 21 female R 3 2 24 self moralOther J j 1 0.7160 
16-May-2018_15:56:32 7316 21 female R 3 3 1 self immoralOther J j 1 0.5843 
16-May-2018_15:56:33 7316 21 female R 3 3 2 self immoralSelf H h 1 0.5544 
16-May-2018_15:56:35 7316 21 female R 3 3 3 self immoralSelf H h 1 0.5746 
16-May-2018_15:56:37 7316 21 female R 3 3 4 self immoralOther J j 1 0.5546 
16-May-2018_15:56:39 7316 21 female R 3 3 5 self moralSelf H h 1 0.6008 
16-May-2018_15:56:41 7316 21 female R 3 3 6 self moralSelf H h 1 0.4948 
16-May-2018_15:56:43 7316 21 female R 3 3 7 self moralSelf H h 1 0.4570 
16-May-2018_15:56:45 7316 21 female R 3 3 8 self immoralOther J j 1 0.5050 
16-May-2018_15:56:47 7316 21 female R 3 3 9 self moralSelf H h 1 0.5192 
16-May-2018_15:56:48 7316 21 female R 3 3 10 self moralOther J j 1 0.6034 
16-May-2018_15:56:50 7316 21 female R 3 3 11 self moralOther J j 1 0.5114 
16-May-2018_15:56:52 7316 21 female R 3 3 12 self immoralSelf H h 1 0.6278 
16-May-2018_15:56:54 7316 21 female R 3 3 13 self immoralSelf H h 1 0.4456 
16-May-2018_15:56:55 7316 21 female R 3 3 14 self moralSelf H h 1 0.4837 
16-May-2018_15:56:57 7316 21 female R 3 3 15 self immoralSelf H h 1 0.4818 
16-May-2018_15:56:59 7316 21 female R 3 3 16 self moralOther J j 1 0.6459 
16-May-2018_15:57:01 7316 21 female R 3 3 17 self moralOther J j 1 0.3700 
16-May-2018_15:57:03 7316 21 female R 3 3 18 self immoralOther J j 1 0.5697 
16-May-2018_15:57:05 7316 21 female R 3 3 19 self moralOther J j 1 0.8762 
16-May-2018_15:57:07 7316 21 female R 3 3 20 self moralOther J j 1 0.6364 
16-May-2018_15:57:08 7316 21 female R 3 3 21 self immoralOther J j 1 0.3904 
16-May-2018_15:57:10 7316 21 female R 3 3 22 self immoralOther J j 1 0.3725 
16-May-2018_15:57:12 7316 21 female R 3 3 23 self immoralSelf H h 1 0.5147 
16-May-2018_15:57:14 7316 21 female R 3 3 24 self moralSelf H h 1 0.7187 
16-May-2018_15:57:16 7316 21 female R 3 4 1 self moralOther J j 1 0.7749 
16-May-2018_15:57:18 7316 21 female R 3 4 2 self immoralOther J j 1 0.5510 
16-May-2018_15:57:19 7316 21 female R 3 4 3 self immoralSelf H h 1 0.5550 
16-May-2018_15:57:21 7316 21 female R 3 4 4 self immoralOther J j 1 0.5911 
16-May-2018_15:57:23 7316 21 female R 3 4 5 self immoralSelf H h 1 0.5552 
16-May-2018_15:57:24 7316 21 female R 3 4 6 self moralSelf H h 1 0.4795 
16-May-2018_15:57:26 7316 21 female R 3 4 7 self immoralSelf H h 1 0.5494 
16-May-2018_15:57:28 7316 21 female R 3 4 8 self immoralSelf H h 1 0.4596 
16-May-2018_15:57:30 7316 21 female R 3 4 9 self immoralOther J j 1 0.5357 
16-May-2018_15:57:31 7316 21 female R 3 4 10 self moralSelf H h 1 0.5998 
16-May-2018_15:57:33 7316 21 female R 3 4 11 self immoralSelf H h 1 0.3998 
16-May-2018_15:57:35 7316 21 female R 3 4 12 self moralSelf H h 1 0.4620 
16-May-2018_15:57:37 7316 21 female R 3 4 13 self moralOther J j 1 0.5619 
16-May-2018_15:57:39 7316 21 female R 3 4 14 self immoralOther J j 1 0.4665 
16-May-2018_15:57:40 7316 21 female R 3 4 15 self immoralOther J j 1 0.4009 
16-May-2018_15:57:42 7316 21 female R 3 4 16 self moralOther J j 1 0.5204 
16-May-2018_15:57:44 7316 21 female R 3 4 17 self immoralOther J j 1 0.3924 
16-May-2018_15:57:46 7316 21 female R 3 4 18 self moralSelf H h 1 0.4645 
16-May-2018_15:57:47 7316 21 female R 3 4 19 self moralSelf H h 1 0.5407 
16-May-2018_15:57:49 7316 21 female R 3 4 20 self immoralSelf H h 1 0.5548 
16-May-2018_15:57:51 7316 21 female R 3 4 21 self moralOther J j 1 0.6165 
16-May-2018_15:57:53 7316 21 female R 3 4 22 self moralSelf H h 1 0.5811 
16-May-2018_15:57:55 7316 21 female R 3 4 23 self moralOther J h 0 0.6210 
16-May-2018_15:57:56 7316 21 female R 3 4 24 self moralOther J j 1 0.4452 
16-May-2018_15:58:01 7316 21 female R 3 5 1 self immoralSelf H j 0 0.6574 
16-May-2018_15:58:03 7316 21 female R 3 5 2 self immoralSelf H h 1 0.4955 
16-May-2018_15:58:04 7316 21 female R 3 5 3 self immoralSelf H h 1 0.3897 
16-May-2018_15:58:06 7316 21 female R 3 5 4 self moralSelf H h 1 0.5377 
16-May-2018_15:58:08 7316 21 female R 3 5 5 self immoralOther J j 1 0.4937 
16-May-2018_15:58:10 7316 21 female R 3 5 6 self immoralSelf H h 1 0.5479 
16-May-2018_15:58:12 7316 21 female R 3 5 7 self immoralOther J j 1 0.5480 
16-May-2018_15:58:13 7316 21 female R 3 5 8 self moralSelf H h 1 0.4721 
16-May-2018_15:58:15 7316 21 female R 3 5 9 self moralOther J j 1 0.5923 
16-May-2018_15:58:17 7316 21 female R 3 5 10 self moralOther J j 1 0.4023 
16-May-2018_15:58:19 7316 21 female R 3 5 11 self moralSelf H h 1 0.4504 
16-May-2018_15:58:20 7316 21 female R 3 5 12 self moralSelf H h 1 0.4785 
16-May-2018_15:58:22 7316 21 female R 3 5 13 self immoralSelf H j 0 0.7686 
16-May-2018_15:58:24 7316 21 female R 3 5 14 self moralSelf H h 1 0.5466 
16-May-2018_15:58:26 7316 21 female R 3 5 15 self immoralOther J j 1 0.5888 
16-May-2018_15:58:28 7316 21 female R 3 5 16 self moralOther J j 1 0.5850 
16-May-2018_15:58:30 7316 21 female R 3 5 17 self moralOther J j 1 0.7952 
16-May-2018_15:58:32 7316 21 female R 3 5 18 self immoralOther J j 1 0.5731 
16-May-2018_15:58:34 7316 21 female R 3 5 19 self immoralOther J j 1 0.4212 
16-May-2018_15:58:36 7316 21 female R 3 5 20 self immoralSelf H h 1 0.4814 
16-May-2018_15:58:38 7316 21 female R 3 5 21 self immoralOther J j 1 0.5075 
16-May-2018_15:58:39 7316 21 female R 3 5 22 self moralSelf H h 1 0.6215 
16-May-2018_15:58:41 7316 21 female R 3 5 23 self moralOther J j 1 0.6096 
16-May-2018_15:58:43 7316 21 female R 3 5 24 self moralOther J j 1 0.6318 
Date Sub Age Sex Hand Block Bin Trial Task Shape corrResp Resp ACC RT
16-May-2018_16:01:01 7316 21 female R 4 1 1 moral moralOther Y y 1 0.5677 
16-May-2018_16:01:03 7316 21 female R 4 1 2 moral moralSelf Y y 1 0.5417 
16-May-2018_16:01:05 7316 21 female R 4 1 3 moral moralOther Y y 1 0.6259 
16-May-2018_16:01:07 7316 21 female R 4 1 4 moral immoralOther U u 1 0.5279 
16-May-2018_16:01:09 7316 21 female R 4 1 5 moral immoralSelf U u 1 0.4741 
16-May-2018_16:01:10 7316 21 female R 4 1 6 moral immoralSelf U u 1 0.4781 
16-May-2018_16:01:12 7316 21 female R 4 1 7 moral immoralOther U u 1 0.4963 
16-May-2018_16:01:14 7316 21 female R 4 1 8 moral immoralSelf U u 1 0.4765 
16-May-2018_16:01:16 7316 21 female R 4 1 9 moral immoralOther U u 1 0.4245 
16-May-2018_16:01:18 7316 21 female R 4 1 10 moral moralOther Y u 0 0.5486 
16-May-2018_16:01:19 7316 21 female R 4 1 11 moral immoralSelf U u 1 0.5386 
16-May-2018_16:01:21 7316 21 female R 4 1 12 moral immoralOther U u 1 0.4448 
16-May-2018_16:01:23 7316 21 female R 4 1 13 moral moralSelf Y y 1 0.6409 
16-May-2018_16:01:25 7316 21 female R 4 1 14 moral moralSelf Y y 1 0.4450 
16-May-2018_16:01:26 7316 21 female R 4 1 15 moral immoralSelf U u 1 0.6871 
16-May-2018_16:01:28 7316 21 female R 4 1 16 moral moralOther Y y 1 0.7272 
16-May-2018_16:01:30 7316 21 female R 4 1 17 moral immoralSelf U u 1 0.4874 
16-May-2018_16:01:32 7316 21 female R 4 1 18 moral immoralOther U u 1 0.5614 
16-May-2018_16:01:34 7316 21 female R 4 1 19 moral moralOther Y y 1 0.8316 
16-May-2018_16:01:36 7316 21 female R 4 1 20 moral moralOther Y y 1 0.5536 
16-May-2018_16:01:38 7316 21 female R 4 1 21 moral immoralOther U u 1 0.6337 
16-May-2018_16:01:40 7316 21 female R 4 1 22 moral moralSelf Y y 1 0.6058 
16-May-2018_16:01:41 7316 21 female R 4 1 23 moral moralSelf Y y 1 0.4798 
16-May-2018_16:01:43 7316 21 female R 4 1 24 moral moralSelf Y y 1 0.3900 
16-May-2018_16:01:45 7316 21 female R 4 2 1 moral immoralSelf U u 1 0.6761 
16-May-2018_16:01:47 7316 21 female R 4 2 2 moral immoralSelf U u 1 0.4262 
16-May-2018_16:01:48 7316 21 female R 4 2 3 moral moralOther Y y 1 0.7462 
16-May-2018_16:01:50 7316 21 female R 4 2 4 moral moralSelf Y y 1 0.4884 
16-May-2018_16:01:52 7316 21 female R 4 2 5 moral immoralOther U u 1 0.6525 
16-May-2018_16:01:54 7316 21 female R 4 2 6 moral moralOther Y u 0 0.5247 
16-May-2018_16:01:56 7316 21 female R 4 2 7 moral immoralOther U u 1 0.5427 
16-May-2018_16:01:58 7316 21 female R 4 2 8 moral moralSelf Y y 1 0.5109 
16-May-2018_16:01:59 7316 21 female R 4 2 9 moral immoralOther U u 1 0.6670 
16-May-2018_16:02:01 7316 21 female R 4 2 10 moral moralSelf Y y 1 0.5430 
16-May-2018_16:02:04 7316 21 female R 4 2 11 moral moralOther Y y 1 0.8232 
16-May-2018_16:02:05 7316 21 female R 4 2 12 moral moralSelf Y y 1 0.4893 
16-May-2018_16:02:07 7316 21 female R 4 2 13 moral immoralOther U u 1 0.5534 
16-May-2018_16:02:09 7316 21 female R 4 2 14 moral moralOther Y y 1 0.5295 
16-May-2018_16:02:10 7316 21 female R 4 2 15 moral moralSelf Y y 1 0.5736 
16-May-2018_16:02:12 7316 21 female R 4 2 16 moral immoralSelf U u 1 0.6577 
16-May-2018_16:02:14 7316 21 female R 4 2 17 moral immoralSelf U u 1 0.4818 
16-May-2018_16:02:16 7316 21 female R 4 2 18 moral moralOther Y y 1 0.5519 
16-May-2018_16:02:17 7316 21 female R 4 2 19 moral moralSelf Y y 1 0.4820 
16-May-2018_16:02:19 7316 21 female R 4 2 20 moral moralOther Y y 1 0.5361 
16-May-2018_16:02:21 7316 21 female R 4 2 21 moral immoralOther U u 1 0.5902 
16-May-2018_16:02:23 7316 21 female R 4 2 22 moral immoralSelf U y 0 0.6003 
16-May-2018_16:02:25 7316 21 female R 4 2 23 moral immoralSelf U y 0 0.6964 
16-May-2018_16:02:27 7316 21 female R 4 2 24 moral immoralOther U u 1 0.5485 
16-May-2018_16:02:30 7316 21 female R 4 3 1 moral moralSelf Y y 1 0.5567 
16-May-2018_16:02:31 7316 21 female R 4 3 2 moral immoralOther U u 1 0.5348 
16-May-2018_16:02:33 7316 21 female R 4 3 3 moral immoralSelf U u 1 0.6628 
16-May-2018_16:02:35 7316 21 female R 4 3 4 moral moralOther Y y 1 0.5810 
16-May-2018_16:02:37 7316 21 female R 4 3 5 moral moralSelf Y y 1 0.5171 
16-May-2018_16:02:39 7316 21 female R 4 3 6 moral immoralSelf U u 1 0.5892 
16-May-2018_16:02:41 7316 21 female R 4 3 7 moral moralSelf Y y 1 0.4813 
16-May-2018_16:02:42 7316 21 female R 4 3 8 moral moralOther Y y 1 0.5315 
16-May-2018_16:02:44 7316 21 female R 4 3 9 moral moralOther Y y 1 0.5215 
16-May-2018_16:02:46 7316 21 female R 4 3 10 moral immoralSelf U u 1 0.5456 
16-May-2018_16:02:48 7316 21 female R 4 3 11 moral moralOther Y u 0 0.5438 
16-May-2018_16:02:50 7316 21 female R 4 3 12 moral moralSelf Y y 1 0.6779 
16-May-2018_16:02:51 7316 21 female R 4 3 13 moral immoralSelf U u 1 0.5579 
16-May-2018_16:02:53 7316 21 female R 4 3 14 moral immoralOther U u 1 0.3800 
16-May-2018_16:02:55 7316 21 female R 4 3 15 moral immoralOther U u 1 0.4861 
16-May-2018_16:02:57 7316 21 female R 4 3 16 moral moralSelf Y y 1 0.6242 
16-May-2018_16:02:58 7316 21 female R 4 3 17 moral moralOther Y y 1 0.4383 
16-May-2018_16:03:00 7316 21 female R 4 3 18 moral moralOther Y y 1 0.5064 
16-May-2018_16:03:02 7316 21 female R 4 3 19 moral moralSelf Y y 1 0.5584 
16-May-2018_16:03:03 7316 21 female R 4 3 20 moral immoralSelf U u 1 0.8026 
16-May-2018_16:03:05 7316 21 female R 4 3 21 moral immoralSelf U u 1 0.4707 
16-May-2018_16:03:07 7316 21 female R 4 3 22 moral immoralOther U u 1 0.4868 
16-May-2018_16:03:09 7316 21 female R 4 3 23 moral immoralOther U u 1 0.4309 
16-May-2018_16:03:11 7316 21 female R 4 3 24 moral immoralOther U u 1 0.4770 
16-May-2018_16:03:12 7316 21 female R 4 4 1 moral immoralOther U u 1 0.4472 
16-May-2018_16:03:14 7316 21 female R 4 4 2 moral moralSelf Y y 1 0.5391 
16-May-2018_16:03:15 7316 21 female R 4 4 3 moral moralOther Y y 1 0.6273 
16-May-2018_16:03:17 7316 21 female R 4 4 4 moral immoralOther U u 1 0.5294 
16-May-2018_16:03:19 7316 21 female R 4 4 5 moral moralOther Y y 1 0.6595 
16-May-2018_16:03:21 7316 21 female R 4 4 6 moral moralSelf Y y 1 0.5075 
16-May-2018_16:03:23 7316 21 female R 4 4 7 moral moralSelf Y y 1 0.4536 
16-May-2018_16:03:24 7316 21 female R 4 4 8 moral immoralOther U u 1 0.5338 
16-May-2018_16:03:26 7316 21 female R 4 4 9 moral moralOther Y y 1 0.5078 
16-May-2018_16:03:28 7316 21 female R 4 4 10 moral moralOther Y y 1 0.5300 
16-May-2018_16:03:30 7316 21 female R 4 4 11 moral immoralOther U u 1 0.6321 
16-May-2018_16:03:31 7316 21 female R 4 4 12 moral immoralOther U u 1 0.4783 
16-May-2018_16:03:33 7316 21 female R 4 4 13 moral moralSelf Y y 1 0.4942 
16-May-2018_16:03:35 7316 21 female R 4 4 14 moral moralSelf Y y 1 0.4403 
16-May-2018_16:03:37 7316 21 female R 4 4 15 moral immoralSelf U u 1 0.7125 
16-May-2018_16:03:39 7316 21 female R 4 4 16 moral immoralSelf U u 1 0.4426 
16-May-2018_16:03:41 7316 21 female R 4 4 17 moral immoralSelf U u 1 0.6588 
16-May-2018_16:03:43 7316 21 female R 4 4 18 moral immoralSelf U u 1 0.5428 
16-May-2018_16:03:44 7316 21 female R 4 4 19 moral moralOther Y y 1 0.5649 
16-May-2018_16:03:46 7316 21 female R 4 4 20 moral moralOther Y y 1 0.3870 
16-May-2018_16:03:48 7316 21 female R 4 4 21 moral immoralOther U u 1 0.5511 
16-May-2018_16:03:49 7316 21 female R 4 4 22 moral immoralSelf U y 0 0.5272 
16-May-2018_16:03:51 7316 21 female R 4 4 23 moral moralSelf Y y 1 0.6473 
16-May-2018_16:03:53 7316 21 female R 4 4 24 moral immoralSelf U u 1 0.4235 
16-May-2018_16:03:57 7316 21 female R 4 5 1 moral immoralOther U u 1 0.5796 
16-May-2018_16:03:59 7316 21 female R 4 5 2 moral immoralSelf U u 1 0.5478 
16-May-2018_16:04:00 7316 21 female R 4 5 3 moral moralOther Y y 1 0.6137 
16-May-2018_16:04:02 7316 21 female R 4 5 4 moral immoralOther U u 1 0.6279 
16-May-2018_16:04:04 7316 21 female R 4 5 5 moral moralSelf Y y 1 0.4640 
16-May-2018_16:04:06 7316 21 female R 4 5 6 moral moralSelf Y y 1 0.5622 
16-May-2018_16:04:08 7316 21 female R 4 5 7 moral immoralOther U y 0 0.5402 
16-May-2018_16:04:10 7316 21 female R 4 5 8 moral moralSelf Y y 1 0.5724 
16-May-2018_16:04:11 7316 21 female R 4 5 9 moral immoralOther U u 1 0.4944 
16-May-2018_16:04:13 7316 21 female R 4 5 10 moral immoralOther U u 1 0.3785 
16-May-2018_16:04:14 7316 21 female R 4 5 11 moral immoralSelf U y 0 0.5467 
16-May-2018_16:04:16 7316 21 female R 4 5 12 moral moralSelf Y y 1 0.5647 
16-May-2018_16:04:18 7316 21 female R 4 5 13 moral moralSelf Y y 1 0.4149 
16-May-2018_16:04:20 7316 21 female R 4 5 14 moral moralSelf Y y 1 0.5389 
16-May-2018_16:04:21 7316 21 female R 4 5 15 moral immoralSelf U u 1 0.5311 
16-May-2018_16:04:23 7316 21 female R 4 5 16 moral moralOther Y y 1 0.6591 
16-May-2018_16:04:26 7316 21 female R 4 5 17 moral moralOther Y y 1 0.9092 
16-May-2018_16:04:27 7316 21 female R 4 5 18 moral moralOther Y y 1 0.4694 
16-May-2018_16:04:29 7316 21 female R 4 5 19 moral moralOther Y y 1 0.4215 
16-May-2018_16:04:30 7316 21 female R 4 5 20 moral immoralSelf U u 1 0.5896 
16-May-2018_16:04:33 7316 21 female R 4 5 21 moral immoralOther U u 1 0.7436 
16-May-2018_16:04:34 7316 21 female R 4 5 22 moral immoralSelf U u 1 0.5698 
16-May-2018_16:04:36 7316 21 female R 4 5 23 moral immoralSelf U u 1 0.4679 
16-May-2018_16:04:38 7316 21 female R 4 5 24 moral moralOther Y y 1 0.8499 
Date Sub Age Sex Hand Block Bin Trial Task Shape corrResp Resp ACC RT
16-May-2018_16:06:54 7316 21 female R 5 1 1 moral immoralSelf U u 1 0.8136 
16-May-2018_16:06:56 7316 21 female R 5 1 2 moral immoralOther U u 1 0.5577 
16-May-2018_16:06:58 7316 21 female R 5 1 3 moral immoralOther U u 1 0.4459 
16-May-2018_16:06:59 7316 21 female R 5 1 4 moral immoralOther U u 1 0.4079 
16-May-2018_16:07:01 7316 21 female R 5 1 5 moral moralOther Y y 1 0.6180 
16-May-2018_16:07:03 7316 21 female R 5 1 6 moral immoralOther U u 1 0.5342 
16-May-2018_16:07:05 7316 21 female R 5 1 7 moral moralOther Y y 1 0.4763 
16-May-2018_16:07:07 7316 21 female R 5 1 8 moral moralSelf Y y 1 0.5505 
16-May-2018_16:07:08 7316 21 female R 5 1 9 moral immoralOther U u 1 0.4705 
16-May-2018_16:07:10 7316 21 female R 5 1 10 moral immoralSelf U u 1 0.4527 
16-May-2018_16:07:12 7316 21 female R 5 1 11 moral moralSelf Y y 1 0.6167 
16-May-2018_16:07:14 7316 21 female R 5 1 12 moral immoralSelf U u 1 0.5768 
16-May-2018_16:07:16 7316 21 female R 5 1 13 moral immoralSelf U u 1 0.4889 
16-May-2018_16:07:17 7316 21 female R 5 1 14 moral immoralSelf U u 1 0.4301 
16-May-2018_16:07:19 7316 21 female R 5 1 15 moral moralSelf Y y 1 0.6651 
16-May-2018_16:07:21 7316 21 female R 5 1 16 moral moralOther Y y 1 0.7191 
16-May-2018_16:07:23 7316 21 female R 5 1 17 moral immoralSelf U y 0 0.5512 
16-May-2018_16:07:25 7316 21 female R 5 1 18 moral moralSelf Y y 1 0.6014 
16-May-2018_16:07:26 7316 21 female R 5 1 19 moral immoralOther U u 1 0.5256 
16-May-2018_16:07:28 7316 21 female R 5 1 20 moral moralOther Y y 1 0.6516 
16-May-2018_16:07:30 7316 21 female R 5 1 21 moral moralOther Y y 1 0.5557 
16-May-2018_16:07:32 7316 21 female R 5 1 22 moral moralSelf Y y 1 0.6358 
16-May-2018_16:07:34 7316 21 female R 5 1 23 moral moralSelf Y y 1 0.5780 
16-May-2018_16:07:36 7316 21 female R 5 1 24 moral moralOther Y y 1 0.6060 
16-May-2018_16:07:38 7316 21 female R 5 2 1 moral moralOther Y y 1 0.4823 
16-May-2018_16:07:39 7316 21 female R 5 2 2 moral immoralOther U u 1 0.6282 
16-May-2018_16:07:41 7316 21 female R 5 2 3 moral immoralOther U u 1 0.4704 
16-May-2018_16:07:43 7316 21 female R 5 2 4 moral immoralSelf U u 1 0.6785 
16-May-2018_16:07:45 7316 21 female R 5 2 5 moral immoralSelf U u 1 0.5786 
16-May-2018_16:07:47 7316 21 female R 5 2 6 moral moralSelf Y y 1 0.6546 
16-May-2018_16:07:49 7316 21 female R 5 2 7 moral moralSelf Y y 1 0.4327 
16-May-2018_16:07:50 7316 21 female R 5 2 8 moral immoralOther U u 1 0.5229 
16-May-2018_16:07:52 7316 21 female R 5 2 9 moral moralSelf Y y 1 0.5530 
16-May-2018_16:07:54 7316 21 female R 5 2 10 moral immoralOther U u 1 0.6511 
16-May-2018_16:07:56 7316 21 female R 5 2 11 moral moralSelf Y y 1 0.4712 
16-May-2018_16:07:58 7316 21 female R 5 2 12 moral moralSelf Y y 1 0.4693 
16-May-2018_16:08:00 7316 21 female R 5 2 13 moral immoralOther U u 1 0.5414 
16-May-2018_16:08:01 7316 21 female R 5 2 14 moral moralSelf Y y 1 0.4815 
16-May-2018_16:08:03 7316 21 female R 5 2 15 moral moralOther Y y 1 0.6736 
16-May-2018_16:08:05 7316 21 female R 5 2 16 moral immoralSelf U u 1 0.5637 
16-May-2018_16:08:07 7316 21 female R 5 2 17 moral moralOther Y y 1 0.6898 
16-May-2018_16:08:09 7316 21 female R 5 2 18 moral moralOther Y y 1 0.4559 
16-May-2018_16:08:11 7316 21 female R 5 2 19 moral moralOther Y y 1 0.5700 
16-May-2018_16:08:13 7316 21 female R 5 2 20 moral immoralOther U u 1 0.7342 
16-May-2018_16:08:15 7316 21 female R 5 2 21 moral immoralSelf U u 1 0.7262 
16-May-2018_16:08:16 7316 21 female R 5 2 22 moral immoralSelf U u 1 0.4524 
16-May-2018_16:08:18 7316 21 female R 5 2 23 moral immoralSelf U u 1 0.4465 
16-May-2018_16:08:20 7316 21 female R 5 2 24 moral moralOther Y y 1 0.7086 
16-May-2018_16:08:25 7316 21 female R 5 3 1 moral moralOther Y y 1 0.8188 
16-May-2018_16:08:27 7316 21 female R 5 3 2 moral immoralOther U u 1 0.4889 
16-May-2018_16:08:28 7316 21 female R 5 3 3 moral moralOther Y y 1 0.4951 
16-May-2018_16:08:31 7316 21 female R 5 3 4 moral immoralSelf U u 1 0.7272 
16-May-2018_16:08:33 7316 21 female R 5 3 5 moral moralOther Y y 1 0.6053 
16-May-2018_16:08:34 7316 21 female R 5 3 6 moral immoralOther U u 1 0.5114 
16-May-2018_16:08:36 7316 21 female R 5 3 7 moral immoralOther U u 1 0.6295 
16-May-2018_16:08:38 7316 21 female R 5 3 8 moral moralSelf Y y 1 0.4696 
16-May-2018_16:08:40 7316 21 female R 5 3 9 moral moralSelf Y y 1 0.5357 
16-May-2018_16:08:42 7316 21 female R 5 3 10 moral moralSelf Y y 1 0.3538 
16-May-2018_16:08:44 7316 21 female R 5 3 11 moral immoralSelf U u 1 0.5659 
16-May-2018_16:08:45 7316 21 female R 5 3 12 moral immoralOther U u 1 0.5320 
16-May-2018_16:08:47 7316 21 female R 5 3 13 moral moralOther Y y 1 0.8781 
16-May-2018_16:08:49 7316 21 female R 5 3 14 moral immoralSelf U u 1 0.5863 
16-May-2018_16:08:51 7316 21 female R 5 3 15 moral immoralOther U u 1 0.5883 
16-May-2018_16:08:53 7316 21 female R 5 3 16 moral moralOther Y y 1 0.6184 
16-May-2018_16:08:55 7316 21 female R 5 3 17 moral moralSelf Y y 1 0.6065 
16-May-2018_16:08:57 7316 21 female R 5 3 18 moral moralOther Y y 1 0.5926 
16-May-2018_16:08:59 7316 21 female R 5 3 19 moral moralSelf Y y 1 0.5467 
16-May-2018_16:09:00 7316 21 female R 5 3 20 moral immoralSelf U u 1 0.6285 
16-May-2018_16:09:02 7316 21 female R 5 3 21 moral immoralOther U u 1 0.6032 
16-May-2018_16:09:04 7316 21 female R 5 3 22 moral immoralSelf U u 1 0.5871 
16-May-2018_16:09:06 7316 21 female R 5 3 23 moral immoralSelf U u 1 0.4932 
16-May-2018_16:09:08 7316 21 female R 5 3 24 moral moralSelf Y y 1 0.5674 
16-May-2018_16:09:10 7316 21 female R 5 4 1 moral immoralOther U u 1 0.8874 
16-May-2018_16:09:12 7316 21 female R 5 4 2 moral immoralOther U u 1 0.4975 
16-May-2018_16:09:14 7316 21 female R 5 4 3 moral moralOther Y y 1 0.7716 
16-May-2018_16:09:16 7316 21 female R 5 4 4 moral moralOther Y y 1 0.5037 
16-May-2018_16:09:17 7316 21 female R 5 4 5 moral immoralSelf U u 1 0.7362 
16-May-2018_16:09:19 7316 21 female R 5 4 6 moral moralOther Y y 1 0.7059 
16-May-2018_16:09:22 7316 21 female R 5 4 7 moral moralSelf Y y 1 0.7920 
16-May-2018_16:09:23 7316 21 female R 5 4 8 moral immoralSelf U u 1 0.4982 
16-May-2018_16:09:25 7316 21 female R 5 4 9 moral immoralSelf U u 1 0.4902 
16-May-2018_16:09:27 7316 21 female R 5 4 10 moral moralSelf Y y 1 0.6204 
16-May-2018_16:09:29 7316 21 female R 5 4 11 moral moralOther Y y 1 0.7965 
16-May-2018_16:09:31 7316 21 female R 5 4 12 moral immoralOther U u 1 0.6226 
16-May-2018_16:09:33 7316 21 female R 5 4 13 moral moralSelf Y y 1 0.6168 
16-May-2018_16:09:35 7316 21 female R 5 4 14 moral immoralOther U u 1 0.5768 
16-May-2018_16:09:37 7316 21 female R 5 4 15 moral immoralSelf U u 1 0.7391 
16-May-2018_16:09:38 7316 21 female R 5 4 16 moral immoralOther U u 1 0.5030 
16-May-2018_16:09:40 7316 21 female R 5 4 17 moral immoralSelf U u 1 0.5691 
16-May-2018_16:09:42 7316 21 female R 5 4 18 moral moralSelf Y y 1 0.5192 
16-May-2018_16:09:44 7316 21 female R 5 4 19 moral immoralSelf U y 0 0.8434 
16-May-2018_16:09:46 7316 21 female R 5 4 20 moral moralOther Y y 1 0.7973 
16-May-2018_16:09:48 7316 21 female R 5 4 21 moral immoralOther U u 1 0.4935 
16-May-2018_16:09:50 7316 21 female R 5 4 22 moral moralOther Y y 1 0.6356 
16-May-2018_16:09:52 7316 21 female R 5 4 23 moral moralSelf Y y 1 0.6518 
16-May-2018_16:09:54 7316 21 female R 5 4 24 moral moralSelf Y y 1 0.5279 
16-May-2018_16:10:05 7316 21 female R 5 5 1 moral moralSelf Y y 1 0.4565 
16-May-2018_16:10:07 7316 21 female R 5 5 2 moral moralOther Y y 1 0.3687 
16-May-2018_16:10:09 7316 21 female R 5 5 3 moral immoralOther U u 1 0.4947 
16-May-2018_16:10:10 7316 21 female R 5 5 4 moral moralSelf Y y 1 0.4328 
16-May-2018_16:10:12 7316 21 female R 5 5 5 moral immoralOther U u 1 0.5769 
16-May-2018_16:10:14 7316 21 female R 5 5 6 moral moralSelf Y y 1 0.5810 
16-May-2018_16:10:16 7316 21 female R 5 5 7 moral immoralSelf U u 1 0.5111 
16-May-2018_16:10:18 7316 21 female R 5 5 8 moral immoralOther U u 1 0.5811 
16-May-2018_16:10:20 7316 21 female R 5 5 9 moral immoralSelf U u 1 0.4551 
16-May-2018_16:10:22 7316 21 female R 5 5 10 moral immoralOther U u 1 0.4994 
16-May-2018_16:10:23 7316 21 female R 5 5 11 moral moralOther Y y 1 0.6896 
16-May-2018_16:10:25 7316 21 female R 5 5 12 moral moralSelf Y y 1 0.8836 
16-May-2018_16:10:28 7316 21 female R 5 5 13 moral moralOther Y y 1 0.7179 
16-May-2018_16:10:30 7316 21 female R 5 5 14 moral immoralSelf U u 1 0.5419 
16-May-2018_16:10:31 7316 21 female R 5 5 15 moral immoralOther U u 1 0.5400 
16-May-2018_16:10:33 7316 21 female R 5 5 16 moral moralOther Y y 1 0.6038 
16-May-2018_16:10:35 7316 21 female R 5 5 17 moral immoralSelf U y 0 0.5722 
16-May-2018_16:10:37 7316 21 female R 5 5 18 moral immoralOther U u 1 0.5424 
16-May-2018_16:10:39 7316 21 female R 5 5 19 moral immoralSelf U u 1 0.5984 
16-May-2018_16:10:41 7316 21 female R 5 5 20 moral moralOther Y y 1 0.6006 
16-May-2018_16:10:43 7316 21 female R 5 5 21 moral moralSelf Y y 1 0.6307 
16-May-2018_16:10:44 7316 21 female R 5 5 22 moral moralSelf Y y 1 0.5308 
16-May-2018_16:10:46 7316 21 female R 5 5 23 moral moralOther Y y 1 0.5849 
16-May-2018_16:10:48 7316 21 female R 5 5 24 moral immoralSelf U u 1 0.4070 
Date Sub Age Sex Hand Block Bin Trial Task Shape corrResp Resp ACC RT
16-May-2018_16:13:04 7316 21 female R 6 1 1 self moralSelf H h 1 0.4827 
16-May-2018_16:13:05 7316 21 female R 6 1 2 self immoralSelf H h 1 0.5127 
16-May-2018_16:13:07 7316 21 female R 6 1 3 self immoralSelf H h 1 0.4548 
16-May-2018_16:13:09 7316 21 female R 6 1 4 self immoralSelf H h 1 0.4250 
16-May-2018_16:13:11 7316 21 female R 6 1 5 self moralSelf H h 1 0.6250 
16-May-2018_16:13:12 7316 21 female R 6 1 6 self moralSelf H h 1 0.4052 
16-May-2018_16:13:14 7316 21 female R 6 1 7 self immoralOther J j 1 0.4732 
16-May-2018_16:13:16 7316 21 female R 6 1 8 self moralOther J j 1 0.4974 
16-May-2018_16:13:17 7316 21 female R 6 1 9 self moralOther J j 1 0.4095 
16-May-2018_16:13:19 7316 21 female R 6 1 10 self moralOther J j 1 0.4376 
16-May-2018_16:13:21 7316 21 female R 6 1 11 self immoralOther J j 1 0.5717 
16-May-2018_16:13:23 7316 21 female R 6 1 12 self moralOther J j 1 0.4498 
16-May-2018_16:13:25 7316 21 female R 6 1 13 self moralSelf H h 1 0.6478 
16-May-2018_16:13:26 7316 21 female R 6 1 14 self moralSelf H h 1 0.4599 
16-May-2018_16:13:28 7316 21 female R 6 1 15 self immoralSelf H h 1 0.4681 
16-May-2018_16:13:30 7316 21 female R 6 1 16 self moralSelf H h 1 0.4482 
16-May-2018_16:13:32 7316 21 female R 6 1 17 self immoralOther J j 1 0.5303 
16-May-2018_16:13:34 7316 21 female R 6 1 18 self immoralSelf H j 0 0.5824 
16-May-2018_16:13:36 7316 21 female R 6 1 19 self immoralOther J j 1 0.9079 
16-May-2018_16:13:37 7316 21 female R 6 1 20 self immoralOther J j 1 0.4946 
16-May-2018_16:13:39 7316 21 female R 6 1 21 self immoralSelf H h 1 0.4768 
16-May-2018_16:13:41 7316 21 female R 6 1 22 self moralOther J j 1 0.8488 
16-May-2018_16:13:43 7316 21 female R 6 1 23 self moralOther J j 1 0.5690 
16-May-2018_16:13:45 7316 21 female R 6 1 24 self immoralOther J j 1 0.5210 
16-May-2018_16:13:47 7316 21 female R 6 2 1 self moralSelf H h 1 0.6071 
16-May-2018_16:13:49 7316 21 female R 6 2 2 self moralOther J h 0 0.5272 
16-May-2018_16:13:51 7316 21 female R 6 2 3 self moralOther J j 1 0.7413 
16-May-2018_16:13:53 7316 21 female R 6 2 4 self immoralSelf H h 1 0.7675 
16-May-2018_16:13:55 7316 21 female R 6 2 5 self moralSelf H h 1 0.7196 
16-May-2018_16:13:56 7316 21 female R 6 2 6 self immoralOther J j 1 0.5137 
16-May-2018_16:13:58 7316 21 female R 6 2 7 self immoralSelf H h 1 0.8018 
16-May-2018_16:14:00 7316 21 female R 6 2 8 self moralOther J j 1 0.8159 
16-May-2018_16:14:02 7316 21 female R 6 2 9 self immoralOther J j 1 0.6960 
16-May-2018_16:14:04 7316 21 female R 6 2 10 self immoralOther J j 1 0.5021 
16-May-2018_16:14:06 7316 21 female R 6 2 11 self immoralSelf H h 1 0.7283 
16-May-2018_16:14:08 7316 21 female R 6 2 12 self moralOther J j 1 0.5563 
16-May-2018_16:14:10 7316 21 female R 6 2 13 self moralOther J j 1 0.5585 
16-May-2018_16:14:12 7316 21 female R 6 2 14 self immoralSelf H h 1 0.6665 
16-May-2018_16:14:14 7316 21 female R 6 2 15 self immoralSelf H h 1 0.4954 
16-May-2018_16:14:16 7316 21 female R 6 2 16 self moralSelf H h 1 0.5327 
16-May-2018_16:14:17 7316 21 female R 6 2 17 self moralSelf H h 1 0.4948 
16-May-2018_16:14:19 7316 21 female R 6 2 18 self immoralOther J j 1 0.6589 
16-May-2018_16:14:21 7316 21 female R 6 2 19 self moralSelf H h 1 0.7051 
16-May-2018_16:14:23 7316 21 female R 6 2 20 self immoralOther J j 1 0.4971 
16-May-2018_16:14:25 7316 21 female R 6 2 21 self moralOther J h 0 0.6432 
16-May-2018_16:14:27 7316 21 female R 6 2 22 self immoralOther J j 1 0.9094 
16-May-2018_16:14:29 7316 21 female R 6 2 23 self moralSelf H h 1 0.5415 
16-May-2018_16:14:31 7316 21 female R 6 2 24 self immoralSelf H j 0 0.9338 
16-May-2018_16:14:40 7316 21 female R 6 3 1 self moralOther J j 1 0.6221 
16-May-2018_16:14:41 7316 21 female R 6 3 2 self immoralOther J j 1 0.4702 
16-May-2018_16:14:43 7316 21 female R 6 3 3 self immoralOther J j 1 0.6360 
16-May-2018_16:14:45 7316 21 female R 6 3 4 self moralSelf H h 1 0.5345 
16-May-2018_16:14:47 7316 21 female R 6 3 5 self immoralSelf H h 1 0.3225 
16-May-2018_16:14:49 7316 21 female R 6 3 6 self immoralOther J h 0 0.5006 
16-May-2018_16:14:50 7316 21 female R 6 3 7 self immoralOther J j 1 0.3827 
16-May-2018_16:14:52 7316 21 female R 6 3 8 self immoralOther J j 1 0.4069 
16-May-2018_16:14:54 7316 21 female R 6 3 9 self immoralSelf H j 0 0.6909 
16-May-2018_16:14:56 7316 21 female R 6 3 10 self moralSelf H h 1 0.5210 
16-May-2018_16:14:58 7316 21 female R 6 3 11 self moralOther J j 1 0.6431 
16-May-2018_16:14:59 7316 21 female R 6 3 12 self moralOther J j 1 0.4212 
16-May-2018_16:15:01 7316 21 female R 6 3 13 self moralSelf H h 1 0.5653 
16-May-2018_16:15:03 7316 21 female R 6 3 14 self immoralSelf H h 1 1.0194 
16-May-2018_16:15:05 7316 21 female R 6 3 15 self immoralOther J j 1 0.5515 
16-May-2018_16:15:07 7316 21 female R 6 3 16 self immoralSelf H h 1 0.6557 
16-May-2018_16:15:09 7316 21 female R 6 3 17 self moralSelf H h 1 0.7817 
16-May-2018_16:15:11 7316 21 female R 6 3 18 self moralOther J j 1 0.6539 
16-May-2018_16:15:13 7316 21 female R 6 3 19 self moralSelf H h 1 0.5842 
16-May-2018_16:15:15 7316 21 female R 6 3 20 self moralSelf H h 1 0.4561 
16-May-2018_16:15:17 7316 21 female R 6 3 21 self moralOther J j 1 0.7603 
16-May-2018_16:15:19 7316 21 female R 6 3 22 self immoralSelf H h 1 0.7043 
16-May-2018_16:15:21 7316 21 female R 6 3 23 self moralOther J j 1 0.6624 
16-May-2018_16:15:23 7316 21 female R 6 3 24 self immoralSelf H h 1 0.8625 
16-May-2018_16:15:25 7316 21 female R 6 4 1 self moralOther J j 1 0.8707 
16-May-2018_16:15:27 7316 21 female R 6 4 2 self moralSelf H h 1 0.6208 
16-May-2018_16:15:29 7316 21 female R 6 4 3 self immoralOther J j 1 0.6490 
16-May-2018_16:15:31 7316 21 female R 6 4 4 self immoralOther J j 1 0.4890 
16-May-2018_16:15:33 7316 21 female R 6 4 5 self immoralSelf H h 1 0.8671 
16-May-2018_16:15:35 7316 21 female R 6 4 6 self immoralSelf H h 1 0.4493 
16-May-2018_16:15:36 7316 21 female R 6 4 7 self immoralSelf H h 1 0.4974 
16-May-2018_16:15:38 7316 21 female R 6 4 8 self immoralOther J j 1 0.4934 
16-May-2018_16:15:41 7316 21 female R 6 4 9 self moralOther J NA -1 1.0849 
16-May-2018_16:15:43 7316 21 female R 6 4 10 self moralOther J j 1 0.7817 
16-May-2018_16:15:44 7316 21 female R 6 4 11 self moralOther J j 1 0.4458 
16-May-2018_16:15:46 7316 21 female R 6 4 12 self immoralOther J j 1 0.6719 
16-May-2018_16:15:48 7316 21 female R 6 4 13 self moralSelf H h 1 0.5480 
16-May-2018_16:15:50 7316 21 female R 6 4 14 self moralSelf H h 1 0.4661 
16-May-2018_16:15:51 7316 21 female R 6 4 15 self moralSelf H h 1 0.6842 
16-May-2018_16:15:53 7316 21 female R 6 4 16 self moralOther J j 1 0.5283 
16-May-2018_16:15:55 7316 21 female R 6 4 17 self moralSelf H h 1 0.5744 
16-May-2018_16:15:57 7316 21 female R 6 4 18 self immoralOther J j 1 0.5765 
16-May-2018_16:15:59 7316 21 female R 6 4 19 self immoralSelf H h 1 0.6146 
16-May-2018_16:16:00 7316 21 female R 6 4 20 self moralOther J j 1 0.6047 
16-May-2018_16:16:02 7316 21 female R 6 4 21 self immoralSelf H h 1 0.7428 
16-May-2018_16:16:04 7316 21 female R 6 4 22 self moralSelf H h 1 0.5534 
16-May-2018_16:16:06 7316 21 female R 6 4 23 self immoralOther J j 1 0.5490 
16-May-2018_16:16:08 7316 21 female R 6 4 24 self immoralSelf H j 0 0.7951 
16-May-2018_16:16:14 7316 21 female R 6 5 1 self moralSelf H h 1 0.7655 
16-May-2018_16:16:16 7316 21 female R 6 5 2 self immoralOther J j 1 0.5836 
16-May-2018_16:16:18 7316 21 female R 6 5 3 self moralSelf H h 1 0.5837 
16-May-2018_16:16:20 7316 21 female R 6 5 4 self moralSelf H h 1 0.4959 
16-May-2018_16:16:22 7316 21 female R 6 5 5 self immoralSelf H h 1 0.7399 
16-May-2018_16:16:24 7316 21 female R 6 5 6 self immoralSelf H h 1 0.4881 
16-May-2018_16:16:26 7316 21 female R 6 5 7 self moralOther J j 1 0.8382 
16-May-2018_16:16:28 7316 21 female R 6 5 8 self immoralSelf H h 1 0.5923 
16-May-2018_16:16:30 7316 21 female R 6 5 9 self immoralOther J j 1 0.6064 
16-May-2018_16:16:32 7316 21 female R 6 5 10 self immoralSelf H h 1 0.5765 
16-May-2018_16:16:34 7316 21 female R 6 5 11 self immoralOther J j 1 0.4986 
16-May-2018_16:16:36 7316 21 female R 6 5 12 self immoralOther J j 1 0.5267 
16-May-2018_16:16:38 7316 21 female R 6 5 13 self moralSelf H h 1 0.5450 
16-May-2018_16:16:40 7316 21 female R 6 5 14 self immoralOther J j 1 0.6149 
16-May-2018_16:16:42 7316 21 female R 6 5 15 self moralOther J j 1 0.7131 
16-May-2018_16:16:43 7316 21 female R 6 5 16 self immoralSelf H h 1 0.5312 
16-May-2018_16:16:45 7316 21 female R 6 5 17 self moralSelf H h 1 0.5372 
16-May-2018_16:16:47 7316 21 female R 6 5 18 self moralOther J j 1 1.0273 
16-May-2018_16:16:49 7316 21 female R 6 5 19 self immoralSelf H h 1 0.7056 
16-May-2018_16:16:51 7316 21 female R 6 5 20 self moralOther J j 1 0.7177 
16-May-2018_16:16:53 7316 21 female R 6 5 21 self moralSelf H h 1 0.5242 
16-May-2018_16:16:55 7316 21 female R 6 5 22 self immoralOther J j 1 0.4799 
16-May-2018_16:16:57 7316 21 female R 6 5 23 self moralOther J h 0 0.5659 
16-May-2018_16:16:59 7316 21 female R 6 5 24 self moralOther J j 1 0.4940 
