Date Sub Age Sex Hand Block Bin Trial Task Shape corrResp Resp ACC RT
03-Jun-2018_14:08:54 7339 18 male R 1 1 1 moral moralSelf Y y 1 0.7804 
03-Jun-2018_14:08:56 7339 18 male R 1 1 2 moral immoralOther U u 1 0.8098 
03-Jun-2018_14:08:57 7339 18 male R 1 1 3 moral immoralOther U u 1 0.4814 
03-Jun-2018_14:08:59 7339 18 male R 1 1 4 moral moralOther Y y 1 0.8801 
03-Jun-2018_14:09:01 7339 18 male R 1 1 5 moral moralOther Y y 1 0.4863 
03-Jun-2018_14:09:02 7339 18 male R 1 1 6 moral immoralOther U u 1 0.4858 
03-Jun-2018_14:09:04 7339 18 male R 1 1 7 moral immoralOther U u 1 0.5165 
03-Jun-2018_14:09:06 7339 18 male R 1 1 8 moral moralSelf Y y 1 0.6073 
03-Jun-2018_14:09:08 7339 18 male R 1 1 9 moral immoralOther U u 1 0.4846 
03-Jun-2018_14:09:10 7339 18 male R 1 1 10 moral immoralSelf U u 1 0.7906 
03-Jun-2018_14:09:11 7339 18 male R 1 1 11 moral moralSelf Y y 1 0.5629 
03-Jun-2018_14:09:14 7339 18 male R 1 1 12 moral moralOther Y y 1 1.0476 
03-Jun-2018_14:09:16 7339 18 male R 1 1 13 moral moralOther Y y 1 0.8566 
03-Jun-2018_14:09:17 7339 18 male R 1 1 14 moral immoralOther U u 1 0.4248 
03-Jun-2018_14:09:19 7339 18 male R 1 1 15 moral immoralSelf U u 1 0.5937 
03-Jun-2018_14:09:21 7339 18 male R 1 1 16 moral immoralSelf U u 1 0.5595 
03-Jun-2018_14:09:22 7339 18 male R 1 1 17 moral moralSelf Y y 1 0.5864 
03-Jun-2018_14:09:24 7339 18 male R 1 1 18 moral moralSelf Y y 1 0.4298 
03-Jun-2018_14:09:25 7339 18 male R 1 1 19 moral immoralSelf U u 1 0.5673 
03-Jun-2018_14:09:27 7339 18 male R 1 1 20 moral moralOther Y y 1 0.4859 
03-Jun-2018_14:09:29 7339 18 male R 1 1 21 moral moralOther Y y 1 0.5203 
03-Jun-2018_14:09:31 7339 18 male R 1 1 22 moral immoralSelf U u 1 0.5223 
03-Jun-2018_14:09:33 7339 18 male R 1 1 23 moral immoralSelf U u 1 0.3934 
03-Jun-2018_14:09:34 7339 18 male R 1 1 24 moral moralSelf Y y 1 0.4961 
03-Jun-2018_14:09:36 7339 18 male R 1 2 1 moral moralOther Y y 1 0.4453 
03-Jun-2018_14:09:37 7339 18 male R 1 2 2 moral immoralOther U u 1 0.4049 
03-Jun-2018_14:09:39 7339 18 male R 1 2 3 moral immoralSelf U u 1 0.3418 
03-Jun-2018_14:09:40 7339 18 male R 1 2 4 moral moralOther Y y 1 0.3230 
03-Jun-2018_14:09:42 7339 18 male R 1 2 5 moral moralOther Y y 1 0.3166 
03-Jun-2018_14:09:43 7339 18 male R 1 2 6 moral immoralSelf U u 1 0.3317 
03-Jun-2018_14:09:44 7339 18 male R 1 2 7 moral immoralOther U u 1 0.3539 
03-Jun-2018_14:09:46 7339 18 male R 1 2 8 moral moralOther Y y 1 0.4138 
03-Jun-2018_14:09:47 7339 18 male R 1 2 9 moral moralSelf Y y 1 0.4919 
03-Jun-2018_14:09:49 7339 18 male R 1 2 10 moral immoralOther U u 1 0.4754 
03-Jun-2018_14:09:50 7339 18 male R 1 2 11 moral immoralOther U u 1 0.3226 
03-Jun-2018_14:09:52 7339 18 male R 1 2 12 moral moralSelf Y y 1 0.4577 
03-Jun-2018_14:09:54 7339 18 male R 1 2 13 moral moralSelf Y y 1 0.4197 
03-Jun-2018_14:09:56 7339 18 male R 1 2 14 moral immoralOther U u 1 0.6565 
03-Jun-2018_14:09:58 7339 18 male R 1 2 15 moral moralOther Y y 1 0.4169 
03-Jun-2018_14:09:59 7339 18 male R 1 2 16 moral immoralOther U u 1 0.4636 
03-Jun-2018_14:10:01 7339 18 male R 1 2 17 moral immoralSelf U y 0 0.3178 
03-Jun-2018_14:10:02 7339 18 male R 1 2 18 moral moralOther Y y 1 0.3951 
03-Jun-2018_14:10:04 7339 18 male R 1 2 19 moral moralSelf Y y 1 0.3518 
03-Jun-2018_14:10:05 7339 18 male R 1 2 20 moral immoralSelf U u 1 0.3260 
03-Jun-2018_14:10:07 7339 18 male R 1 2 21 moral moralSelf Y y 1 0.3270 
03-Jun-2018_14:10:08 7339 18 male R 1 2 22 moral immoralSelf U u 1 0.2676 
03-Jun-2018_14:10:10 7339 18 male R 1 2 23 moral moralSelf Y y 1 0.2706 
03-Jun-2018_14:10:11 7339 18 male R 1 2 24 moral immoralSelf U u 1 0.2485 
03-Jun-2018_14:10:22 7339 18 male R 1 3 1 moral moralSelf Y y 1 0.4330 
03-Jun-2018_14:10:24 7339 18 male R 1 3 2 moral moralSelf Y u 0 0.3356 
03-Jun-2018_14:10:26 7339 18 male R 1 3 3 moral moralSelf Y y 1 0.4459 
03-Jun-2018_14:10:27 7339 18 male R 1 3 4 moral immoralSelf U u 1 0.4478 
03-Jun-2018_14:10:29 7339 18 male R 1 3 5 moral immoralOther U u 1 0.6205 
03-Jun-2018_14:10:31 7339 18 male R 1 3 6 moral immoralOther U y 0 0.4526 
03-Jun-2018_14:10:33 7339 18 male R 1 3 7 moral moralSelf Y y 1 0.4386 
03-Jun-2018_14:10:34 7339 18 male R 1 3 8 moral immoralOther U u 1 0.4655 
03-Jun-2018_14:10:36 7339 18 male R 1 3 9 moral immoralSelf U u 1 0.6251 
03-Jun-2018_14:10:38 7339 18 male R 1 3 10 moral immoralSelf U u 1 0.4072 
03-Jun-2018_14:10:39 7339 18 male R 1 3 11 moral moralOther Y y 1 0.3776 
03-Jun-2018_14:10:41 7339 18 male R 1 3 12 moral moralSelf Y y 1 0.3961 
03-Jun-2018_14:10:42 7339 18 male R 1 3 13 moral immoralSelf U u 1 0.4168 
03-Jun-2018_14:10:44 7339 18 male R 1 3 14 moral immoralSelf U u 1 0.3294 
03-Jun-2018_14:10:46 7339 18 male R 1 3 15 moral immoralOther U y 0 0.4757 
03-Jun-2018_14:10:47 7339 18 male R 1 3 16 moral moralOther Y y 1 0.4942 
03-Jun-2018_14:10:49 7339 18 male R 1 3 17 moral moralOther Y y 1 0.4020 
03-Jun-2018_14:10:51 7339 18 male R 1 3 18 moral moralSelf Y y 1 0.6312 
03-Jun-2018_14:10:53 7339 18 male R 1 3 19 moral moralOther Y y 1 0.4285 
03-Jun-2018_14:10:54 7339 18 male R 1 3 20 moral immoralOther U u 1 0.5100 
03-Jun-2018_14:10:56 7339 18 male R 1 3 21 moral immoralOther U u 1 0.3534 
03-Jun-2018_14:10:57 7339 18 male R 1 3 22 moral moralOther Y y 1 0.4871 
03-Jun-2018_14:10:59 7339 18 male R 1 3 23 moral moralOther Y y 1 0.3414 
03-Jun-2018_14:11:00 7339 18 male R 1 3 24 moral immoralSelf U u 1 0.4231 
03-Jun-2018_14:11:02 7339 18 male R 1 4 1 moral moralSelf Y y 1 0.4816 
03-Jun-2018_14:11:04 7339 18 male R 1 4 2 moral moralOther Y y 1 0.4764 
03-Jun-2018_14:11:06 7339 18 male R 1 4 3 moral immoralSelf U u 1 0.3669 
03-Jun-2018_14:11:07 7339 18 male R 1 4 4 moral immoralOther U u 1 0.4395 
03-Jun-2018_14:11:09 7339 18 male R 1 4 5 moral immoralOther U u 1 0.3812 
03-Jun-2018_14:11:10 7339 18 male R 1 4 6 moral moralOther Y y 1 0.3247 
03-Jun-2018_14:11:12 7339 18 male R 1 4 7 moral immoralSelf U u 1 0.4689 
03-Jun-2018_14:11:14 7339 18 male R 1 4 8 moral moralSelf Y y 1 0.3461 
03-Jun-2018_14:11:15 7339 18 male R 1 4 9 moral moralSelf Y y 1 0.4332 
03-Jun-2018_14:11:17 7339 18 male R 1 4 10 moral moralSelf Y y 1 0.3801 
03-Jun-2018_14:11:18 7339 18 male R 1 4 11 moral moralOther Y y 1 0.2860 
03-Jun-2018_14:11:20 7339 18 male R 1 4 12 moral moralSelf Y y 1 0.3613 
03-Jun-2018_14:11:22 7339 18 male R 1 4 13 moral immoralOther U u 1 0.4095 
03-Jun-2018_14:11:23 7339 18 male R 1 4 14 moral immoralSelf U u 1 0.4650 
03-Jun-2018_14:11:25 7339 18 male R 1 4 15 moral immoralSelf U u 1 0.4052 
03-Jun-2018_14:11:27 7339 18 male R 1 4 16 moral moralOther Y y 1 0.4943 
03-Jun-2018_14:11:28 7339 18 male R 1 4 17 moral immoralSelf U u 1 0.4243 
03-Jun-2018_14:11:30 7339 18 male R 1 4 18 moral immoralSelf U u 1 0.4271 
03-Jun-2018_14:11:31 7339 18 male R 1 4 19 moral immoralOther U u 1 0.5439 
03-Jun-2018_14:11:33 7339 18 male R 1 4 20 moral moralOther Y y 1 0.3826 
03-Jun-2018_14:11:35 7339 18 male R 1 4 21 moral moralOther Y y 1 0.3605 
03-Jun-2018_14:11:36 7339 18 male R 1 4 22 moral moralSelf Y y 1 0.5163 
03-Jun-2018_14:11:38 7339 18 male R 1 4 23 moral immoralOther U u 1 0.4952 
03-Jun-2018_14:11:40 7339 18 male R 1 4 24 moral immoralOther U u 1 0.3687 
03-Jun-2018_14:11:53 7339 18 male R 1 5 1 moral immoralSelf U u 1 0.4342 
03-Jun-2018_14:11:55 7339 18 male R 1 5 2 moral immoralSelf U u 1 0.3839 
03-Jun-2018_14:11:57 7339 18 male R 1 5 3 moral moralOther Y y 1 0.4390 
03-Jun-2018_14:11:58 7339 18 male R 1 5 4 moral moralSelf Y y 1 0.3789 
03-Jun-2018_14:12:00 7339 18 male R 1 5 5 moral immoralOther U u 1 0.3898 
03-Jun-2018_14:12:02 7339 18 male R 1 5 6 moral moralOther Y y 1 0.4274 
03-Jun-2018_14:12:03 7339 18 male R 1 5 7 moral immoralSelf U u 1 0.4332 
03-Jun-2018_14:12:05 7339 18 male R 1 5 8 moral immoralOther U u 1 0.4963 
03-Jun-2018_14:12:06 7339 18 male R 1 5 9 moral immoralOther U u 1 0.3627 
03-Jun-2018_14:12:08 7339 18 male R 1 5 10 moral immoralOther U u 1 0.3039 
03-Jun-2018_14:12:09 7339 18 male R 1 5 11 moral moralSelf Y y 1 0.5511 
03-Jun-2018_14:12:11 7339 18 male R 1 5 12 moral immoralOther U u 1 0.4551 
03-Jun-2018_14:12:12 7339 18 male R 1 5 13 moral moralSelf Y y 1 0.4048 
03-Jun-2018_14:12:14 7339 18 male R 1 5 14 moral immoralSelf U u 1 0.3729 
03-Jun-2018_14:12:16 7339 18 male R 1 5 15 moral moralOther Y y 1 0.4445 
03-Jun-2018_14:12:17 7339 18 male R 1 5 16 moral moralSelf Y y 1 0.4422 
03-Jun-2018_14:12:19 7339 18 male R 1 5 17 moral immoralSelf U u 1 0.4946 
03-Jun-2018_14:12:21 7339 18 male R 1 5 18 moral immoralOther U u 1 0.4042 
03-Jun-2018_14:12:22 7339 18 male R 1 5 19 moral immoralSelf U u 1 0.4475 
03-Jun-2018_14:12:24 7339 18 male R 1 5 20 moral moralOther Y y 1 0.4523 
03-Jun-2018_14:12:26 7339 18 male R 1 5 21 moral moralSelf Y y 1 0.4364 
03-Jun-2018_14:12:27 7339 18 male R 1 5 22 moral moralSelf Y y 1 0.3682 
03-Jun-2018_14:12:29 7339 18 male R 1 5 23 moral moralOther Y y 1 0.4464 
03-Jun-2018_14:12:31 7339 18 male R 1 5 24 moral moralOther Y y 1 0.3919 
Date Sub Age Sex Hand Block Bin Trial Task Shape corrResp Resp ACC RT
03-Jun-2018_14:15:29 7339 18 male R 2 1 1 self moralOther H h 1 0.8872 
03-Jun-2018_14:15:31 7339 18 male R 2 1 2 self immoralOther H h 1 1.0539 
03-Jun-2018_14:15:32 7339 18 male R 2 1 3 self moralOther H h 1 0.5755 
03-Jun-2018_14:15:34 7339 18 male R 2 1 4 self immoralSelf J j 1 0.4725 
03-Jun-2018_14:15:35 7339 18 male R 2 1 5 self moralOther H h 1 0.4691 
03-Jun-2018_14:15:37 7339 18 male R 2 1 6 self immoralOther H h 1 0.4519 
03-Jun-2018_14:15:39 7339 18 male R 2 1 7 self moralOther H h 1 0.5612 
03-Jun-2018_14:15:40 7339 18 male R 2 1 8 self moralSelf J j 1 0.3876 
03-Jun-2018_14:15:42 7339 18 male R 2 1 9 self immoralSelf J j 1 0.6074 
03-Jun-2018_14:15:44 7339 18 male R 2 1 10 self moralSelf J h 0 0.4202 
03-Jun-2018_14:15:45 7339 18 male R 2 1 11 self moralOther H h 1 0.6555 
03-Jun-2018_14:15:47 7339 18 male R 2 1 12 self immoralSelf J j 1 0.6056 
03-Jun-2018_14:15:49 7339 18 male R 2 1 13 self moralSelf J j 1 0.4053 
03-Jun-2018_14:15:51 7339 18 male R 2 1 14 self immoralOther H h 1 0.5461 
03-Jun-2018_14:15:52 7339 18 male R 2 1 15 self immoralOther H h 1 0.4134 
03-Jun-2018_14:15:54 7339 18 male R 2 1 16 self immoralOther H h 1 0.3975 
03-Jun-2018_14:15:56 7339 18 male R 2 1 17 self moralSelf J j 1 0.5613 
03-Jun-2018_14:15:57 7339 18 male R 2 1 18 self moralOther H h 1 0.4682 
03-Jun-2018_14:15:59 7339 18 male R 2 1 19 self immoralSelf J j 1 0.3238 
03-Jun-2018_14:16:01 7339 18 male R 2 1 20 self immoralSelf J j 1 0.4151 
03-Jun-2018_14:16:02 7339 18 male R 2 1 21 self moralSelf J j 1 0.4053 
03-Jun-2018_14:16:04 7339 18 male R 2 1 22 self moralSelf J j 1 0.3739 
03-Jun-2018_14:16:06 7339 18 male R 2 1 23 self immoralSelf J j 1 0.4793 
03-Jun-2018_14:16:07 7339 18 male R 2 1 24 self immoralOther H h 1 0.5693 
03-Jun-2018_14:16:09 7339 18 male R 2 2 1 self immoralSelf J j 1 0.5779 
03-Jun-2018_14:16:11 7339 18 male R 2 2 2 self immoralOther H h 1 0.4693 
03-Jun-2018_14:16:13 7339 18 male R 2 2 3 self moralOther H h 1 0.5902 
03-Jun-2018_14:16:15 7339 18 male R 2 2 4 self moralSelf J j 1 0.5700 
03-Jun-2018_14:16:16 7339 18 male R 2 2 5 self immoralSelf J j 1 0.3607 
03-Jun-2018_14:16:18 7339 18 male R 2 2 6 self immoralSelf J j 1 0.3513 
03-Jun-2018_14:16:19 7339 18 male R 2 2 7 self immoralSelf J j 1 0.3091 
03-Jun-2018_14:16:21 7339 18 male R 2 2 8 self immoralOther H h 1 0.9679 
03-Jun-2018_14:16:23 7339 18 male R 2 2 9 self moralSelf J j 1 0.5958 
03-Jun-2018_14:16:24 7339 18 male R 2 2 10 self moralSelf J j 1 0.3887 
03-Jun-2018_14:16:26 7339 18 male R 2 2 11 self moralSelf J j 1 0.3342 
03-Jun-2018_14:16:27 7339 18 male R 2 2 12 self immoralOther H h 1 0.5753 
03-Jun-2018_14:16:29 7339 18 male R 2 2 13 self immoralOther H h 1 0.4060 
03-Jun-2018_14:16:31 7339 18 male R 2 2 14 self immoralOther H h 1 0.4013 
03-Jun-2018_14:16:32 7339 18 male R 2 2 15 self immoralSelf J j 1 0.4723 
03-Jun-2018_14:16:34 7339 18 male R 2 2 16 self moralOther H j 0 0.5430 
03-Jun-2018_14:16:35 7339 18 male R 2 2 17 self moralOther H h 1 0.5587 
03-Jun-2018_14:16:37 7339 18 male R 2 2 18 self moralOther H h 1 0.3667 
03-Jun-2018_14:16:38 7339 18 male R 2 2 19 self moralOther H h 1 0.4260 
03-Jun-2018_14:16:40 7339 18 male R 2 2 20 self moralOther H h 1 0.3490 
03-Jun-2018_14:16:42 7339 18 male R 2 2 21 self immoralOther H h 1 0.5466 
03-Jun-2018_14:16:44 7339 18 male R 2 2 22 self moralSelf J j 1 0.5429 
03-Jun-2018_14:16:45 7339 18 male R 2 2 23 self moralSelf J j 1 0.3285 
03-Jun-2018_14:16:47 7339 18 male R 2 2 24 self immoralSelf J j 1 0.3172 
03-Jun-2018_14:16:57 7339 18 male R 2 3 1 self moralOther H h 1 0.5632 
03-Jun-2018_14:16:59 7339 18 male R 2 3 2 self moralSelf J j 1 0.5912 
03-Jun-2018_14:17:00 7339 18 male R 2 3 3 self immoralSelf J j 1 0.5581 
03-Jun-2018_14:17:02 7339 18 male R 2 3 4 self immoralSelf J j 1 0.4124 
03-Jun-2018_14:17:04 7339 18 male R 2 3 5 self moralOther H h 1 0.4891 
03-Jun-2018_14:17:05 7339 18 male R 2 3 6 self immoralOther H h 1 0.5560 
03-Jun-2018_14:17:07 7339 18 male R 2 3 7 self immoralSelf J j 1 0.3805 
03-Jun-2018_14:17:08 7339 18 male R 2 3 8 self moralSelf J j 1 0.5344 
03-Jun-2018_14:17:10 7339 18 male R 2 3 9 self immoralOther H h 1 0.5012 
03-Jun-2018_14:17:12 7339 18 male R 2 3 10 self moralOther H h 1 0.3817 
03-Jun-2018_14:17:14 7339 18 male R 2 3 11 self immoralSelf J j 1 0.4518 
03-Jun-2018_14:17:15 7339 18 male R 2 3 12 self moralSelf J j 1 0.3333 
03-Jun-2018_14:17:17 7339 18 male R 2 3 13 self immoralOther H h 1 0.5226 
03-Jun-2018_14:17:19 7339 18 male R 2 3 14 self immoralOther H h 1 0.4525 
03-Jun-2018_14:17:20 7339 18 male R 2 3 15 self immoralOther H h 1 0.4502 
03-Jun-2018_14:17:22 7339 18 male R 2 3 16 self immoralOther H h 1 0.3599 
03-Jun-2018_14:17:24 7339 18 male R 2 3 17 self immoralSelf J j 1 0.3831 
03-Jun-2018_14:17:25 7339 18 male R 2 3 18 self moralOther H h 1 0.5013 
03-Jun-2018_14:17:27 7339 18 male R 2 3 19 self moralOther H h 1 0.4238 
03-Jun-2018_14:17:29 7339 18 male R 2 3 20 self moralSelf J j 1 0.6788 
03-Jun-2018_14:17:31 7339 18 male R 2 3 21 self moralSelf J j 1 0.3137 
03-Jun-2018_14:17:32 7339 18 male R 2 3 22 self immoralSelf J j 1 0.4070 
03-Jun-2018_14:17:34 7339 18 male R 2 3 23 self moralSelf J j 1 0.5016 
03-Jun-2018_14:17:36 7339 18 male R 2 3 24 self moralOther H h 1 0.6160 
03-Jun-2018_14:17:37 7339 18 male R 2 4 1 self moralSelf J j 1 0.5436 
03-Jun-2018_14:17:39 7339 18 male R 2 4 2 self moralOther H h 1 0.4209 
03-Jun-2018_14:17:41 7339 18 male R 2 4 3 self immoralSelf J j 1 0.4148 
03-Jun-2018_14:17:42 7339 18 male R 2 4 4 self immoralOther H h 1 0.3075 
03-Jun-2018_14:17:44 7339 18 male R 2 4 5 self moralSelf J j 1 0.5077 
03-Jun-2018_14:17:46 7339 18 male R 2 4 6 self moralOther H h 1 0.5346 
03-Jun-2018_14:17:48 7339 18 male R 2 4 7 self immoralSelf J j 1 0.4367 
03-Jun-2018_14:17:49 7339 18 male R 2 4 8 self moralSelf J j 1 0.4820 
03-Jun-2018_14:17:51 7339 18 male R 2 4 9 self immoralOther H h 1 0.5550 
03-Jun-2018_14:17:53 7339 18 male R 2 4 10 self immoralOther H h 1 0.3674 
03-Jun-2018_14:17:54 7339 18 male R 2 4 11 self moralOther H h 1 0.4978 
03-Jun-2018_14:17:56 7339 18 male R 2 4 12 self immoralSelf J j 1 0.5330 
03-Jun-2018_14:17:58 7339 18 male R 2 4 13 self moralOther H h 1 0.5322 
03-Jun-2018_14:18:00 7339 18 male R 2 4 14 self moralOther H h 1 0.3497 
03-Jun-2018_14:18:02 7339 18 male R 2 4 15 self moralSelf J j 1 0.5319 
03-Jun-2018_14:18:03 7339 18 male R 2 4 16 self moralSelf J j 1 0.3394 
03-Jun-2018_14:18:05 7339 18 male R 2 4 17 self moralSelf J j 1 0.3975 
03-Jun-2018_14:18:06 7339 18 male R 2 4 18 self immoralSelf J j 1 0.4318 
03-Jun-2018_14:18:08 7339 18 male R 2 4 19 self immoralOther H h 1 0.8578 
03-Jun-2018_14:18:10 7339 18 male R 2 4 20 self immoralOther H h 1 0.4253 
03-Jun-2018_14:18:12 7339 18 male R 2 4 21 self immoralOther H h 1 0.4029 
03-Jun-2018_14:18:13 7339 18 male R 2 4 22 self immoralSelf J j 1 0.4184 
03-Jun-2018_14:18:15 7339 18 male R 2 4 23 self moralOther H h 1 0.5568 
03-Jun-2018_14:18:17 7339 18 male R 2 4 24 self immoralSelf J j 1 0.5072 
03-Jun-2018_14:18:24 7339 18 male R 2 5 1 self moralSelf J j 1 0.6358 
03-Jun-2018_14:18:26 7339 18 male R 2 5 2 self immoralOther H h 1 0.4745 
03-Jun-2018_14:18:28 7339 18 male R 2 5 3 self immoralSelf J j 1 0.5654 
03-Jun-2018_14:18:30 7339 18 male R 2 5 4 self immoralOther H h 1 0.4577 
03-Jun-2018_14:18:31 7339 18 male R 2 5 5 self immoralSelf J j 1 0.2596 
03-Jun-2018_14:18:33 7339 18 male R 2 5 6 self moralOther H h 1 0.5529 
03-Jun-2018_14:18:34 7339 18 male R 2 5 7 self moralSelf J h 0 0.3802 
03-Jun-2018_14:18:36 7339 18 male R 2 5 8 self immoralSelf J j 1 0.5521 
03-Jun-2018_14:18:38 7339 18 male R 2 5 9 self immoralOther H h 1 0.5831 
03-Jun-2018_14:18:40 7339 18 male R 2 5 10 self immoralSelf J j 1 0.4990 
03-Jun-2018_14:18:41 7339 18 male R 2 5 11 self moralSelf J j 1 0.4530 
03-Jun-2018_14:18:43 7339 18 male R 2 5 12 self moralOther H h 1 0.5175 
03-Jun-2018_14:18:45 7339 18 male R 2 5 13 self moralSelf J j 1 0.4549 
03-Jun-2018_14:18:47 7339 18 male R 2 5 14 self immoralOther H h 1 0.5646 
03-Jun-2018_14:18:48 7339 18 male R 2 5 15 self immoralOther H h 1 0.4334 
03-Jun-2018_14:18:50 7339 18 male R 2 5 16 self immoralSelf J j 1 0.4919 
03-Jun-2018_14:18:52 7339 18 male R 2 5 17 self moralOther H h 1 0.6053 
03-Jun-2018_14:18:53 7339 18 male R 2 5 18 self immoralOther H h 1 0.5090 
03-Jun-2018_14:18:55 7339 18 male R 2 5 19 self moralSelf J j 1 0.7203 
03-Jun-2018_14:18:57 7339 18 male R 2 5 20 self moralSelf J j 1 0.3449 
03-Jun-2018_14:18:58 7339 18 male R 2 5 21 self moralOther H h 1 0.5077 
03-Jun-2018_14:19:00 7339 18 male R 2 5 22 self moralOther H h 1 0.3765 
03-Jun-2018_14:19:02 7339 18 male R 2 5 23 self moralOther H h 1 0.3992 
03-Jun-2018_14:19:03 7339 18 male R 2 5 24 self immoralSelf J j 1 0.4801 
Date Sub Age Sex Hand Block Bin Trial Task Shape corrResp Resp ACC RT
03-Jun-2018_14:21:58 7339 18 male R 3 1 1 self moralSelf J j 1 0.3990 
03-Jun-2018_14:22:00 7339 18 male R 3 1 2 self immoralSelf J j 1 0.3012 
03-Jun-2018_14:22:02 7339 18 male R 3 1 3 self immoralSelf J j 1 0.3821 
03-Jun-2018_14:22:03 7339 18 male R 3 1 4 self moralSelf J j 1 0.3013 
03-Jun-2018_14:22:05 7339 18 male R 3 1 5 self moralOther H h 1 0.4547 
03-Jun-2018_14:22:06 7339 18 male R 3 1 6 self immoralSelf J j 1 0.4675 
03-Jun-2018_14:22:08 7339 18 male R 3 1 7 self immoralOther H h 1 0.4788 
03-Jun-2018_14:22:10 7339 18 male R 3 1 8 self moralSelf J j 1 0.4260 
03-Jun-2018_14:22:12 7339 18 male R 3 1 9 self moralOther H h 1 0.4870 
03-Jun-2018_14:22:13 7339 18 male R 3 1 10 self moralOther H h 1 0.3210 
03-Jun-2018_14:22:15 7339 18 male R 3 1 11 self immoralSelf J j 1 0.4181 
03-Jun-2018_14:22:17 7339 18 male R 3 1 12 self immoralOther H h 1 0.4359 
03-Jun-2018_14:22:18 7339 18 male R 3 1 13 self moralOther H h 1 0.3829 
03-Jun-2018_14:22:19 7339 18 male R 3 1 14 self immoralSelf J j 1 0.4228 
03-Jun-2018_14:22:21 7339 18 male R 3 1 15 self moralSelf J j 1 0.5038 
03-Jun-2018_14:22:22 7339 18 male R 3 1 16 self moralSelf J j 1 0.2870 
03-Jun-2018_14:22:24 7339 18 male R 3 1 17 self moralSelf J j 1 0.3412 
03-Jun-2018_14:22:25 7339 18 male R 3 1 18 self immoralOther H h 1 0.4170 
03-Jun-2018_14:22:27 7339 18 male R 3 1 19 self immoralOther H h 1 0.3851 
03-Jun-2018_14:22:29 7339 18 male R 3 1 20 self immoralOther H h 1 0.4002 
03-Jun-2018_14:22:31 7339 18 male R 3 1 21 self moralOther H h 1 0.3626 
03-Jun-2018_14:22:32 7339 18 male R 3 1 22 self moralOther H j 0 0.4863 
03-Jun-2018_14:22:34 7339 18 male R 3 1 23 self immoralOther H h 1 0.4360 
03-Jun-2018_14:22:36 7339 18 male R 3 1 24 self immoralSelf J j 1 0.4065 
03-Jun-2018_14:22:38 7339 18 male R 3 2 1 self moralOther H h 1 0.6226 
03-Jun-2018_14:22:39 7339 18 male R 3 2 2 self moralOther H h 1 0.3041 
03-Jun-2018_14:22:41 7339 18 male R 3 2 3 self immoralOther H h 1 0.5026 
03-Jun-2018_14:22:42 7339 18 male R 3 2 4 self moralOther H h 1 0.3964 
03-Jun-2018_14:22:44 7339 18 male R 3 2 5 self moralSelf J j 1 0.4200 
03-Jun-2018_14:22:45 7339 18 male R 3 2 6 self moralOther H h 1 0.4757 
03-Jun-2018_14:22:47 7339 18 male R 3 2 7 self immoralOther H h 1 0.4629 
03-Jun-2018_14:22:48 7339 18 male R 3 2 8 self immoralOther H h 1 0.4174 
03-Jun-2018_14:22:50 7339 18 male R 3 2 9 self immoralOther H h 1 0.4339 
03-Jun-2018_14:22:52 7339 18 male R 3 2 10 self immoralSelf J j 1 0.4219 
03-Jun-2018_14:22:53 7339 18 male R 3 2 11 self moralSelf J j 1 0.3677 
03-Jun-2018_14:22:55 7339 18 male R 3 2 12 self immoralSelf J j 1 0.3268 
03-Jun-2018_14:22:56 7339 18 male R 3 2 13 self moralSelf J j 1 0.4172 
03-Jun-2018_14:22:58 7339 18 male R 3 2 14 self moralSelf J j 1 0.4139 
03-Jun-2018_14:22:59 7339 18 male R 3 2 15 self moralSelf J j 1 0.3534 
03-Jun-2018_14:23:01 7339 18 male R 3 2 16 self immoralOther H j 0 0.3444 
03-Jun-2018_14:23:02 7339 18 male R 3 2 17 self immoralSelf J j 1 0.4208 
03-Jun-2018_14:23:04 7339 18 male R 3 2 18 self moralSelf J j 1 0.4350 
03-Jun-2018_14:23:05 7339 18 male R 3 2 19 self immoralSelf J j 1 0.3560 
03-Jun-2018_14:23:07 7339 18 male R 3 2 20 self immoralSelf J j 1 0.4308 
03-Jun-2018_14:23:09 7339 18 male R 3 2 21 self moralOther H h 1 0.5415 
03-Jun-2018_14:23:11 7339 18 male R 3 2 22 self moralOther H h 1 0.3910 
03-Jun-2018_14:23:12 7339 18 male R 3 2 23 self immoralOther H h 1 0.4564 
03-Jun-2018_14:23:14 7339 18 male R 3 2 24 self immoralSelf J j 1 0.4498 
03-Jun-2018_14:23:29 7339 18 male R 3 3 1 self immoralOther H h 1 0.5022 
03-Jun-2018_14:23:31 7339 18 male R 3 3 2 self immoralSelf J j 1 0.4248 
03-Jun-2018_14:23:32 7339 18 male R 3 3 3 self immoralOther H h 1 0.4770 
03-Jun-2018_14:23:34 7339 18 male R 3 3 4 self moralSelf J j 1 0.4206 
03-Jun-2018_14:23:35 7339 18 male R 3 3 5 self moralOther H h 1 0.3341 
03-Jun-2018_14:23:37 7339 18 male R 3 3 6 self immoralOther H h 1 0.5058 
03-Jun-2018_14:23:39 7339 18 male R 3 3 7 self moralOther H h 1 0.4014 
03-Jun-2018_14:23:40 7339 18 male R 3 3 8 self immoralOther H h 1 0.3206 
03-Jun-2018_14:23:42 7339 18 male R 3 3 9 self moralOther H h 1 0.4313 
03-Jun-2018_14:23:44 7339 18 male R 3 3 10 self moralSelf J j 1 0.5334 
03-Jun-2018_14:23:46 7339 18 male R 3 3 11 self moralOther H h 1 0.4192 
03-Jun-2018_14:23:47 7339 18 male R 3 3 12 self immoralSelf J j 1 0.5689 
03-Jun-2018_14:23:49 7339 18 male R 3 3 13 self moralOther H h 1 0.4575 
03-Jun-2018_14:23:50 7339 18 male R 3 3 14 self moralOther H h 1 0.3708 
03-Jun-2018_14:23:52 7339 18 male R 3 3 15 self immoralSelf J j 1 0.4184 
03-Jun-2018_14:23:54 7339 18 male R 3 3 16 self immoralOther H j 0 0.4063 
03-Jun-2018_14:23:56 7339 18 male R 3 3 17 self moralSelf J j 1 0.4346 
03-Jun-2018_14:23:57 7339 18 male R 3 3 18 self immoralSelf J j 1 0.4233 
03-Jun-2018_14:23:59 7339 18 male R 3 3 19 self moralSelf J j 1 0.3938 
03-Jun-2018_14:24:01 7339 18 male R 3 3 20 self immoralSelf J j 1 0.3472 
03-Jun-2018_14:24:02 7339 18 male R 3 3 21 self moralSelf J h 0 0.3944 
03-Jun-2018_14:24:04 7339 18 male R 3 3 22 self immoralSelf J j 1 0.3944 
03-Jun-2018_14:24:06 7339 18 male R 3 3 23 self immoralOther H h 1 0.5031 
03-Jun-2018_14:24:07 7339 18 male R 3 3 24 self moralSelf J j 1 0.5785 
03-Jun-2018_14:24:09 7339 18 male R 3 4 1 self moralOther H h 1 0.5104 
03-Jun-2018_14:24:10 7339 18 male R 3 4 2 self immoralSelf J j 1 0.4568 
03-Jun-2018_14:24:12 7339 18 male R 3 4 3 self immoralOther H h 1 0.5134 
03-Jun-2018_14:24:14 7339 18 male R 3 4 4 self moralSelf J j 1 0.4804 
03-Jun-2018_14:24:15 7339 18 male R 3 4 5 self moralOther H h 1 0.3751 
03-Jun-2018_14:24:17 7339 18 male R 3 4 6 self moralOther H h 1 0.3478 
03-Jun-2018_14:24:18 7339 18 male R 3 4 7 self moralOther H h 1 0.3799 
03-Jun-2018_14:24:20 7339 18 male R 3 4 8 self immoralSelf J j 1 0.4317 
03-Jun-2018_14:24:22 7339 18 male R 3 4 9 self immoralOther H h 1 0.4652 
03-Jun-2018_14:24:24 7339 18 male R 3 4 10 self immoralOther H h 1 0.4465 
03-Jun-2018_14:24:25 7339 18 male R 3 4 11 self immoralSelf J j 1 0.4297 
03-Jun-2018_14:24:27 7339 18 male R 3 4 12 self immoralOther H h 1 0.4894 
03-Jun-2018_14:24:28 7339 18 male R 3 4 13 self moralOther H h 1 0.4146 
03-Jun-2018_14:24:30 7339 18 male R 3 4 14 self moralSelf J j 1 0.4730 
03-Jun-2018_14:24:32 7339 18 male R 3 4 15 self moralSelf J j 1 0.3936 
03-Jun-2018_14:24:33 7339 18 male R 3 4 16 self moralSelf J j 1 0.3960 
03-Jun-2018_14:24:35 7339 18 male R 3 4 17 self immoralSelf J j 1 0.4078 
03-Jun-2018_14:24:36 7339 18 male R 3 4 18 self immoralSelf J j 1 0.4681 
03-Jun-2018_14:24:38 7339 18 male R 3 4 19 self moralOther H h 1 0.4564 
03-Jun-2018_14:24:40 7339 18 male R 3 4 20 self moralSelf J j 1 0.4843 
03-Jun-2018_14:24:41 7339 18 male R 3 4 21 self moralSelf J j 1 0.4424 
03-Jun-2018_14:24:43 7339 18 male R 3 4 22 self immoralOther H h 1 0.5145 
03-Jun-2018_14:24:45 7339 18 male R 3 4 23 self immoralOther H h 1 0.3523 
03-Jun-2018_14:24:46 7339 18 male R 3 4 24 self immoralSelf J j 1 0.4403 
03-Jun-2018_14:24:56 7339 18 male R 3 5 1 self moralOther H h 1 0.4599 
03-Jun-2018_14:24:58 7339 18 male R 3 5 2 self immoralSelf J j 1 0.4502 
03-Jun-2018_14:25:00 7339 18 male R 3 5 3 self moralSelf J j 1 0.7302 
03-Jun-2018_14:25:01 7339 18 male R 3 5 4 self immoralOther H h 1 0.4324 
03-Jun-2018_14:25:03 7339 18 male R 3 5 5 self moralOther H h 1 0.4419 
03-Jun-2018_14:25:04 7339 18 male R 3 5 6 self immoralOther H h 1 0.5210 
03-Jun-2018_14:25:06 7339 18 male R 3 5 7 self moralSelf J j 1 0.5738 
03-Jun-2018_14:25:08 7339 18 male R 3 5 8 self immoralSelf J j 1 0.3413 
03-Jun-2018_14:25:09 7339 18 male R 3 5 9 self immoralSelf J j 1 0.4378 
03-Jun-2018_14:25:11 7339 18 male R 3 5 10 self moralSelf J j 1 0.5730 
03-Jun-2018_14:25:13 7339 18 male R 3 5 11 self moralOther H h 1 0.5876 
03-Jun-2018_14:25:14 7339 18 male R 3 5 12 self moralSelf J h 0 0.5257 
03-Jun-2018_14:25:16 7339 18 male R 3 5 13 self immoralSelf J j 1 0.7764 
03-Jun-2018_14:25:18 7339 18 male R 3 5 14 self moralSelf J j 1 0.5079 
03-Jun-2018_14:25:20 7339 18 male R 3 5 15 self moralOther H h 1 0.5141 
03-Jun-2018_14:25:21 7339 18 male R 3 5 16 self immoralOther H h 1 0.7000 
03-Jun-2018_14:25:23 7339 18 male R 3 5 17 self moralSelf J j 1 0.5255 
03-Jun-2018_14:25:25 7339 18 male R 3 5 18 self immoralOther H h 1 0.5024 
03-Jun-2018_14:25:26 7339 18 male R 3 5 19 self moralOther H h 1 0.4108 
03-Jun-2018_14:25:28 7339 18 male R 3 5 20 self immoralSelf J j 1 0.4123 
03-Jun-2018_14:25:30 7339 18 male R 3 5 21 self moralOther H h 1 0.5225 
03-Jun-2018_14:25:32 7339 18 male R 3 5 22 self immoralOther H h 1 0.9615 
03-Jun-2018_14:25:34 7339 18 male R 3 5 23 self immoralSelf J j 1 0.5485 
03-Jun-2018_14:25:36 7339 18 male R 3 5 24 self immoralOther H h 1 0.5721 
Date Sub Age Sex Hand Block Bin Trial Task Shape corrResp Resp ACC RT
03-Jun-2018_14:28:24 7339 18 male R 4 1 1 moral moralOther Y y 1 0.5065 
03-Jun-2018_14:28:26 7339 18 male R 4 1 2 moral immoralSelf U u 1 0.4168 
03-Jun-2018_14:28:27 7339 18 male R 4 1 3 moral moralOther Y y 1 0.4299 
03-Jun-2018_14:28:30 7339 18 male R 4 1 4 moral immoralOther U u 1 0.7420 
03-Jun-2018_14:28:32 7339 18 male R 4 1 5 moral moralSelf Y y 1 0.6245 
03-Jun-2018_14:28:33 7339 18 male R 4 1 6 moral moralOther Y y 1 0.4646 
03-Jun-2018_14:28:35 7339 18 male R 4 1 7 moral moralOther Y y 1 0.4293 
03-Jun-2018_14:28:37 7339 18 male R 4 1 8 moral moralSelf Y y 1 0.6426 
03-Jun-2018_14:28:38 7339 18 male R 4 1 9 moral moralSelf Y y 1 0.3839 
03-Jun-2018_14:28:40 7339 18 male R 4 1 10 moral immoralOther U u 1 0.4579 
03-Jun-2018_14:28:42 7339 18 male R 4 1 11 moral moralOther Y y 1 0.4504 
03-Jun-2018_14:28:43 7339 18 male R 4 1 12 moral immoralSelf U u 1 0.4485 
03-Jun-2018_14:28:45 7339 18 male R 4 1 13 moral immoralOther U u 1 0.5286 
03-Jun-2018_14:28:47 7339 18 male R 4 1 14 moral immoralSelf U u 1 0.5503 
03-Jun-2018_14:28:49 7339 18 male R 4 1 15 moral immoralSelf U u 1 0.4929 
03-Jun-2018_14:28:50 7339 18 male R 4 1 16 moral moralSelf Y y 1 0.6168 
03-Jun-2018_14:28:52 7339 18 male R 4 1 17 moral immoralSelf U u 1 0.4267 
03-Jun-2018_14:28:54 7339 18 male R 4 1 18 moral immoralOther U u 1 0.4035 
03-Jun-2018_14:28:56 7339 18 male R 4 1 19 moral immoralOther U u 1 0.3563 
03-Jun-2018_14:28:57 7339 18 male R 4 1 20 moral immoralSelf U u 1 0.4660 
03-Jun-2018_14:28:59 7339 18 male R 4 1 21 moral moralOther Y y 1 0.4519 
03-Jun-2018_14:29:01 7339 18 male R 4 1 22 moral immoralOther U u 1 0.8110 
03-Jun-2018_14:29:03 7339 18 male R 4 1 23 moral moralSelf Y y 1 0.6770 
03-Jun-2018_14:29:04 7339 18 male R 4 1 24 moral moralSelf Y y 1 0.4385 
03-Jun-2018_14:29:06 7339 18 male R 4 2 1 moral moralOther Y y 1 0.5388 
03-Jun-2018_14:29:08 7339 18 male R 4 2 2 moral immoralOther U u 1 0.7610 
03-Jun-2018_14:29:09 7339 18 male R 4 2 3 moral moralSelf Y y 1 0.5041 
03-Jun-2018_14:29:11 7339 18 male R 4 2 4 moral moralSelf Y y 1 0.4881 
03-Jun-2018_14:29:13 7339 18 male R 4 2 5 moral immoralSelf U u 1 0.6844 
03-Jun-2018_14:29:14 7339 18 male R 4 2 6 moral moralOther Y y 1 0.5363 
03-Jun-2018_14:29:16 7339 18 male R 4 2 7 moral immoralOther U u 1 0.6559 
03-Jun-2018_14:29:18 7339 18 male R 4 2 8 moral moralSelf Y y 1 0.4602 
03-Jun-2018_14:29:19 7339 18 male R 4 2 9 moral immoralSelf U u 1 0.4475 
03-Jun-2018_14:29:22 7339 18 male R 4 2 10 moral moralOther Y y 1 0.7978 
03-Jun-2018_14:29:23 7339 18 male R 4 2 11 moral immoralOther U u 1 0.6637 
03-Jun-2018_14:29:25 7339 18 male R 4 2 12 moral immoralSelf U u 1 0.4844 
03-Jun-2018_14:29:27 7339 18 male R 4 2 13 moral moralSelf Y y 1 0.5376 
03-Jun-2018_14:29:28 7339 18 male R 4 2 14 moral immoralOther U u 1 0.5853 
03-Jun-2018_14:29:30 7339 18 male R 4 2 15 moral moralSelf Y y 1 0.5063 
03-Jun-2018_14:29:32 7339 18 male R 4 2 16 moral immoralSelf U u 1 0.4179 
03-Jun-2018_14:29:33 7339 18 male R 4 2 17 moral immoralSelf U u 1 0.4240 
03-Jun-2018_14:29:35 7339 18 male R 4 2 18 moral moralOther Y y 1 0.4053 
03-Jun-2018_14:29:37 7339 18 male R 4 2 19 moral immoralSelf U u 1 0.6299 
03-Jun-2018_14:29:39 7339 18 male R 4 2 20 moral immoralOther U u 1 0.5688 
03-Jun-2018_14:29:41 7339 18 male R 4 2 21 moral immoralOther U u 1 0.4941 
03-Jun-2018_14:29:43 7339 18 male R 4 2 22 moral moralSelf Y y 1 0.6128 
03-Jun-2018_14:29:45 7339 18 male R 4 2 23 moral moralOther Y y 1 0.5958 
03-Jun-2018_14:29:46 7339 18 male R 4 2 24 moral moralOther Y y 1 0.4529 
03-Jun-2018_14:29:54 7339 18 male R 4 3 1 moral immoralSelf U u 1 0.4437 
03-Jun-2018_14:29:56 7339 18 male R 4 3 2 moral immoralOther U u 1 0.5374 
03-Jun-2018_14:29:58 7339 18 male R 4 3 3 moral moralOther Y y 1 0.4914 
03-Jun-2018_14:29:59 7339 18 male R 4 3 4 moral immoralSelf U u 1 0.4260 
03-Jun-2018_14:30:01 7339 18 male R 4 3 5 moral immoralOther U u 1 0.4722 
03-Jun-2018_14:30:03 7339 18 male R 4 3 6 moral immoralOther U u 1 0.4205 
03-Jun-2018_14:30:04 7339 18 male R 4 3 7 moral moralSelf Y y 1 0.4770 
03-Jun-2018_14:30:06 7339 18 male R 4 3 8 moral immoralSelf U u 1 0.3947 
03-Jun-2018_14:30:07 7339 18 male R 4 3 9 moral moralOther Y y 1 0.4979 
03-Jun-2018_14:30:09 7339 18 male R 4 3 10 moral moralOther Y y 1 0.3685 
03-Jun-2018_14:30:10 7339 18 male R 4 3 11 moral moralSelf Y y 1 0.3917 
03-Jun-2018_14:30:12 7339 18 male R 4 3 12 moral moralOther Y y 1 0.3719 
03-Jun-2018_14:30:14 7339 18 male R 4 3 13 moral moralSelf Y y 1 0.4350 
03-Jun-2018_14:30:15 7339 18 male R 4 3 14 moral immoralSelf U u 1 0.3816 
03-Jun-2018_14:30:17 7339 18 male R 4 3 15 moral immoralSelf U u 1 0.4370 
03-Jun-2018_14:30:18 7339 18 male R 4 3 16 moral immoralOther U u 1 0.3900 
03-Jun-2018_14:30:20 7339 18 male R 4 3 17 moral immoralOther U u 1 0.3774 
03-Jun-2018_14:30:22 7339 18 male R 4 3 18 moral immoralSelf U u 1 0.4749 
03-Jun-2018_14:30:24 7339 18 male R 4 3 19 moral moralOther Y y 1 0.5093 
03-Jun-2018_14:30:25 7339 18 male R 4 3 20 moral immoralOther U u 1 0.4486 
03-Jun-2018_14:30:27 7339 18 male R 4 3 21 moral moralSelf Y y 1 0.4713 
03-Jun-2018_14:30:28 7339 18 male R 4 3 22 moral moralSelf Y y 1 0.4333 
03-Jun-2018_14:30:30 7339 18 male R 4 3 23 moral moralSelf Y y 1 0.4065 
03-Jun-2018_14:30:32 7339 18 male R 4 3 24 moral moralOther Y y 1 0.6621 
03-Jun-2018_14:30:34 7339 18 male R 4 4 1 moral immoralSelf U u 1 0.4429 
03-Jun-2018_14:30:35 7339 18 male R 4 4 2 moral immoralSelf U u 1 0.4386 
03-Jun-2018_14:30:37 7339 18 male R 4 4 3 moral moralOther Y y 1 0.6999 
03-Jun-2018_14:30:39 7339 18 male R 4 4 4 moral moralOther Y y 1 0.3339 
03-Jun-2018_14:30:40 7339 18 male R 4 4 5 moral moralOther Y y 1 0.3994 
03-Jun-2018_14:30:42 7339 18 male R 4 4 6 moral immoralOther U u 1 0.4272 
03-Jun-2018_14:30:44 7339 18 male R 4 4 7 moral immoralOther U u 1 0.6376 
03-Jun-2018_14:30:46 7339 18 male R 4 4 8 moral moralOther Y y 1 0.5492 
03-Jun-2018_14:30:47 7339 18 male R 4 4 9 moral immoralSelf U u 1 0.4279 
03-Jun-2018_14:30:49 7339 18 male R 4 4 10 moral moralSelf Y y 1 0.5277 
03-Jun-2018_14:30:51 7339 18 male R 4 4 11 moral moralOther Y y 1 0.4760 
03-Jun-2018_14:30:52 7339 18 male R 4 4 12 moral immoralOther U u 1 0.4986 
03-Jun-2018_14:30:54 7339 18 male R 4 4 13 moral immoralSelf U u 1 0.3966 
03-Jun-2018_14:30:56 7339 18 male R 4 4 14 moral immoralSelf U u 1 0.5247 
03-Jun-2018_14:30:58 7339 18 male R 4 4 15 moral immoralOther U u 1 0.3996 
03-Jun-2018_14:30:59 7339 18 male R 4 4 16 moral moralSelf Y y 1 0.4429 
03-Jun-2018_14:31:01 7339 18 male R 4 4 17 moral immoralSelf U u 1 0.5099 
03-Jun-2018_14:31:03 7339 18 male R 4 4 18 moral immoralOther U u 1 0.5467 
03-Jun-2018_14:31:05 7339 18 male R 4 4 19 moral immoralOther U u 1 0.4018 
03-Jun-2018_14:31:06 7339 18 male R 4 4 20 moral moralSelf Y y 1 0.5495 
03-Jun-2018_14:31:08 7339 18 male R 4 4 21 moral moralSelf Y y 1 0.4513 
03-Jun-2018_14:31:10 7339 18 male R 4 4 22 moral moralOther Y y 1 0.3916 
03-Jun-2018_14:31:11 7339 18 male R 4 4 23 moral moralSelf Y y 1 0.4189 
03-Jun-2018_14:31:13 7339 18 male R 4 4 24 moral moralSelf Y y 1 0.3794 
03-Jun-2018_14:31:22 7339 18 male R 4 5 1 moral moralSelf Y y 1 0.6654 
03-Jun-2018_14:31:23 7339 18 male R 4 5 2 moral immoralOther U u 1 0.5107 
03-Jun-2018_14:31:25 7339 18 male R 4 5 3 moral immoralSelf U u 1 0.5145 
03-Jun-2018_14:31:27 7339 18 male R 4 5 4 moral moralOther Y y 1 0.4289 
03-Jun-2018_14:31:28 7339 18 male R 4 5 5 moral moralSelf Y y 1 0.4092 
03-Jun-2018_14:31:30 7339 18 male R 4 5 6 moral immoralSelf U u 1 0.4700 
03-Jun-2018_14:31:32 7339 18 male R 4 5 7 moral moralSelf Y y 1 0.4993 
03-Jun-2018_14:31:33 7339 18 male R 4 5 8 moral moralOther Y y 1 0.3676 
03-Jun-2018_14:31:35 7339 18 male R 4 5 9 moral immoralSelf U u 1 0.4410 
03-Jun-2018_14:31:37 7339 18 male R 4 5 10 moral immoralOther U u 1 0.3356 
03-Jun-2018_14:31:38 7339 18 male R 4 5 11 moral immoralOther U u 1 0.3399 
03-Jun-2018_14:31:40 7339 18 male R 4 5 12 moral immoralSelf U u 1 0.3593 
03-Jun-2018_14:31:41 7339 18 male R 4 5 13 moral moralSelf Y y 1 0.4168 
03-Jun-2018_14:31:43 7339 18 male R 4 5 14 moral moralOther Y y 1 0.4174 
03-Jun-2018_14:31:45 7339 18 male R 4 5 15 moral moralOther Y y 1 0.4137 
03-Jun-2018_14:31:46 7339 18 male R 4 5 16 moral moralSelf Y y 1 0.4260 
03-Jun-2018_14:31:48 7339 18 male R 4 5 17 moral immoralOther U u 1 0.4990 
03-Jun-2018_14:31:49 7339 18 male R 4 5 18 moral immoralOther U u 1 0.3560 
03-Jun-2018_14:31:51 7339 18 male R 4 5 19 moral immoralSelf U u 1 0.5113 
03-Jun-2018_14:31:53 7339 18 male R 4 5 20 moral moralOther Y y 1 0.4191 
03-Jun-2018_14:31:55 7339 18 male R 4 5 21 moral immoralOther U u 1 0.4733 
03-Jun-2018_14:31:57 7339 18 male R 4 5 22 moral moralSelf Y y 1 0.4663 
03-Jun-2018_14:31:58 7339 18 male R 4 5 23 moral immoralSelf U u 1 0.4405 
03-Jun-2018_14:32:00 7339 18 male R 4 5 24 moral moralOther Y y 1 0.4744 
Date Sub Age Sex Hand Block Bin Trial Task Shape corrResp Resp ACC RT
03-Jun-2018_14:34:29 7339 18 male R 5 1 1 self immoralOther H h 1 0.5991 
03-Jun-2018_14:34:31 7339 18 male R 5 1 2 self immoralOther H h 1 0.4069 
03-Jun-2018_14:34:32 7339 18 male R 5 1 3 self moralOther H h 1 0.4408 
03-Jun-2018_14:34:34 7339 18 male R 5 1 4 self immoralSelf J j 1 0.4310 
03-Jun-2018_14:34:36 7339 18 male R 5 1 5 self immoralSelf J j 1 0.3581 
03-Jun-2018_14:34:37 7339 18 male R 5 1 6 self moralOther H j 0 0.3822 
03-Jun-2018_14:34:39 7339 18 male R 5 1 7 self immoralSelf J j 1 0.3888 
03-Jun-2018_14:34:41 7339 18 male R 5 1 8 self moralSelf J j 1 0.5263 
03-Jun-2018_14:34:43 7339 18 male R 5 1 9 self immoralOther H h 1 0.6049 
03-Jun-2018_14:34:45 7339 18 male R 5 1 10 self moralSelf J j 1 0.5843 
03-Jun-2018_14:34:46 7339 18 male R 5 1 11 self immoralSelf J j 1 0.3717 
03-Jun-2018_14:34:48 7339 18 male R 5 1 12 self moralOther H h 1 0.6229 
03-Jun-2018_14:34:49 7339 18 male R 5 1 13 self moralSelf J j 1 0.5082 
03-Jun-2018_14:34:51 7339 18 male R 5 1 14 self immoralOther H h 1 0.5474 
03-Jun-2018_14:34:53 7339 18 male R 5 1 15 self moralOther H h 1 0.5748 
03-Jun-2018_14:34:54 7339 18 male R 5 1 16 self moralSelf J j 1 0.4210 
03-Jun-2018_14:34:56 7339 18 male R 5 1 17 self moralOther H h 1 0.5518 
03-Jun-2018_14:34:58 7339 18 male R 5 1 18 self moralSelf J j 1 0.3773 
03-Jun-2018_14:35:00 7339 18 male R 5 1 19 self moralSelf J j 1 0.4371 
03-Jun-2018_14:35:01 7339 18 male R 5 1 20 self immoralOther H h 1 0.7529 
03-Jun-2018_14:35:03 7339 18 male R 5 1 21 self immoralOther H h 1 0.4213 
03-Jun-2018_14:35:05 7339 18 male R 5 1 22 self immoralSelf J j 1 0.4237 
03-Jun-2018_14:35:06 7339 18 male R 5 1 23 self moralOther H h 1 0.5799 
03-Jun-2018_14:35:08 7339 18 male R 5 1 24 self immoralSelf J j 1 0.5547 
03-Jun-2018_14:35:10 7339 18 male R 5 2 1 self moralSelf J j 1 0.5396 
03-Jun-2018_14:35:12 7339 18 male R 5 2 2 self moralOther H h 1 0.4009 
03-Jun-2018_14:35:13 7339 18 male R 5 2 3 self immoralOther H h 1 0.3723 
03-Jun-2018_14:35:15 7339 18 male R 5 2 4 self immoralOther H h 1 0.3959 
03-Jun-2018_14:35:16 7339 18 male R 5 2 5 self immoralSelf J j 1 0.3902 
03-Jun-2018_14:35:18 7339 18 male R 5 2 6 self immoralSelf J j 1 0.4036 
03-Jun-2018_14:35:19 7339 18 male R 5 2 7 self immoralSelf J j 1 0.3833 
03-Jun-2018_14:35:21 7339 18 male R 5 2 8 self moralOther H h 1 0.5151 
03-Jun-2018_14:35:23 7339 18 male R 5 2 9 self immoralOther H h 1 0.5505 
03-Jun-2018_14:35:24 7339 18 male R 5 2 10 self immoralOther H h 1 0.4179 
03-Jun-2018_14:35:26 7339 18 male R 5 2 11 self moralOther H h 1 0.4734 
03-Jun-2018_14:35:27 7339 18 male R 5 2 12 self immoralOther H h 1 0.4386 
03-Jun-2018_14:35:29 7339 18 male R 5 2 13 self moralSelf J j 1 0.5239 
03-Jun-2018_14:35:31 7339 18 male R 5 2 14 self moralOther H h 1 0.4784 
03-Jun-2018_14:35:32 7339 18 male R 5 2 15 self moralSelf J j 1 0.4035 
03-Jun-2018_14:35:34 7339 18 male R 5 2 16 self immoralSelf J j 1 0.4483 
03-Jun-2018_14:35:36 7339 18 male R 5 2 17 self immoralOther H h 1 0.3934 
03-Jun-2018_14:35:37 7339 18 male R 5 2 18 self moralSelf J h 0 0.4489 
03-Jun-2018_14:35:39 7339 18 male R 5 2 19 self moralSelf J j 1 0.4179 
03-Jun-2018_14:35:40 7339 18 male R 5 2 20 self moralOther H h 1 0.5244 
03-Jun-2018_14:35:42 7339 18 male R 5 2 21 self immoralSelf J j 1 0.6247 
03-Jun-2018_14:35:44 7339 18 male R 5 2 22 self moralSelf J j 1 0.3584 
03-Jun-2018_14:35:46 7339 18 male R 5 2 23 self moralOther H h 1 0.5735 
03-Jun-2018_14:35:47 7339 18 male R 5 2 24 self immoralSelf J j 1 0.3919 
03-Jun-2018_14:35:57 7339 18 male R 5 3 1 self moralOther H h 1 0.5448 
03-Jun-2018_14:35:59 7339 18 male R 5 3 2 self moralSelf J j 1 0.5160 
03-Jun-2018_14:36:00 7339 18 male R 5 3 3 self immoralOther H h 1 0.4748 
03-Jun-2018_14:36:02 7339 18 male R 5 3 4 self moralOther H h 1 0.5779 
03-Jun-2018_14:36:04 7339 18 male R 5 3 5 self immoralSelf J j 1 0.5591 
03-Jun-2018_14:36:06 7339 18 male R 5 3 6 self moralSelf J j 1 0.5691 
03-Jun-2018_14:36:07 7339 18 male R 5 3 7 self immoralSelf J j 1 0.3376 
03-Jun-2018_14:36:09 7339 18 male R 5 3 8 self immoralOther H h 1 0.4868 
03-Jun-2018_14:36:11 7339 18 male R 5 3 9 self immoralSelf J j 1 0.3952 
03-Jun-2018_14:36:12 7339 18 male R 5 3 10 self moralSelf J j 1 0.3472 
03-Jun-2018_14:36:14 7339 18 male R 5 3 11 self immoralOther H h 1 0.3473 
03-Jun-2018_14:36:16 7339 18 male R 5 3 12 self moralSelf J j 1 0.6697 
03-Jun-2018_14:36:17 7339 18 male R 5 3 13 self moralOther H h 1 0.5295 
03-Jun-2018_14:36:19 7339 18 male R 5 3 14 self immoralSelf J j 1 0.4699 
03-Jun-2018_14:36:20 7339 18 male R 5 3 15 self moralOther H h 1 0.4953 
03-Jun-2018_14:36:22 7339 18 male R 5 3 16 self immoralSelf J j 1 0.4328 
03-Jun-2018_14:36:24 7339 18 male R 5 3 17 self moralSelf J j 1 0.5153 
03-Jun-2018_14:36:25 7339 18 male R 5 3 18 self moralSelf J j 1 0.4142 
03-Jun-2018_14:36:27 7339 18 male R 5 3 19 self immoralOther H h 1 0.3902 
03-Jun-2018_14:36:29 7339 18 male R 5 3 20 self moralOther H h 1 0.3196 
03-Jun-2018_14:36:30 7339 18 male R 5 3 21 self moralOther H h 1 0.3653 
03-Jun-2018_14:36:32 7339 18 male R 5 3 22 self immoralSelf J j 1 0.4308 
03-Jun-2018_14:36:34 7339 18 male R 5 3 23 self immoralOther H h 1 0.4463 
03-Jun-2018_14:36:35 7339 18 male R 5 3 24 self immoralOther H h 1 0.3354 
03-Jun-2018_14:36:37 7339 18 male R 5 4 1 self immoralOther H h 1 0.4121 
03-Jun-2018_14:36:38 7339 18 male R 5 4 2 self immoralOther H h 1 0.4334 
03-Jun-2018_14:36:40 7339 18 male R 5 4 3 self moralSelf J j 1 0.4828 
03-Jun-2018_14:36:42 7339 18 male R 5 4 4 self moralOther H h 1 0.4411 
03-Jun-2018_14:36:43 7339 18 male R 5 4 5 self moralSelf J j 1 0.4115 
03-Jun-2018_14:36:45 7339 18 male R 5 4 6 self immoralOther H h 1 0.4167 
03-Jun-2018_14:36:47 7339 18 male R 5 4 7 self immoralSelf J j 1 0.4813 
03-Jun-2018_14:36:49 7339 18 male R 5 4 8 self immoralSelf J j 1 0.4070 
03-Jun-2018_14:36:51 7339 18 male R 5 4 9 self immoralOther H h 1 0.7589 
03-Jun-2018_14:36:52 7339 18 male R 5 4 10 self moralSelf J j 1 0.5337 
03-Jun-2018_14:36:54 7339 18 male R 5 4 11 self moralOther H h 1 0.5506 
03-Jun-2018_14:36:56 7339 18 male R 5 4 12 self moralSelf J j 1 0.5216 
03-Jun-2018_14:36:57 7339 18 male R 5 4 13 self moralSelf J j 1 0.4906 
03-Jun-2018_14:36:59 7339 18 male R 5 4 14 self moralOther H h 1 0.5208 
03-Jun-2018_14:37:01 7339 18 male R 5 4 15 self moralSelf J j 1 0.6098 
03-Jun-2018_14:37:02 7339 18 male R 5 4 16 self immoralOther H h 1 0.4772 
03-Jun-2018_14:37:04 7339 18 male R 5 4 17 self immoralSelf J j 1 0.4467 
03-Jun-2018_14:37:06 7339 18 male R 5 4 18 self immoralOther H h 1 0.7549 
03-Jun-2018_14:37:08 7339 18 male R 5 4 19 self moralOther H h 1 0.8175 
03-Jun-2018_14:37:09 7339 18 male R 5 4 20 self immoralSelf J j 1 0.5080 
03-Jun-2018_14:37:11 7339 18 male R 5 4 21 self immoralSelf J j 1 0.4478 
03-Jun-2018_14:37:13 7339 18 male R 5 4 22 self moralOther H h 1 0.4809 
03-Jun-2018_14:37:14 7339 18 male R 5 4 23 self moralOther H h 1 0.4009 
03-Jun-2018_14:37:16 7339 18 male R 5 4 24 self immoralSelf J j 1 0.5101 
03-Jun-2018_14:37:25 7339 18 male R 5 5 1 self immoralOther H h 1 0.5039 
03-Jun-2018_14:37:27 7339 18 male R 5 5 2 self moralSelf J j 1 0.5651 
03-Jun-2018_14:37:29 7339 18 male R 5 5 3 self moralSelf J j 1 0.3436 
03-Jun-2018_14:37:31 7339 18 male R 5 5 4 self moralOther H h 1 0.3775 
03-Jun-2018_14:37:32 7339 18 male R 5 5 5 self moralSelf J j 1 0.3837 
03-Jun-2018_14:37:34 7339 18 male R 5 5 6 self immoralSelf J j 1 0.3150 
03-Jun-2018_14:37:35 7339 18 male R 5 5 7 self moralSelf J j 1 0.2996 
03-Jun-2018_14:37:37 7339 18 male R 5 5 8 self immoralSelf J j 1 0.3707 
03-Jun-2018_14:37:38 7339 18 male R 5 5 9 self moralOther H h 1 0.3628 
03-Jun-2018_14:37:40 7339 18 male R 5 5 10 self moralSelf J j 1 0.4424 
03-Jun-2018_14:37:42 7339 18 male R 5 5 11 self moralOther H h 1 0.7394 
03-Jun-2018_14:37:44 7339 18 male R 5 5 12 self immoralSelf J j 1 0.3822 
03-Jun-2018_14:37:45 7339 18 male R 5 5 13 self moralOther H h 1 0.3297 
03-Jun-2018_14:37:47 7339 18 male R 5 5 14 self moralOther H h 1 0.3956 
03-Jun-2018_14:37:48 7339 18 male R 5 5 15 self immoralSelf J j 1 0.3603 
03-Jun-2018_14:37:50 7339 18 male R 5 5 16 self moralSelf J j 1 0.4770 
03-Jun-2018_14:37:51 7339 18 male R 5 5 17 self immoralSelf J j 1 0.3943 
03-Jun-2018_14:37:53 7339 18 male R 5 5 18 self immoralOther H h 1 0.3713 
03-Jun-2018_14:37:55 7339 18 male R 5 5 19 self immoralOther H h 1 0.3535 
03-Jun-2018_14:37:56 7339 18 male R 5 5 20 self immoralSelf J j 1 0.4289 
03-Jun-2018_14:37:58 7339 18 male R 5 5 21 self moralOther H h 1 0.5687 
03-Jun-2018_14:38:00 7339 18 male R 5 5 22 self immoralOther H h 1 0.5971 
03-Jun-2018_14:38:01 7339 18 male R 5 5 23 self immoralOther H h 1 0.4173 
03-Jun-2018_14:38:03 7339 18 male R 5 5 24 self immoralOther H h 1 0.4319 
Date Sub Age Sex Hand Block Bin Trial Task Shape corrResp Resp ACC RT
03-Jun-2018_14:40:44 7339 18 male R 6 1 1 moral immoralOther U u 1 0.4808 
03-Jun-2018_14:40:45 7339 18 male R 6 1 2 moral moralSelf Y y 1 0.5450 
03-Jun-2018_14:40:47 7339 18 male R 6 1 3 moral moralOther Y y 1 0.3008 
03-Jun-2018_14:40:48 7339 18 male R 6 1 4 moral moralOther Y y 1 0.4086 
03-Jun-2018_14:40:50 7339 18 male R 6 1 5 moral immoralSelf U u 1 0.4488 
03-Jun-2018_14:40:52 7339 18 male R 6 1 6 moral moralSelf Y y 1 0.5523 
03-Jun-2018_14:40:54 7339 18 male R 6 1 7 moral moralSelf Y y 1 0.4389 
03-Jun-2018_14:40:56 7339 18 male R 6 1 8 moral immoralOther U u 1 0.7163 
03-Jun-2018_14:40:58 7339 18 male R 6 1 9 moral immoralSelf U u 1 0.4890 
03-Jun-2018_14:40:59 7339 18 male R 6 1 10 moral immoralOther U u 1 0.3977 
03-Jun-2018_14:41:01 7339 18 male R 6 1 11 moral immoralOther U u 1 0.3822 
03-Jun-2018_14:41:03 7339 18 male R 6 1 12 moral moralOther Y y 1 0.4496 
03-Jun-2018_14:41:04 7339 18 male R 6 1 13 moral immoralSelf U u 1 0.4300 
03-Jun-2018_14:41:06 7339 18 male R 6 1 14 moral immoralOther U u 1 0.5632 
03-Jun-2018_14:41:08 7339 18 male R 6 1 15 moral immoralOther U u 1 0.4466 
03-Jun-2018_14:41:09 7339 18 male R 6 1 16 moral moralSelf Y y 1 0.5016 
03-Jun-2018_14:41:11 7339 18 male R 6 1 17 moral immoralSelf U u 1 0.5211 
03-Jun-2018_14:41:12 7339 18 male R 6 1 18 moral immoralSelf U u 1 0.4345 
03-Jun-2018_14:41:14 7339 18 male R 6 1 19 moral moralOther Y y 1 0.5211 
03-Jun-2018_14:41:16 7339 18 male R 6 1 20 moral immoralSelf U u 1 0.4431 
03-Jun-2018_14:41:18 7339 18 male R 6 1 21 moral moralOther Y y 1 0.4291 
03-Jun-2018_14:41:20 7339 18 male R 6 1 22 moral moralSelf Y y 1 0.6992 
03-Jun-2018_14:41:22 7339 18 male R 6 1 23 moral moralSelf Y y 1 0.4674 
03-Jun-2018_14:41:24 7339 18 male R 6 1 24 moral moralOther Y y 1 0.4213 
03-Jun-2018_14:41:25 7339 18 male R 6 2 1 moral moralSelf Y y 1 0.3640 
03-Jun-2018_14:41:27 7339 18 male R 6 2 2 moral moralSelf Y y 1 0.4350 
03-Jun-2018_14:41:29 7339 18 male R 6 2 3 moral moralSelf Y y 1 0.3715 
03-Jun-2018_14:41:30 7339 18 male R 6 2 4 moral moralOther Y y 1 0.4927 
03-Jun-2018_14:41:32 7339 18 male R 6 2 5 moral immoralSelf U u 1 0.5651 
03-Jun-2018_14:41:33 7339 18 male R 6 2 6 moral immoralOther U u 1 0.4951 
03-Jun-2018_14:41:35 7339 18 male R 6 2 7 moral immoralOther U u 1 0.4147 
03-Jun-2018_14:41:37 7339 18 male R 6 2 8 moral immoralSelf U u 1 0.4877 
03-Jun-2018_14:41:39 7339 18 male R 6 2 9 moral immoralOther U u 1 0.5555 
03-Jun-2018_14:41:40 7339 18 male R 6 2 10 moral moralOther Y y 1 0.4153 
03-Jun-2018_14:41:42 7339 18 male R 6 2 11 moral immoralSelf U u 1 0.4144 
03-Jun-2018_14:41:44 7339 18 male R 6 2 12 moral immoralSelf U u 1 0.4173 
03-Jun-2018_14:41:45 7339 18 male R 6 2 13 moral moralSelf Y y 1 0.3718 
03-Jun-2018_14:41:47 7339 18 male R 6 2 14 moral moralSelf Y y 1 0.3573 
03-Jun-2018_14:41:48 7339 18 male R 6 2 15 moral moralOther Y y 1 0.4956 
03-Jun-2018_14:41:50 7339 18 male R 6 2 16 moral moralOther Y y 1 0.4684 
03-Jun-2018_14:41:52 7339 18 male R 6 2 17 moral moralSelf Y y 1 0.4262 
03-Jun-2018_14:41:53 7339 18 male R 6 2 18 moral moralOther Y y 1 0.4210 
03-Jun-2018_14:41:55 7339 18 male R 6 2 19 moral immoralSelf U u 1 0.4507 
03-Jun-2018_14:41:56 7339 18 male R 6 2 20 moral immoralOther U u 1 0.3779 
03-Jun-2018_14:41:58 7339 18 male R 6 2 21 moral moralOther Y y 1 0.4898 
03-Jun-2018_14:42:00 7339 18 male R 6 2 22 moral immoralSelf U u 1 0.4386 
03-Jun-2018_14:42:02 7339 18 male R 6 2 23 moral immoralOther U y 0 0.4709 
03-Jun-2018_14:42:04 7339 18 male R 6 2 24 moral immoralOther U u 1 0.7053 
03-Jun-2018_14:42:13 7339 18 male R 6 3 1 moral immoralSelf U u 1 0.4378 
03-Jun-2018_14:42:14 7339 18 male R 6 3 2 moral immoralOther U u 1 0.3310 
03-Jun-2018_14:42:16 7339 18 male R 6 3 3 moral immoralSelf U u 1 0.4836 
03-Jun-2018_14:42:18 7339 18 male R 6 3 4 moral moralOther Y y 1 0.3852 
03-Jun-2018_14:42:19 7339 18 male R 6 3 5 moral immoralOther U u 1 0.4070 
03-Jun-2018_14:42:21 7339 18 male R 6 3 6 moral moralSelf Y y 1 0.5082 
03-Jun-2018_14:42:22 7339 18 male R 6 3 7 moral immoralSelf U u 1 0.4715 
03-Jun-2018_14:42:24 7339 18 male R 6 3 8 moral immoralOther U u 1 0.5074 
03-Jun-2018_14:42:26 7339 18 male R 6 3 9 moral moralSelf Y y 1 0.5136 
03-Jun-2018_14:42:27 7339 18 male R 6 3 10 moral immoralSelf U u 1 0.4962 
03-Jun-2018_14:42:29 7339 18 male R 6 3 11 moral moralOther Y y 1 0.4305 
03-Jun-2018_14:42:31 7339 18 male R 6 3 12 moral moralSelf Y y 1 0.3877 
03-Jun-2018_14:42:32 7339 18 male R 6 3 13 moral immoralOther U u 1 0.5162 
03-Jun-2018_14:42:34 7339 18 male R 6 3 14 moral moralOther Y y 1 0.4513 
03-Jun-2018_14:42:35 7339 18 male R 6 3 15 moral immoralOther U u 1 0.6330 
03-Jun-2018_14:42:37 7339 18 male R 6 3 16 moral moralSelf Y y 1 0.4857 
03-Jun-2018_14:42:39 7339 18 male R 6 3 17 moral immoralSelf U u 1 0.4872 
03-Jun-2018_14:42:40 7339 18 male R 6 3 18 moral moralOther Y y 1 0.3508 
03-Jun-2018_14:42:42 7339 18 male R 6 3 19 moral moralSelf Y y 1 0.4775 
03-Jun-2018_14:42:44 7339 18 male R 6 3 20 moral immoralSelf U u 1 0.4460 
03-Jun-2018_14:42:46 7339 18 male R 6 3 21 moral moralOther Y y 1 0.4493 
03-Jun-2018_14:42:48 7339 18 male R 6 3 22 moral immoralOther U u 1 0.5022 
03-Jun-2018_14:42:49 7339 18 male R 6 3 23 moral moralOther Y y 1 0.4703 
03-Jun-2018_14:42:51 7339 18 male R 6 3 24 moral moralSelf Y y 1 0.4764 
03-Jun-2018_14:42:53 7339 18 male R 6 4 1 moral immoralOther U y 0 0.7222 
03-Jun-2018_14:42:54 7339 18 male R 6 4 2 moral moralSelf Y y 1 0.4460 
03-Jun-2018_14:42:56 7339 18 male R 6 4 3 moral immoralSelf U u 1 0.4389 
03-Jun-2018_14:42:58 7339 18 male R 6 4 4 moral moralSelf Y y 1 0.5115 
03-Jun-2018_14:42:59 7339 18 male R 6 4 5 moral immoralOther U u 1 0.4729 
03-Jun-2018_14:43:01 7339 18 male R 6 4 6 moral immoralSelf U u 1 0.4772 
03-Jun-2018_14:43:03 7339 18 male R 6 4 7 moral moralSelf Y y 1 0.5319 
03-Jun-2018_14:43:05 7339 18 male R 6 4 8 moral immoralSelf U u 1 0.4905 
03-Jun-2018_14:43:06 7339 18 male R 6 4 9 moral moralOther Y y 1 0.4341 
03-Jun-2018_14:43:08 7339 18 male R 6 4 10 moral moralOther Y y 1 0.5727 
03-Jun-2018_14:43:10 7339 18 male R 6 4 11 moral moralOther Y y 1 0.3689 
03-Jun-2018_14:43:11 7339 18 male R 6 4 12 moral moralOther Y y 1 0.4357 
03-Jun-2018_14:43:13 7339 18 male R 6 4 13 moral immoralSelf U u 1 0.4599 
03-Jun-2018_14:43:15 7339 18 male R 6 4 14 moral moralOther Y y 1 0.4091 
03-Jun-2018_14:43:16 7339 18 male R 6 4 15 moral immoralSelf U u 1 0.4623 
03-Jun-2018_14:43:18 7339 18 male R 6 4 16 moral moralSelf Y y 1 0.5636 
03-Jun-2018_14:43:19 7339 18 male R 6 4 17 moral immoralOther U u 1 0.4365 
03-Jun-2018_14:43:21 7339 18 male R 6 4 18 moral immoralOther U u 1 0.5570 
03-Jun-2018_14:43:23 7339 18 male R 6 4 19 moral moralSelf Y y 1 0.4889 
03-Jun-2018_14:43:25 7339 18 male R 6 4 20 moral immoralSelf U u 1 0.4890 
03-Jun-2018_14:43:27 7339 18 male R 6 4 21 moral immoralOther U u 1 0.6066 
03-Jun-2018_14:43:28 7339 18 male R 6 4 22 moral immoralOther U u 1 0.5281 
03-Jun-2018_14:43:30 7339 18 male R 6 4 23 moral moralSelf Y y 1 0.4520 
03-Jun-2018_14:43:31 7339 18 male R 6 4 24 moral moralOther Y y 1 0.4427 
03-Jun-2018_14:43:48 7339 18 male R 6 5 1 moral moralSelf Y y 1 0.4730 
03-Jun-2018_14:43:50 7339 18 male R 6 5 2 moral immoralSelf U u 1 0.4909 
03-Jun-2018_14:43:52 7339 18 male R 6 5 3 moral moralOther Y y 1 0.4458 
03-Jun-2018_14:43:54 7339 18 male R 6 5 4 moral immoralSelf U u 1 0.6100 
03-Jun-2018_14:43:55 7339 18 male R 6 5 5 moral moralSelf Y y 1 0.4577 
03-Jun-2018_14:43:57 7339 18 male R 6 5 6 moral moralSelf Y y 1 0.4042 
03-Jun-2018_14:43:58 7339 18 male R 6 5 7 moral immoralOther U u 1 0.4762 
03-Jun-2018_14:44:00 7339 18 male R 6 5 8 moral moralSelf Y y 1 0.5515 
03-Jun-2018_14:44:02 7339 18 male R 6 5 9 moral moralSelf Y y 1 0.3963 
03-Jun-2018_14:44:03 7339 18 male R 6 5 10 moral immoralSelf U u 1 0.5201 
03-Jun-2018_14:44:05 7339 18 male R 6 5 11 moral immoralOther U u 1 0.4439 
03-Jun-2018_14:44:06 7339 18 male R 6 5 12 moral immoralOther U u 1 0.5324 
03-Jun-2018_14:44:08 7339 18 male R 6 5 13 moral immoralSelf U u 1 0.5080 
03-Jun-2018_14:44:09 7339 18 male R 6 5 14 moral immoralOther U u 1 0.5119 
03-Jun-2018_14:44:11 7339 18 male R 6 5 15 moral moralOther Y y 1 0.5072 
03-Jun-2018_14:44:13 7339 18 male R 6 5 16 moral moralOther Y y 1 0.3586 
03-Jun-2018_14:44:15 7339 18 male R 6 5 17 moral immoralOther U u 1 0.5530 
03-Jun-2018_14:44:17 7339 18 male R 6 5 18 moral moralOther Y y 1 0.5474 
03-Jun-2018_14:44:18 7339 18 male R 6 5 19 moral immoralSelf U u 1 0.4693 
03-Jun-2018_14:44:20 7339 18 male R 6 5 20 moral moralOther Y y 1 0.5011 
03-Jun-2018_14:44:22 7339 18 male R 6 5 21 moral moralSelf Y y 1 0.5708 
03-Jun-2018_14:44:24 7339 18 male R 6 5 22 moral immoralOther U u 1 0.4691 
03-Jun-2018_14:44:26 7339 18 male R 6 5 23 moral immoralSelf U u 1 0.4599 
03-Jun-2018_14:44:27 7339 18 male R 6 5 24 moral moralOther Y y 1 0.4542 
