Date Sub Age Sex Hand Block Bin Trial Task Shape corrResp Resp ACC RT
20-May-2018_16:15:39 7325 21 male R 1 1 1 self moralSelf H h 1 0.5112 
20-May-2018_16:15:40 7325 21 male R 1 1 2 self moralOther J j 1 0.7199 
20-May-2018_16:15:43 7325 21 male R 1 1 3 self immoralOther J j 1 0.6911 
20-May-2018_16:15:44 7325 21 male R 1 1 4 self moralSelf H h 1 0.4427 
20-May-2018_16:15:46 7325 21 male R 1 1 5 self moralOther J j 1 0.8640 
20-May-2018_16:15:48 7325 21 male R 1 1 6 self moralSelf H h 1 0.5243 
20-May-2018_16:15:50 7325 21 male R 1 1 7 self moralOther J j 1 0.5549 
20-May-2018_16:15:52 7325 21 male R 1 1 8 self moralOther J j 1 0.5678 
20-May-2018_16:15:54 7325 21 male R 1 1 9 self immoralSelf H h 1 0.6323 
20-May-2018_16:15:56 7325 21 male R 1 1 10 self immoralSelf H h 1 0.4103 
20-May-2018_16:15:57 7325 21 male R 1 1 11 self immoralOther J j 1 0.5732 
20-May-2018_16:15:59 7325 21 male R 1 1 12 self immoralSelf H h 1 0.5944 
20-May-2018_16:16:01 7325 21 male R 1 1 13 self moralSelf H h 1 0.4965 
20-May-2018_16:16:02 7325 21 male R 1 1 14 self moralOther J j 1 0.4886 
20-May-2018_16:16:04 7325 21 male R 1 1 15 self immoralSelf H h 1 0.5070 
20-May-2018_16:16:06 7325 21 male R 1 1 16 self moralSelf H h 1 0.7546 
20-May-2018_16:16:08 7325 21 male R 1 1 17 self immoralSelf H h 1 0.4601 
20-May-2018_16:16:10 7325 21 male R 1 1 18 self immoralOther J h 0 0.4470 
20-May-2018_16:16:11 7325 21 male R 1 1 19 self moralSelf H h 1 0.4358 
20-May-2018_16:16:13 7325 21 male R 1 1 20 self immoralOther J j 1 0.6650 
20-May-2018_16:16:15 7325 21 male R 1 1 21 self immoralSelf H h 1 0.4764 
20-May-2018_16:16:17 7325 21 male R 1 1 22 self immoralOther J j 1 0.5075 
20-May-2018_16:16:19 7325 21 male R 1 1 23 self moralOther J j 1 0.4568 
20-May-2018_16:16:21 7325 21 male R 1 1 24 self immoralOther J j 1 0.4122 
20-May-2018_16:16:23 7325 21 male R 1 2 1 self immoralSelf H h 1 0.6725 
20-May-2018_16:16:25 7325 21 male R 1 2 2 self immoralSelf H h 1 0.6533 
20-May-2018_16:16:27 7325 21 male R 1 2 3 self immoralOther J j 1 0.5658 
20-May-2018_16:16:29 7325 21 male R 1 2 4 self moralSelf H h 1 0.5051 
20-May-2018_16:16:30 7325 21 male R 1 2 5 self moralOther J j 1 0.5387 
20-May-2018_16:16:32 7325 21 male R 1 2 6 self moralSelf H h 1 0.5420 
20-May-2018_16:16:34 7325 21 male R 1 2 7 self moralSelf H h 1 0.3416 
20-May-2018_16:16:36 7325 21 male R 1 2 8 self moralSelf H h 1 0.4179 
20-May-2018_16:16:37 7325 21 male R 1 2 9 self moralSelf H h 1 0.3662 
20-May-2018_16:16:39 7325 21 male R 1 2 10 self moralOther J j 1 0.7902 
20-May-2018_16:16:41 7325 21 male R 1 2 11 self immoralSelf H h 1 0.4981 
20-May-2018_16:16:43 7325 21 male R 1 2 12 self immoralOther J j 1 0.5273 
20-May-2018_16:16:45 7325 21 male R 1 2 13 self immoralOther J j 1 0.5895 
20-May-2018_16:16:46 7325 21 male R 1 2 14 self moralSelf H h 1 0.4880 
20-May-2018_16:16:48 7325 21 male R 1 2 15 self immoralOther J j 1 0.5887 
20-May-2018_16:16:50 7325 21 male R 1 2 16 self immoralOther J j 1 0.5436 
20-May-2018_16:16:52 7325 21 male R 1 2 17 self immoralOther J j 1 0.4195 
20-May-2018_16:16:53 7325 21 male R 1 2 18 self moralOther J j 1 0.5983 
20-May-2018_16:16:55 7325 21 male R 1 2 19 self moralOther J j 1 0.5091 
20-May-2018_16:16:57 7325 21 male R 1 2 20 self immoralSelf H h 1 0.5613 
20-May-2018_16:16:59 7325 21 male R 1 2 21 self moralOther J j 1 0.4649 
20-May-2018_16:17:01 7325 21 male R 1 2 22 self immoralSelf H h 1 0.5101 
20-May-2018_16:17:03 7325 21 male R 1 2 23 self moralOther J j 1 0.5460 
20-May-2018_16:17:04 7325 21 male R 1 2 24 self immoralSelf H h 1 0.5263 
20-May-2018_16:17:37 7325 21 male R 1 3 1 self immoralOther J j 1 0.7355 
20-May-2018_16:17:39 7325 21 male R 1 3 2 self immoralSelf H h 1 0.4998 
20-May-2018_16:17:41 7325 21 male R 1 3 3 self moralOther J j 1 0.5220 
20-May-2018_16:17:43 7325 21 male R 1 3 4 self immoralSelf H h 1 0.4341 
20-May-2018_16:17:44 7325 21 male R 1 3 5 self moralOther J j 1 0.4643 
20-May-2018_16:17:46 7325 21 male R 1 3 6 self moralSelf H h 1 0.4371 
20-May-2018_16:17:48 7325 21 male R 1 3 7 self moralSelf H h 1 0.3562 
20-May-2018_16:17:50 7325 21 male R 1 3 8 self moralOther J j 1 0.4790 
20-May-2018_16:17:51 7325 21 male R 1 3 9 self moralSelf H h 1 0.5464 
20-May-2018_16:17:53 7325 21 male R 1 3 10 self immoralSelf H h 1 0.5027 
20-May-2018_16:17:55 7325 21 male R 1 3 11 self immoralSelf H h 1 0.5004 
20-May-2018_16:17:57 7325 21 male R 1 3 12 self immoralOther J j 1 0.5212 
20-May-2018_16:17:59 7325 21 male R 1 3 13 self immoralOther J j 1 0.4803 
20-May-2018_16:18:00 7325 21 male R 1 3 14 self moralOther J h 0 0.4104 
20-May-2018_16:18:02 7325 21 male R 1 3 15 self immoralSelf H h 1 0.4344 
20-May-2018_16:18:04 7325 21 male R 1 3 16 self moralSelf H h 1 0.4119 
20-May-2018_16:18:06 7325 21 male R 1 3 17 self moralOther J j 1 0.4956 
20-May-2018_16:18:08 7325 21 male R 1 3 18 self immoralSelf H h 1 0.4755 
20-May-2018_16:18:09 7325 21 male R 1 3 19 self moralOther J j 1 0.5070 
20-May-2018_16:18:11 7325 21 male R 1 3 20 self immoralOther J j 1 0.5269 
20-May-2018_16:18:13 7325 21 male R 1 3 21 self immoralOther J j 1 0.5492 
20-May-2018_16:18:15 7325 21 male R 1 3 22 self immoralOther J j 1 0.4386 
20-May-2018_16:18:17 7325 21 male R 1 3 23 self moralSelf H h 1 0.5554 
20-May-2018_16:18:18 7325 21 male R 1 3 24 self moralSelf H h 1 0.4062 
20-May-2018_16:18:20 7325 21 male R 1 4 1 self moralOther J j 1 0.5188 
20-May-2018_16:18:22 7325 21 male R 1 4 2 self immoralOther J j 1 0.6469 
20-May-2018_16:18:24 7325 21 male R 1 4 3 self immoralOther J j 1 0.5806 
20-May-2018_16:18:25 7325 21 male R 1 4 4 self moralOther J j 1 0.5378 
20-May-2018_16:18:27 7325 21 male R 1 4 5 self moralSelf H h 1 0.8707 
20-May-2018_16:18:29 7325 21 male R 1 4 6 self immoralOther J j 1 0.4721 
20-May-2018_16:18:31 7325 21 male R 1 4 7 self moralOther J j 1 0.4619 
20-May-2018_16:18:33 7325 21 male R 1 4 8 self moralSelf H h 1 0.4845 
20-May-2018_16:18:35 7325 21 male R 1 4 9 self moralSelf H h 1 0.5034 
20-May-2018_16:18:36 7325 21 male R 1 4 10 self moralOther J j 1 0.3585 
20-May-2018_16:18:38 7325 21 male R 1 4 11 self moralSelf H h 1 0.3934 
20-May-2018_16:18:40 7325 21 male R 1 4 12 self moralOther J j 1 0.3939 
20-May-2018_16:18:41 7325 21 male R 1 4 13 self moralSelf H h 1 0.4636 
20-May-2018_16:18:43 7325 21 male R 1 4 14 self moralSelf H h 1 0.3935 
20-May-2018_16:18:45 7325 21 male R 1 4 15 self immoralOther J j 1 0.4756 
20-May-2018_16:18:47 7325 21 male R 1 4 16 self immoralSelf H h 1 0.4271 
20-May-2018_16:18:48 7325 21 male R 1 4 17 self immoralSelf H h 1 0.5467 
20-May-2018_16:18:50 7325 21 male R 1 4 18 self immoralOther J j 1 0.4597 
20-May-2018_16:18:52 7325 21 male R 1 4 19 self immoralSelf H h 1 0.5361 
20-May-2018_16:18:54 7325 21 male R 1 4 20 self immoralOther J j 1 0.4547 
20-May-2018_16:18:56 7325 21 male R 1 4 21 self immoralSelf H h 1 0.5263 
20-May-2018_16:18:57 7325 21 male R 1 4 22 self immoralSelf H h 1 0.4252 
20-May-2018_16:18:59 7325 21 male R 1 4 23 self immoralSelf H h 1 0.5062 
20-May-2018_16:19:01 7325 21 male R 1 4 24 self moralOther J j 1 0.5816 
20-May-2018_16:19:20 7325 21 male R 1 5 1 self immoralSelf H h 1 0.4542 
20-May-2018_16:19:21 7325 21 male R 1 5 2 self immoralOther J j 1 0.4737 
20-May-2018_16:19:23 7325 21 male R 1 5 3 self immoralOther J h 0 0.4747 
20-May-2018_16:19:25 7325 21 male R 1 5 4 self immoralSelf H h 1 0.3556 
20-May-2018_16:19:27 7325 21 male R 1 5 5 self immoralSelf H h 1 0.4159 
20-May-2018_16:19:28 7325 21 male R 1 5 6 self moralSelf H h 1 0.4344 
20-May-2018_16:19:30 7325 21 male R 1 5 7 self immoralOther J j 1 0.5361 
20-May-2018_16:19:32 7325 21 male R 1 5 8 self moralOther J j 1 0.6082 
20-May-2018_16:19:34 7325 21 male R 1 5 9 self immoralSelf H h 1 0.5165 
20-May-2018_16:19:36 7325 21 male R 1 5 10 self moralSelf H h 1 0.4620 
20-May-2018_16:19:38 7325 21 male R 1 5 11 self immoralSelf H h 1 0.4968 
20-May-2018_16:19:40 7325 21 male R 1 5 12 self immoralOther J j 1 0.4409 
20-May-2018_16:19:41 7325 21 male R 1 5 13 self immoralOther J j 1 0.3971 
20-May-2018_16:19:43 7325 21 male R 1 5 14 self moralOther J j 1 0.4099 
20-May-2018_16:19:45 7325 21 male R 1 5 15 self immoralSelf H h 1 0.4910 
20-May-2018_16:19:47 7325 21 male R 1 5 16 self moralSelf H h 1 0.4539 
20-May-2018_16:19:48 7325 21 male R 1 5 17 self immoralOther J j 1 0.4168 
20-May-2018_16:19:50 7325 21 male R 1 5 18 self moralSelf H h 1 0.6762 
20-May-2018_16:19:52 7325 21 male R 1 5 19 self moralSelf H h 1 0.6013 
20-May-2018_16:19:54 7325 21 male R 1 5 20 self moralOther J j 1 0.5869 
20-May-2018_16:19:56 7325 21 male R 1 5 21 self moralOther J j 1 0.4335 
20-May-2018_16:19:57 7325 21 male R 1 5 22 self moralOther J j 1 0.3935 
20-May-2018_16:19:59 7325 21 male R 1 5 23 self moralOther J j 1 0.3790 
20-May-2018_16:20:00 7325 21 male R 1 5 24 self moralSelf H h 1 0.4676 
Date Sub Age Sex Hand Block Bin Trial Task Shape corrResp Resp ACC RT
20-May-2018_16:22:40 7325 21 male R 2 1 1 moral immoralSelf Y y 1 0.7023 
20-May-2018_16:22:42 7325 21 male R 2 1 2 moral moralSelf U u 1 0.5961 
20-May-2018_16:22:44 7325 21 male R 2 1 3 moral moralSelf U u 1 0.4276 
20-May-2018_16:22:45 7325 21 male R 2 1 4 moral immoralOther Y y 1 0.5336 
20-May-2018_16:22:47 7325 21 male R 2 1 5 moral moralOther U u 1 0.5102 
20-May-2018_16:22:49 7325 21 male R 2 1 6 moral immoralSelf Y y 1 0.4382 
20-May-2018_16:22:51 7325 21 male R 2 1 7 moral immoralSelf Y y 1 0.5328 
20-May-2018_16:22:52 7325 21 male R 2 1 8 moral moralSelf U u 1 0.4148 
20-May-2018_16:22:54 7325 21 male R 2 1 9 moral immoralOther Y y 1 0.5076 
20-May-2018_16:22:56 7325 21 male R 2 1 10 moral moralOther U u 1 0.5265 
20-May-2018_16:22:58 7325 21 male R 2 1 11 moral moralOther U u 1 0.3806 
20-May-2018_16:22:59 7325 21 male R 2 1 12 moral moralSelf U u 1 0.4401 
20-May-2018_16:23:01 7325 21 male R 2 1 13 moral immoralSelf Y y 1 0.4175 
20-May-2018_16:23:03 7325 21 male R 2 1 14 moral immoralOther Y y 1 0.5220 
20-May-2018_16:23:05 7325 21 male R 2 1 15 moral immoralSelf Y y 1 0.4045 
20-May-2018_16:23:06 7325 21 male R 2 1 16 moral moralSelf U u 1 0.4281 
20-May-2018_16:23:08 7325 21 male R 2 1 17 moral immoralSelf Y y 1 0.5811 
20-May-2018_16:23:10 7325 21 male R 2 1 18 moral moralOther U u 1 0.5599 
20-May-2018_16:23:12 7325 21 male R 2 1 19 moral immoralOther Y y 1 0.4607 
20-May-2018_16:23:14 7325 21 male R 2 1 20 moral moralSelf U u 1 0.5342 
20-May-2018_16:23:16 7325 21 male R 2 1 21 moral moralOther U u 1 0.5121 
20-May-2018_16:23:17 7325 21 male R 2 1 22 moral immoralOther Y y 1 0.5278 
20-May-2018_16:23:19 7325 21 male R 2 1 23 moral moralOther U u 1 0.4506 
20-May-2018_16:23:21 7325 21 male R 2 1 24 moral immoralOther Y y 1 0.4897 
20-May-2018_16:23:22 7325 21 male R 2 2 1 moral moralOther U u 1 0.4004 
20-May-2018_16:23:24 7325 21 male R 2 2 2 moral moralOther U u 1 0.4019 
20-May-2018_16:23:26 7325 21 male R 2 2 3 moral moralSelf U u 1 0.4993 
20-May-2018_16:23:27 7325 21 male R 2 2 4 moral moralSelf U u 1 0.3470 
20-May-2018_16:23:29 7325 21 male R 2 2 5 moral immoralSelf Y y 1 0.4638 
20-May-2018_16:23:31 7325 21 male R 2 2 6 moral immoralSelf Y y 1 0.5372 
20-May-2018_16:23:32 7325 21 male R 2 2 7 moral immoralSelf Y y 1 0.3678 
20-May-2018_16:23:34 7325 21 male R 2 2 8 moral moralSelf U u 1 0.3919 
20-May-2018_16:23:36 7325 21 male R 2 2 9 moral immoralSelf Y y 1 0.4291 
20-May-2018_16:23:38 7325 21 male R 2 2 10 moral moralOther U u 1 0.4358 
20-May-2018_16:23:40 7325 21 male R 2 2 11 moral immoralOther Y y 1 0.4660 
20-May-2018_16:23:41 7325 21 male R 2 2 12 moral moralOther U u 1 0.4944 
20-May-2018_16:23:43 7325 21 male R 2 2 13 moral immoralOther Y y 1 0.4215 
20-May-2018_16:23:45 7325 21 male R 2 2 14 moral immoralOther Y y 1 0.3994 
20-May-2018_16:23:46 7325 21 male R 2 2 15 moral moralSelf U u 1 0.3656 
20-May-2018_16:23:48 7325 21 male R 2 2 16 moral moralSelf U u 1 0.3449 
20-May-2018_16:23:50 7325 21 male R 2 2 17 moral immoralSelf Y y 1 0.5050 
20-May-2018_16:23:51 7325 21 male R 2 2 18 moral immoralOther Y y 1 0.7140 
20-May-2018_16:23:53 7325 21 male R 2 2 19 moral immoralOther Y y 1 0.4816 
20-May-2018_16:23:55 7325 21 male R 2 2 20 moral moralSelf U u 1 0.4252 
20-May-2018_16:23:57 7325 21 male R 2 2 21 moral immoralSelf Y y 1 0.4553 
20-May-2018_16:23:58 7325 21 male R 2 2 22 moral moralOther U u 1 0.5025 
20-May-2018_16:24:00 7325 21 male R 2 2 23 moral moralOther U u 1 0.4691 
20-May-2018_16:24:02 7325 21 male R 2 2 24 moral immoralOther Y y 1 0.4443 
20-May-2018_16:24:17 7325 21 male R 2 3 1 moral moralSelf U u 1 0.6458 
20-May-2018_16:24:19 7325 21 male R 2 3 2 moral moralOther U u 1 0.5193 
20-May-2018_16:24:21 7325 21 male R 2 3 3 moral immoralSelf Y y 1 0.6351 
20-May-2018_16:24:23 7325 21 male R 2 3 4 moral moralOther U y 0 0.3810 
20-May-2018_16:24:24 7325 21 male R 2 3 5 moral moralSelf U u 1 0.4159 
20-May-2018_16:24:26 7325 21 male R 2 3 6 moral immoralSelf Y y 1 0.4470 
20-May-2018_16:24:27 7325 21 male R 2 3 7 moral immoralOther Y y 1 0.3403 
20-May-2018_16:24:29 7325 21 male R 2 3 8 moral immoralOther Y y 1 0.5441 
20-May-2018_16:24:31 7325 21 male R 2 3 9 moral immoralOther Y y 1 0.3992 
20-May-2018_16:24:32 7325 21 male R 2 3 10 moral immoralSelf Y y 1 0.5075 
20-May-2018_16:24:34 7325 21 male R 2 3 11 moral immoralSelf Y y 1 0.3523 
20-May-2018_16:24:35 7325 21 male R 2 3 12 moral immoralOther Y y 1 0.4356 
20-May-2018_16:24:36 7325 21 male R 2 3 13 moral immoralOther Y y 1 0.3185 
20-May-2018_16:24:38 7325 21 male R 2 3 14 moral immoralOther Y y 1 0.2946 
20-May-2018_16:24:40 7325 21 male R 2 3 15 moral immoralSelf Y y 1 0.5276 
20-May-2018_16:24:41 7325 21 male R 2 3 16 moral moralSelf U u 1 0.4284 
20-May-2018_16:24:43 7325 21 male R 2 3 17 moral moralOther U u 1 0.5145 
20-May-2018_16:24:45 7325 21 male R 2 3 18 moral moralSelf U u 1 0.4553 
20-May-2018_16:24:47 7325 21 male R 2 3 19 moral moralOther U u 1 0.4374 
20-May-2018_16:24:48 7325 21 male R 2 3 20 moral immoralSelf Y y 1 0.5439 
20-May-2018_16:24:50 7325 21 male R 2 3 21 moral moralSelf U u 1 0.4974 
20-May-2018_16:24:52 7325 21 male R 2 3 22 moral moralOther U u 1 0.6645 
20-May-2018_16:24:54 7325 21 male R 2 3 23 moral moralSelf U u 1 0.3258 
20-May-2018_16:24:55 7325 21 male R 2 3 24 moral moralOther U u 1 0.3696 
20-May-2018_16:24:57 7325 21 male R 2 4 1 moral moralOther U u 1 0.3880 
20-May-2018_16:24:58 7325 21 male R 2 4 2 moral moralOther U u 1 0.3259 
20-May-2018_16:25:00 7325 21 male R 2 4 3 moral immoralOther Y y 1 0.4479 
20-May-2018_16:25:02 7325 21 male R 2 4 4 moral immoralSelf Y y 1 0.4695 
20-May-2018_16:25:04 7325 21 male R 2 4 5 moral moralOther U u 1 0.8118 
20-May-2018_16:25:06 7325 21 male R 2 4 6 moral immoralSelf Y y 1 0.4895 
20-May-2018_16:25:08 7325 21 male R 2 4 7 moral immoralOther Y y 1 0.5640 
20-May-2018_16:25:09 7325 21 male R 2 4 8 moral moralSelf U u 1 0.4689 
20-May-2018_16:25:11 7325 21 male R 2 4 9 moral moralSelf U u 1 0.3419 
20-May-2018_16:25:12 7325 21 male R 2 4 10 moral moralOther U u 1 0.4629 
20-May-2018_16:25:14 7325 21 male R 2 4 11 moral immoralOther Y y 1 0.4277 
20-May-2018_16:25:16 7325 21 male R 2 4 12 moral immoralSelf Y y 1 0.8983 
20-May-2018_16:25:18 7325 21 male R 2 4 13 moral immoralOther Y y 1 0.4518 
20-May-2018_16:25:20 7325 21 male R 2 4 14 moral moralSelf U u 1 0.5211 
20-May-2018_16:25:21 7325 21 male R 2 4 15 moral immoralSelf Y y 1 0.4613 
20-May-2018_16:25:23 7325 21 male R 2 4 16 moral immoralSelf Y y 1 0.4393 
20-May-2018_16:25:24 7325 21 male R 2 4 17 moral immoralOther Y y 1 0.4300 
20-May-2018_16:25:26 7325 21 male R 2 4 18 moral immoralOther Y y 1 0.3975 
20-May-2018_16:25:28 7325 21 male R 2 4 19 moral moralOther U u 1 0.5562 
20-May-2018_16:25:29 7325 21 male R 2 4 20 moral moralSelf U u 1 0.3902 
20-May-2018_16:25:31 7325 21 male R 2 4 21 moral moralOther U u 1 0.4998 
20-May-2018_16:25:33 7325 21 male R 2 4 22 moral moralSelf U u 1 0.3357 
20-May-2018_16:25:35 7325 21 male R 2 4 23 moral immoralSelf Y y 1 0.4120 
20-May-2018_16:25:36 7325 21 male R 2 4 24 moral moralSelf U u 1 0.3928 
20-May-2018_16:26:10 7325 21 male R 2 5 1 moral moralSelf U u 1 0.4632 
20-May-2018_16:26:12 7325 21 male R 2 5 2 moral moralOther U u 1 0.4717 
20-May-2018_16:26:13 7325 21 male R 2 5 3 moral immoralSelf Y y 1 0.4600 
20-May-2018_16:26:15 7325 21 male R 2 5 4 moral moralSelf U u 1 0.4657 
20-May-2018_16:26:16 7325 21 male R 2 5 5 moral moralSelf U u 1 0.3007 
20-May-2018_16:26:18 7325 21 male R 2 5 6 moral moralSelf U u 1 0.3016 
20-May-2018_16:26:20 7325 21 male R 2 5 7 moral immoralSelf Y y 1 0.3492 
20-May-2018_16:26:22 7325 21 male R 2 5 8 moral immoralOther Y y 1 0.3055 
20-May-2018_16:26:23 7325 21 male R 2 5 9 moral moralSelf U u 1 0.3799 
20-May-2018_16:26:25 7325 21 male R 2 5 10 moral immoralOther Y y 1 0.4441 
20-May-2018_16:26:27 7325 21 male R 2 5 11 moral immoralSelf Y y 1 0.4521 
20-May-2018_16:26:29 7325 21 male R 2 5 12 moral moralOther U y 0 0.4338 
20-May-2018_16:26:30 7325 21 male R 2 5 13 moral immoralOther Y y 1 0.4484 
20-May-2018_16:26:32 7325 21 male R 2 5 14 moral moralSelf U u 1 0.4584 
20-May-2018_16:26:33 7325 21 male R 2 5 15 moral immoralSelf Y y 1 0.4283 
20-May-2018_16:26:35 7325 21 male R 2 5 16 moral moralOther U u 1 0.4829 
20-May-2018_16:26:37 7325 21 male R 2 5 17 moral moralOther U u 1 0.3918 
20-May-2018_16:26:39 7325 21 male R 2 5 18 moral moralOther U u 1 0.3950 
20-May-2018_16:26:41 7325 21 male R 2 5 19 moral immoralSelf Y y 1 0.4017 
20-May-2018_16:26:42 7325 21 male R 2 5 20 moral immoralSelf Y y 1 0.3934 
20-May-2018_16:26:44 7325 21 male R 2 5 21 moral immoralOther Y y 1 0.5092 
20-May-2018_16:26:45 7325 21 male R 2 5 22 moral moralOther U y 0 0.3535 
20-May-2018_16:26:47 7325 21 male R 2 5 23 moral immoralOther Y y 1 0.4580 
20-May-2018_16:26:49 7325 21 male R 2 5 24 moral immoralOther Y y 1 0.4722 
Date Sub Age Sex Hand Block Bin Trial Task Shape corrResp Resp ACC RT
20-May-2018_16:28:59 7325 21 male R 3 1 1 moral immoralSelf Y y 1 0.7829 
20-May-2018_16:29:01 7325 21 male R 3 1 2 moral moralOther U u 1 0.5562 
20-May-2018_16:29:02 7325 21 male R 3 1 3 moral moralOther U u 1 0.5125 
20-May-2018_16:29:04 7325 21 male R 3 1 4 moral immoralSelf Y y 1 0.5013 
20-May-2018_16:29:06 7325 21 male R 3 1 5 moral moralOther U u 1 0.4595 
20-May-2018_16:29:08 7325 21 male R 3 1 6 moral moralSelf U u 1 0.3960 
20-May-2018_16:29:10 7325 21 male R 3 1 7 moral immoralSelf Y y 1 0.5217 
20-May-2018_16:29:12 7325 21 male R 3 1 8 moral moralSelf U u 1 0.6959 
20-May-2018_16:29:14 7325 21 male R 3 1 9 moral moralSelf U NA -1 1.0841 
20-May-2018_16:29:16 7325 21 male R 3 1 10 moral immoralOther Y y 1 0.5238 
20-May-2018_16:29:18 7325 21 male R 3 1 11 moral immoralOther Y y 1 0.5239 
20-May-2018_16:29:20 7325 21 male R 3 1 12 moral immoralOther Y y 1 0.4083 
20-May-2018_16:29:21 7325 21 male R 3 1 13 moral moralSelf U u 1 0.5457 
20-May-2018_16:29:23 7325 21 male R 3 1 14 moral immoralSelf Y y 1 0.4973 
20-May-2018_16:29:25 7325 21 male R 3 1 15 moral moralSelf U y 0 0.3986 
20-May-2018_16:29:26 7325 21 male R 3 1 16 moral immoralOther Y y 1 0.5087 
20-May-2018_16:29:28 7325 21 male R 3 1 17 moral moralOther U u 1 0.4805 
20-May-2018_16:29:30 7325 21 male R 3 1 18 moral moralSelf U u 1 0.3474 
20-May-2018_16:29:32 7325 21 male R 3 1 19 moral moralOther U u 1 0.4680 
20-May-2018_16:29:33 7325 21 male R 3 1 20 moral immoralOther Y y 1 0.4022 
20-May-2018_16:29:35 7325 21 male R 3 1 21 moral immoralOther Y y 1 0.4718 
20-May-2018_16:29:37 7325 21 male R 3 1 22 moral moralOther U u 1 0.4206 
20-May-2018_16:29:39 7325 21 male R 3 1 23 moral immoralSelf Y y 1 0.5416 
20-May-2018_16:29:40 7325 21 male R 3 1 24 moral immoralSelf Y u 0 0.5247 
20-May-2018_16:29:42 7325 21 male R 3 2 1 moral moralOther U u 1 0.4448 
20-May-2018_16:29:43 7325 21 male R 3 2 2 moral moralSelf U u 1 0.3494 
20-May-2018_16:29:45 7325 21 male R 3 2 3 moral immoralOther Y y 1 0.3946 
20-May-2018_16:29:47 7325 21 male R 3 2 4 moral moralSelf U u 1 0.4239 
20-May-2018_16:29:49 7325 21 male R 3 2 5 moral moralSelf U u 1 0.3396 
20-May-2018_16:29:50 7325 21 male R 3 2 6 moral immoralSelf Y y 1 0.3984 
20-May-2018_16:29:52 7325 21 male R 3 2 7 moral immoralOther Y y 1 0.4462 
20-May-2018_16:29:54 7325 21 male R 3 2 8 moral moralOther U u 1 0.4491 
20-May-2018_16:29:56 7325 21 male R 3 2 9 moral moralOther U u 1 0.4718 
20-May-2018_16:29:58 7325 21 male R 3 2 10 moral immoralSelf Y y 1 0.7348 
20-May-2018_16:29:59 7325 21 male R 3 2 11 moral immoralSelf Y u 0 0.6888 
20-May-2018_16:30:01 7325 21 male R 3 2 12 moral immoralSelf Y y 1 0.4795 
20-May-2018_16:30:03 7325 21 male R 3 2 13 moral immoralSelf Y y 1 0.3793 
20-May-2018_16:30:05 7325 21 male R 3 2 14 moral immoralOther Y y 1 0.7680 
20-May-2018_16:30:06 7325 21 male R 3 2 15 moral moralOther U u 1 0.4764 
20-May-2018_16:30:08 7325 21 male R 3 2 16 moral immoralOther Y y 1 0.5583 
20-May-2018_16:30:10 7325 21 male R 3 2 17 moral immoralOther Y y 1 0.4948 
20-May-2018_16:30:11 7325 21 male R 3 2 18 moral moralSelf U u 1 0.5716 
20-May-2018_16:30:13 7325 21 male R 3 2 19 moral moralSelf U u 1 0.7952 
20-May-2018_16:30:15 7325 21 male R 3 2 20 moral immoralSelf Y y 1 0.7515 
20-May-2018_16:30:17 7325 21 male R 3 2 21 moral moralSelf U u 1 0.6890 
20-May-2018_16:30:19 7325 21 male R 3 2 22 moral moralOther U u 1 0.5917 
20-May-2018_16:30:20 7325 21 male R 3 2 23 moral moralOther U u 1 0.5211 
20-May-2018_16:30:22 7325 21 male R 3 2 24 moral immoralOther Y u 0 0.8243 
20-May-2018_16:30:52 7325 21 male R 3 3 1 moral moralSelf U u 1 0.4644 
20-May-2018_16:30:53 7325 21 male R 3 3 2 moral immoralOther Y u 0 0.3224 
20-May-2018_16:30:55 7325 21 male R 3 3 3 moral moralOther U u 1 0.5139 
20-May-2018_16:30:57 7325 21 male R 3 3 4 moral immoralSelf Y y 1 0.6205 
20-May-2018_16:30:58 7325 21 male R 3 3 5 moral moralSelf U u 1 0.3711 
20-May-2018_16:31:00 7325 21 male R 3 3 6 moral immoralSelf Y y 1 0.3410 
20-May-2018_16:31:02 7325 21 male R 3 3 7 moral moralOther U u 1 0.4224 
20-May-2018_16:31:04 7325 21 male R 3 3 8 moral immoralOther Y y 1 0.3985 
20-May-2018_16:31:05 7325 21 male R 3 3 9 moral moralOther U y 0 0.4028 
20-May-2018_16:31:07 7325 21 male R 3 3 10 moral moralSelf U u 1 0.5412 
20-May-2018_16:31:09 7325 21 male R 3 3 11 moral immoralSelf Y y 1 0.3582 
20-May-2018_16:31:11 7325 21 male R 3 3 12 moral immoralOther Y y 1 0.5231 
20-May-2018_16:31:12 7325 21 male R 3 3 13 moral moralSelf U u 1 0.5400 
20-May-2018_16:31:14 7325 21 male R 3 3 14 moral moralSelf U u 1 0.4713 
20-May-2018_16:31:16 7325 21 male R 3 3 15 moral immoralSelf Y y 1 0.5472 
20-May-2018_16:31:17 7325 21 male R 3 3 16 moral immoralSelf Y u 0 0.7035 
20-May-2018_16:31:19 7325 21 male R 3 3 17 moral moralOther U y 0 0.4579 
20-May-2018_16:31:21 7325 21 male R 3 3 18 moral immoralOther Y y 1 0.5723 
20-May-2018_16:31:23 7325 21 male R 3 3 19 moral immoralOther Y y 1 0.5014 
20-May-2018_16:31:24 7325 21 male R 3 3 20 moral moralSelf U u 1 0.4393 
20-May-2018_16:31:26 7325 21 male R 3 3 21 moral moralOther U u 1 0.4784 
20-May-2018_16:31:28 7325 21 male R 3 3 22 moral immoralOther Y y 1 0.5246 
20-May-2018_16:31:30 7325 21 male R 3 3 23 moral immoralSelf Y y 1 0.8729 
20-May-2018_16:31:32 7325 21 male R 3 3 24 moral moralOther U u 1 0.4197 
20-May-2018_16:31:34 7325 21 male R 3 4 1 moral immoralOther Y y 1 0.4811 
20-May-2018_16:31:35 7325 21 male R 3 4 2 moral moralSelf U u 1 0.4435 
20-May-2018_16:31:37 7325 21 male R 3 4 3 moral moralSelf U u 1 0.4341 
20-May-2018_16:31:39 7325 21 male R 3 4 4 moral immoralOther Y y 1 0.7039 
20-May-2018_16:31:41 7325 21 male R 3 4 5 moral immoralSelf Y y 1 0.7444 
20-May-2018_16:31:43 7325 21 male R 3 4 6 moral moralOther U u 1 0.4649 
20-May-2018_16:31:45 7325 21 male R 3 4 7 moral immoralOther Y y 1 0.4669 
20-May-2018_16:31:47 7325 21 male R 3 4 8 moral immoralSelf Y y 1 0.4934 
20-May-2018_16:31:49 7325 21 male R 3 4 9 moral immoralSelf Y NA -1 1.0841 
20-May-2018_16:31:51 7325 21 male R 3 4 10 moral moralSelf U u 1 0.4813 
20-May-2018_16:31:53 7325 21 male R 3 4 11 moral moralSelf U u 1 0.4479 
20-May-2018_16:31:55 7325 21 male R 3 4 12 moral immoralOther Y u 0 0.5496 
20-May-2018_16:31:56 7325 21 male R 3 4 13 moral moralOther U u 1 0.4057 
20-May-2018_16:31:58 7325 21 male R 3 4 14 moral immoralOther Y y 1 0.4302 
20-May-2018_16:32:00 7325 21 male R 3 4 15 moral immoralOther Y y 1 0.4915 
20-May-2018_16:32:01 7325 21 male R 3 4 16 moral moralOther U u 1 0.4891 
20-May-2018_16:32:03 7325 21 male R 3 4 17 moral moralOther U u 1 0.4727 
20-May-2018_16:32:04 7325 21 male R 3 4 18 moral immoralSelf Y y 1 0.4878 
20-May-2018_16:32:06 7325 21 male R 3 4 19 moral immoralSelf Y y 1 0.4479 
20-May-2018_16:32:08 7325 21 male R 3 4 20 moral immoralSelf Y y 1 0.4677 
20-May-2018_16:32:09 7325 21 male R 3 4 21 moral moralOther U u 1 0.5407 
20-May-2018_16:32:12 7325 21 male R 3 4 22 moral moralSelf U NA -1 1.0841 
20-May-2018_16:32:13 7325 21 male R 3 4 23 moral moralSelf U u 1 0.3898 
20-May-2018_16:32:15 7325 21 male R 3 4 24 moral moralOther U u 1 0.4459 
20-May-2018_16:32:45 7325 21 male R 3 5 1 moral immoralSelf Y y 1 0.5153 
20-May-2018_16:32:47 7325 21 male R 3 5 2 moral moralOther U u 1 0.3694 
20-May-2018_16:32:48 7325 21 male R 3 5 3 moral moralSelf U u 1 0.4029 
20-May-2018_16:32:50 7325 21 male R 3 5 4 moral moralSelf U u 1 0.3215 
20-May-2018_16:32:51 7325 21 male R 3 5 5 moral moralOther U u 1 0.3617 
20-May-2018_16:32:53 7325 21 male R 3 5 6 moral moralSelf U u 1 0.3137 
20-May-2018_16:32:55 7325 21 male R 3 5 7 moral immoralSelf Y y 1 0.4837 
20-May-2018_16:32:56 7325 21 male R 3 5 8 moral moralSelf U u 1 0.3557 
20-May-2018_16:32:58 7325 21 male R 3 5 9 moral moralSelf U u 1 0.2758 
20-May-2018_16:33:00 7325 21 male R 3 5 10 moral immoralSelf Y y 1 0.3713 
20-May-2018_16:33:02 7325 21 male R 3 5 11 moral moralOther U u 1 0.4764 
20-May-2018_16:33:03 7325 21 male R 3 5 12 moral immoralOther Y y 1 0.4783 
20-May-2018_16:33:05 7325 21 male R 3 5 13 moral moralSelf U u 1 0.3560 
20-May-2018_16:33:06 7325 21 male R 3 5 14 moral immoralSelf Y y 1 0.4008 
20-May-2018_16:33:08 7325 21 male R 3 5 15 moral moralOther U u 1 0.4033 
20-May-2018_16:33:09 7325 21 male R 3 5 16 moral immoralOther Y y 1 0.4099 
20-May-2018_16:33:11 7325 21 male R 3 5 17 moral moralOther U u 1 0.3897 
20-May-2018_16:33:13 7325 21 male R 3 5 18 moral immoralSelf Y y 1 0.5026 
20-May-2018_16:33:15 7325 21 male R 3 5 19 moral immoralOther Y y 1 0.5846 
20-May-2018_16:33:17 7325 21 male R 3 5 20 moral immoralOther Y y 1 0.6679 
20-May-2018_16:33:18 7325 21 male R 3 5 21 moral immoralOther Y y 1 0.3791 
20-May-2018_16:33:20 7325 21 male R 3 5 22 moral moralOther U u 1 0.5904 
20-May-2018_16:33:22 7325 21 male R 3 5 23 moral immoralSelf Y y 1 0.7590 
20-May-2018_16:33:24 7325 21 male R 3 5 24 moral immoralOther Y y 1 0.5040 
Date Sub Age Sex Hand Block Bin Trial Task Shape corrResp Resp ACC RT
20-May-2018_16:36:45 7325 21 male R 4 1 1 self moralOther J h 0 0.5341 
20-May-2018_16:36:47 7325 21 male R 4 1 2 self moralSelf H h 1 0.2980 
20-May-2018_16:36:49 7325 21 male R 4 1 3 self moralOther J h 0 0.9075 
20-May-2018_16:36:51 7325 21 male R 4 1 4 self moralOther J j 1 0.5843 
20-May-2018_16:36:52 7325 21 male R 4 1 5 self immoralOther J j 1 0.5853 
20-May-2018_16:36:54 7325 21 male R 4 1 6 self moralOther J j 1 0.5604 
20-May-2018_16:36:56 7325 21 male R 4 1 7 self immoralOther J j 1 0.4221 
20-May-2018_16:36:57 7325 21 male R 4 1 8 self immoralOther J j 1 0.4095 
20-May-2018_16:36:59 7325 21 male R 4 1 9 self immoralSelf H h 1 0.5427 
20-May-2018_16:37:01 7325 21 male R 4 1 10 self immoralOther J j 1 1.0007 
20-May-2018_16:37:03 7325 21 male R 4 1 11 self immoralSelf H h 1 0.5198 
20-May-2018_16:37:05 7325 21 male R 4 1 12 self moralSelf H h 1 0.2714 
20-May-2018_16:37:06 7325 21 male R 4 1 13 self immoralOther J h 0 0.3976 
20-May-2018_16:37:08 7325 21 male R 4 1 14 self moralSelf H h 1 0.3294 
20-May-2018_16:37:10 7325 21 male R 4 1 15 self immoralSelf H h 1 0.3464 
20-May-2018_16:37:11 7325 21 male R 4 1 16 self immoralOther J j 1 0.5093 
20-May-2018_16:37:13 7325 21 male R 4 1 17 self immoralSelf H h 1 0.5809 
20-May-2018_16:37:15 7325 21 male R 4 1 18 self immoralSelf H h 1 0.5546 
20-May-2018_16:37:17 7325 21 male R 4 1 19 self immoralSelf H h 1 0.3585 
20-May-2018_16:37:19 7325 21 male R 4 1 20 self moralOther J j 1 0.5383 
20-May-2018_16:37:20 7325 21 male R 4 1 21 self moralSelf H h 1 0.4621 
20-May-2018_16:37:22 7325 21 male R 4 1 22 self moralSelf H h 1 0.3469 
20-May-2018_16:37:23 7325 21 male R 4 1 23 self moralSelf H h 1 0.3403 
20-May-2018_16:37:25 7325 21 male R 4 1 24 self moralOther J j 1 0.6698 
20-May-2018_16:37:27 7325 21 male R 4 2 1 self immoralSelf H h 1 0.4534 
20-May-2018_16:37:28 7325 21 male R 4 2 2 self moralSelf H h 1 0.3110 
20-May-2018_16:37:30 7325 21 male R 4 2 3 self moralSelf H h 1 0.4150 
20-May-2018_16:37:32 7325 21 male R 4 2 4 self moralSelf H h 1 0.3030 
20-May-2018_16:37:34 7325 21 male R 4 2 5 self moralOther J j 1 0.5572 
20-May-2018_16:37:35 7325 21 male R 4 2 6 self immoralOther J j 1 0.5459 
20-May-2018_16:37:37 7325 21 male R 4 2 7 self immoralOther J j 1 0.4614 
20-May-2018_16:37:39 7325 21 male R 4 2 8 self moralSelf H h 1 0.4270 
20-May-2018_16:37:41 7325 21 male R 4 2 9 self immoralSelf H h 1 0.4182 
20-May-2018_16:37:43 7325 21 male R 4 2 10 self immoralOther J j 1 0.5401 
20-May-2018_16:37:44 7325 21 male R 4 2 11 self immoralSelf H h 1 0.5459 
20-May-2018_16:37:46 7325 21 male R 4 2 12 self moralOther J j 1 0.5402 
20-May-2018_16:37:48 7325 21 male R 4 2 13 self moralOther J j 1 0.5323 
20-May-2018_16:37:49 7325 21 male R 4 2 14 self immoralSelf H h 1 0.4199 
20-May-2018_16:37:51 7325 21 male R 4 2 15 self immoralSelf H h 1 0.4326 
20-May-2018_16:37:53 7325 21 male R 4 2 16 self immoralOther J j 1 0.5527 
20-May-2018_16:37:55 7325 21 male R 4 2 17 self immoralOther J j 1 0.8299 
20-May-2018_16:37:56 7325 21 male R 4 2 18 self moralSelf H h 1 0.4522 
20-May-2018_16:37:58 7325 21 male R 4 2 19 self moralOther J j 1 0.5341 
20-May-2018_16:38:00 7325 21 male R 4 2 20 self moralOther J j 1 0.5389 
20-May-2018_16:38:02 7325 21 male R 4 2 21 self moralOther J j 1 0.5323 
20-May-2018_16:38:04 7325 21 male R 4 2 22 self immoralOther J j 1 0.5419 
20-May-2018_16:38:06 7325 21 male R 4 2 23 self immoralSelf H h 1 0.4257 
20-May-2018_16:38:07 7325 21 male R 4 2 24 self moralSelf H h 1 0.3632 
20-May-2018_16:38:15 7325 21 male R 4 3 1 self moralOther J j 1 0.6627 
20-May-2018_16:38:17 7325 21 male R 4 3 2 self moralOther J j 1 0.5523 
20-May-2018_16:38:19 7325 21 male R 4 3 3 self immoralSelf H h 1 0.3985 
20-May-2018_16:38:20 7325 21 male R 4 3 4 self immoralOther J j 1 0.6211 
20-May-2018_16:38:22 7325 21 male R 4 3 5 self immoralOther J j 1 0.5012 
20-May-2018_16:38:24 7325 21 male R 4 3 6 self immoralOther J j 1 0.3915 
20-May-2018_16:38:26 7325 21 male R 4 3 7 self moralSelf H h 1 0.3879 
20-May-2018_16:38:28 7325 21 male R 4 3 8 self moralOther J j 1 0.5376 
20-May-2018_16:38:29 7325 21 male R 4 3 9 self moralSelf H h 1 0.3701 
20-May-2018_16:38:31 7325 21 male R 4 3 10 self moralSelf H h 1 0.2926 
20-May-2018_16:38:33 7325 21 male R 4 3 11 self moralOther J j 1 0.5217 
20-May-2018_16:38:34 7325 21 male R 4 3 12 self immoralSelf H h 1 0.4085 
20-May-2018_16:38:36 7325 21 male R 4 3 13 self immoralOther J j 1 0.5134 
20-May-2018_16:38:38 7325 21 male R 4 3 14 self immoralSelf H h 1 0.3243 
20-May-2018_16:38:39 7325 21 male R 4 3 15 self immoralSelf H h 1 0.4797 
20-May-2018_16:38:41 7325 21 male R 4 3 16 self moralOther J j 1 0.4605 
20-May-2018_16:38:43 7325 21 male R 4 3 17 self immoralSelf H h 1 0.3688 
20-May-2018_16:38:45 7325 21 male R 4 3 18 self moralSelf H h 1 0.3255 
20-May-2018_16:38:46 7325 21 male R 4 3 19 self moralSelf H h 1 0.3374 
20-May-2018_16:38:48 7325 21 male R 4 3 20 self moralSelf H h 1 0.3157 
20-May-2018_16:38:50 7325 21 male R 4 3 21 self immoralSelf H h 1 0.3930 
20-May-2018_16:38:51 7325 21 male R 4 3 22 self moralOther J j 1 0.4279 
20-May-2018_16:38:53 7325 21 male R 4 3 23 self immoralOther J j 1 0.5221 
20-May-2018_16:38:54 7325 21 male R 4 3 24 self immoralOther J j 1 0.4539 
20-May-2018_16:38:56 7325 21 male R 4 4 1 self moralSelf H h 1 0.3490 
20-May-2018_16:38:58 7325 21 male R 4 4 2 self immoralSelf H h 1 0.3820 
20-May-2018_16:38:59 7325 21 male R 4 4 3 self immoralSelf H h 1 0.3529 
20-May-2018_16:39:01 7325 21 male R 4 4 4 self immoralSelf H h 1 0.3845 
20-May-2018_16:39:02 7325 21 male R 4 4 5 self moralSelf H h 1 0.3978 
20-May-2018_16:39:04 7325 21 male R 4 4 6 self immoralSelf H h 1 0.3705 
20-May-2018_16:39:06 7325 21 male R 4 4 7 self moralOther J j 1 0.5263 
20-May-2018_16:39:08 7325 21 male R 4 4 8 self immoralOther J j 1 0.5048 
20-May-2018_16:39:09 7325 21 male R 4 4 9 self moralOther J h 0 0.4836 
20-May-2018_16:39:11 7325 21 male R 4 4 10 self moralSelf H h 1 0.3322 
20-May-2018_16:39:13 7325 21 male R 4 4 11 self immoralSelf H h 1 0.3849 
20-May-2018_16:39:14 7325 21 male R 4 4 12 self immoralOther J j 1 0.4462 
20-May-2018_16:39:16 7325 21 male R 4 4 13 self moralSelf H h 1 0.4839 
20-May-2018_16:39:17 7325 21 male R 4 4 14 self immoralOther J j 1 0.6943 
20-May-2018_16:39:19 7325 21 male R 4 4 15 self moralOther J j 1 0.5767 
20-May-2018_16:39:21 7325 21 male R 4 4 16 self immoralSelf H h 1 0.5354 
20-May-2018_16:39:23 7325 21 male R 4 4 17 self moralOther J j 1 0.5124 
20-May-2018_16:39:25 7325 21 male R 4 4 18 self moralOther J j 1 0.7119 
20-May-2018_16:39:27 7325 21 male R 4 4 19 self moralSelf H h 1 0.4344 
20-May-2018_16:39:28 7325 21 male R 4 4 20 self immoralOther J j 1 0.4415 
20-May-2018_16:39:30 7325 21 male R 4 4 21 self moralSelf H h 1 0.4072 
20-May-2018_16:39:31 7325 21 male R 4 4 22 self immoralOther J j 1 0.4563 
20-May-2018_16:39:33 7325 21 male R 4 4 23 self immoralOther J j 1 0.3711 
20-May-2018_16:39:34 7325 21 male R 4 4 24 self moralOther J j 1 0.4827 
20-May-2018_16:39:53 7325 21 male R 4 5 1 self immoralSelf H h 1 0.7111 
20-May-2018_16:39:55 7325 21 male R 4 5 2 self moralOther J j 1 0.4985 
20-May-2018_16:39:56 7325 21 male R 4 5 3 self immoralSelf H h 1 0.4360 
20-May-2018_16:39:58 7325 21 male R 4 5 4 self immoralSelf H h 1 0.3650 
20-May-2018_16:40:00 7325 21 male R 4 5 5 self immoralSelf H h 1 0.2780 
20-May-2018_16:40:01 7325 21 male R 4 5 6 self moralOther J j 1 0.4822 
20-May-2018_16:40:03 7325 21 male R 4 5 7 self moralOther J j 1 0.3737 
20-May-2018_16:40:05 7325 21 male R 4 5 8 self moralSelf H h 1 0.4151 
20-May-2018_16:40:06 7325 21 male R 4 5 9 self immoralSelf H h 1 0.3465 
20-May-2018_16:40:08 7325 21 male R 4 5 10 self moralSelf H h 1 0.3202 
20-May-2018_16:40:10 7325 21 male R 4 5 11 self moralOther J h 0 0.4722 
20-May-2018_16:40:11 7325 21 male R 4 5 12 self moralSelf H h 1 0.3547 
20-May-2018_16:40:13 7325 21 male R 4 5 13 self moralSelf H h 1 0.3970 
20-May-2018_16:40:14 7325 21 male R 4 5 14 self moralOther J j 1 0.4192 
20-May-2018_16:40:16 7325 21 male R 4 5 15 self immoralOther J j 1 0.4499 
20-May-2018_16:40:18 7325 21 male R 4 5 16 self immoralOther J j 1 0.4255 
20-May-2018_16:40:20 7325 21 male R 4 5 17 self immoralOther J j 1 0.3902 
20-May-2018_16:40:21 7325 21 male R 4 5 18 self immoralOther J j 1 0.3956 
20-May-2018_16:40:23 7325 21 male R 4 5 19 self moralSelf H h 1 0.4021 
20-May-2018_16:40:25 7325 21 male R 4 5 20 self moralSelf H h 1 0.3345 
20-May-2018_16:40:26 7325 21 male R 4 5 21 self immoralSelf H h 1 0.4517 
20-May-2018_16:40:28 7325 21 male R 4 5 22 self moralOther J j 1 0.4791 
20-May-2018_16:40:30 7325 21 male R 4 5 23 self immoralOther J j 1 0.4781 
20-May-2018_16:40:32 7325 21 male R 4 5 24 self immoralOther J j 1 0.4170 
Date Sub Age Sex Hand Block Bin Trial Task Shape corrResp Resp ACC RT
20-May-2018_16:42:41 7325 21 male R 5 1 1 self immoralOther J j 1 0.6820 
20-May-2018_16:42:43 7325 21 male R 5 1 2 self immoralOther J j 1 0.4277 
20-May-2018_16:42:45 7325 21 male R 5 1 3 self moralOther J j 1 0.5294 
20-May-2018_16:42:46 7325 21 male R 5 1 4 self moralOther J j 1 0.3689 
20-May-2018_16:42:48 7325 21 male R 5 1 5 self moralOther J j 1 0.2984 
20-May-2018_16:42:50 7325 21 male R 5 1 6 self immoralSelf H h 1 0.4321 
20-May-2018_16:42:51 7325 21 male R 5 1 7 self moralSelf H h 1 0.2562 
20-May-2018_16:42:53 7325 21 male R 5 1 8 self immoralOther J j 1 0.3975 
20-May-2018_16:42:55 7325 21 male R 5 1 9 self moralOther J j 1 0.3669 
20-May-2018_16:42:56 7325 21 male R 5 1 10 self moralOther J j 1 0.3547 
20-May-2018_16:42:58 7325 21 male R 5 1 11 self immoralOther J j 1 0.3802 
20-May-2018_16:43:00 7325 21 male R 5 1 12 self immoralSelf H j 0 0.3407 
20-May-2018_16:43:02 7325 21 male R 5 1 13 self moralSelf H h 1 0.3507 
20-May-2018_16:43:03 7325 21 male R 5 1 14 self moralSelf H h 1 0.3752 
20-May-2018_16:43:05 7325 21 male R 5 1 15 self moralSelf H h 1 0.3541 
20-May-2018_16:43:06 7325 21 male R 5 1 16 self immoralOther J j 1 0.4525 
20-May-2018_16:43:08 7325 21 male R 5 1 17 self immoralSelf H h 1 0.5575 
20-May-2018_16:43:10 7325 21 male R 5 1 18 self immoralSelf H h 1 0.5185 
20-May-2018_16:43:12 7325 21 male R 5 1 19 self moralOther J j 1 0.4381 
20-May-2018_16:43:14 7325 21 male R 5 1 20 self immoralSelf H h 1 0.7916 
20-May-2018_16:43:16 7325 21 male R 5 1 21 self immoralSelf H h 1 0.4727 
20-May-2018_16:43:18 7325 21 male R 5 1 22 self moralSelf H h 1 0.4158 
20-May-2018_16:43:20 7325 21 male R 5 1 23 self moralSelf H h 1 0.3486 
20-May-2018_16:43:21 7325 21 male R 5 1 24 self immoralOther J j 1 0.4517 
20-May-2018_16:43:23 7325 21 male R 5 2 1 self moralOther J j 1 0.4729 
20-May-2018_16:43:25 7325 21 male R 5 2 2 self moralSelf H h 1 0.4993 
20-May-2018_16:43:26 7325 21 male R 5 2 3 self moralSelf H h 1 0.4942 
20-May-2018_16:43:28 7325 21 male R 5 2 4 self immoralOther J j 1 0.6689 
20-May-2018_16:43:30 7325 21 male R 5 2 5 self immoralSelf H h 1 0.4901 
20-May-2018_16:43:32 7325 21 male R 5 2 6 self moralSelf H h 1 0.4728 
20-May-2018_16:43:34 7325 21 male R 5 2 7 self moralOther J j 1 0.4912 
20-May-2018_16:43:36 7325 21 male R 5 2 8 self moralOther J j 1 0.4701 
20-May-2018_16:43:37 7325 21 male R 5 2 9 self immoralOther J j 1 0.5247 
20-May-2018_16:43:39 7325 21 male R 5 2 10 self immoralSelf H h 1 0.5004 
20-May-2018_16:43:40 7325 21 male R 5 2 11 self moralSelf H h 1 0.4289 
20-May-2018_16:43:42 7325 21 male R 5 2 12 self immoralOther J j 1 0.4426 
20-May-2018_16:43:44 7325 21 male R 5 2 13 self immoralOther J j 1 0.5363 
20-May-2018_16:43:46 7325 21 male R 5 2 14 self moralSelf H h 1 0.5321 
20-May-2018_16:43:48 7325 21 male R 5 2 15 self moralOther J j 1 0.4894 
20-May-2018_16:43:49 7325 21 male R 5 2 16 self immoralOther J j 1 0.5761 
20-May-2018_16:43:51 7325 21 male R 5 2 17 self moralOther J j 1 0.4668 
20-May-2018_16:43:53 7325 21 male R 5 2 18 self immoralSelf H h 1 0.5451 
20-May-2018_16:43:55 7325 21 male R 5 2 19 self moralOther J j 1 0.5777 
20-May-2018_16:43:57 7325 21 male R 5 2 20 self immoralOther J j 1 0.4228 
20-May-2018_16:43:59 7325 21 male R 5 2 21 self immoralSelf H h 1 0.4837 
20-May-2018_16:44:00 7325 21 male R 5 2 22 self immoralSelf H h 1 0.4715 
20-May-2018_16:44:02 7325 21 male R 5 2 23 self moralSelf H h 1 0.4518 
20-May-2018_16:44:04 7325 21 male R 5 2 24 self immoralSelf H h 1 0.4739 
20-May-2018_16:44:34 7325 21 male R 5 3 1 self moralOther J j 1 0.5236 
20-May-2018_16:44:36 7325 21 male R 5 3 2 self moralOther J j 1 0.2922 
20-May-2018_16:44:38 7325 21 male R 5 3 3 self immoralOther J j 1 0.5572 
20-May-2018_16:44:40 7325 21 male R 5 3 4 self immoralSelf H h 1 0.4231 
20-May-2018_16:44:41 7325 21 male R 5 3 5 self immoralOther J j 1 0.3964 
20-May-2018_16:44:43 7325 21 male R 5 3 6 self moralSelf H h 1 0.3884 
20-May-2018_16:44:45 7325 21 male R 5 3 7 self moralOther J j 1 0.3640 
20-May-2018_16:44:46 7325 21 male R 5 3 8 self moralSelf H h 1 0.4059 
20-May-2018_16:44:48 7325 21 male R 5 3 9 self moralSelf H h 1 0.3928 
20-May-2018_16:44:50 7325 21 male R 5 3 10 self immoralOther J j 1 0.5496 
20-May-2018_16:44:52 7325 21 male R 5 3 11 self immoralSelf H h 1 0.4899 
20-May-2018_16:44:53 7325 21 male R 5 3 12 self immoralSelf H h 1 0.3136 
20-May-2018_16:44:55 7325 21 male R 5 3 13 self immoralOther J j 1 0.4444 
20-May-2018_16:44:57 7325 21 male R 5 3 14 self immoralSelf H h 1 0.5222 
20-May-2018_16:44:58 7325 21 male R 5 3 15 self immoralOther J j 1 0.4012 
20-May-2018_16:45:00 7325 21 male R 5 3 16 self moralOther J h 0 0.4380 
20-May-2018_16:45:02 7325 21 male R 5 3 17 self immoralSelf H h 1 0.3524 
20-May-2018_16:45:03 7325 21 male R 5 3 18 self moralSelf H h 1 0.3651 
20-May-2018_16:45:05 7325 21 male R 5 3 19 self moralSelf H h 1 0.3280 
20-May-2018_16:45:07 7325 21 male R 5 3 20 self moralOther J j 1 0.3790 
20-May-2018_16:45:09 7325 21 male R 5 3 21 self immoralSelf H h 1 0.3809 
20-May-2018_16:45:10 7325 21 male R 5 3 22 self moralSelf H h 1 0.3847 
20-May-2018_16:45:12 7325 21 male R 5 3 23 self moralOther J j 1 0.5805 
20-May-2018_16:45:14 7325 21 male R 5 3 24 self immoralOther J j 1 0.4409 
20-May-2018_16:45:15 7325 21 male R 5 4 1 self moralSelf H h 1 0.5246 
20-May-2018_16:45:17 7325 21 male R 5 4 2 self immoralSelf H h 1 0.3737 
20-May-2018_16:45:19 7325 21 male R 5 4 3 self immoralOther J j 1 0.5290 
20-May-2018_16:45:21 7325 21 male R 5 4 4 self moralOther J j 1 0.6101 
20-May-2018_16:45:22 7325 21 male R 5 4 5 self immoralOther J j 1 0.4426 
20-May-2018_16:45:24 7325 21 male R 5 4 6 self moralOther J j 1 0.5669 
20-May-2018_16:45:26 7325 21 male R 5 4 7 self immoralSelf H h 1 0.4173 
20-May-2018_16:45:28 7325 21 male R 5 4 8 self immoralOther J j 1 0.5318 
20-May-2018_16:45:29 7325 21 male R 5 4 9 self moralSelf H h 1 0.3949 
20-May-2018_16:45:31 7325 21 male R 5 4 10 self moralSelf H h 1 0.4199 
20-May-2018_16:45:32 7325 21 male R 5 4 11 self moralOther J j 1 0.4087 
20-May-2018_16:45:34 7325 21 male R 5 4 12 self moralOther J j 1 0.4341 
20-May-2018_16:45:36 7325 21 male R 5 4 13 self moralSelf H j 0 0.5180 
20-May-2018_16:45:37 7325 21 male R 5 4 14 self moralSelf H h 1 0.3801 
20-May-2018_16:45:39 7325 21 male R 5 4 15 self immoralSelf H h 1 0.6188 
20-May-2018_16:45:40 7325 21 male R 5 4 16 self moralOther J j 1 0.4010 
20-May-2018_16:45:42 7325 21 male R 5 4 17 self immoralOther J j 1 0.5492 
20-May-2018_16:45:44 7325 21 male R 5 4 18 self moralSelf H h 1 0.3874 
20-May-2018_16:45:45 7325 21 male R 5 4 19 self immoralSelf H h 1 0.3936 
20-May-2018_16:45:47 7325 21 male R 5 4 20 self immoralSelf H h 1 0.3965 
20-May-2018_16:45:49 7325 21 male R 5 4 21 self immoralSelf H h 1 0.3730 
20-May-2018_16:45:50 7325 21 male R 5 4 22 self immoralOther J j 1 0.5170 
20-May-2018_16:45:52 7325 21 male R 5 4 23 self moralOther J j 1 0.4296 
20-May-2018_16:45:54 7325 21 male R 5 4 24 self immoralOther J j 1 0.5003 
20-May-2018_16:46:28 7325 21 male R 5 5 1 self moralSelf H h 1 0.3547 
20-May-2018_16:46:29 7325 21 male R 5 5 2 self moralSelf H h 1 0.2705 
20-May-2018_16:46:31 7325 21 male R 5 5 3 self immoralOther J j 1 0.4886 
20-May-2018_16:46:33 7325 21 male R 5 5 4 self moralSelf H h 1 0.3512 
20-May-2018_16:46:35 7325 21 male R 5 5 5 self moralOther J j 1 0.4787 
20-May-2018_16:46:36 7325 21 male R 5 5 6 self immoralSelf H h 1 0.4783 
20-May-2018_16:46:38 7325 21 male R 5 5 7 self moralOther J h 0 0.4093 
20-May-2018_16:46:40 7325 21 male R 5 5 8 self immoralSelf H h 1 0.4112 
20-May-2018_16:46:42 7325 21 male R 5 5 9 self moralSelf H h 1 0.3072 
20-May-2018_16:46:44 7325 21 male R 5 5 10 self immoralSelf H h 1 0.4433 
20-May-2018_16:46:46 7325 21 male R 5 5 11 self immoralOther J j 1 0.4259 
20-May-2018_16:46:47 7325 21 male R 5 5 12 self immoralOther J j 1 0.4510 
20-May-2018_16:46:49 7325 21 male R 5 5 13 self immoralSelf H h 1 0.4139 
20-May-2018_16:46:51 7325 21 male R 5 5 14 self moralOther J j 1 0.4930 
20-May-2018_16:46:53 7325 21 male R 5 5 15 self immoralOther J j 1 0.5349 
20-May-2018_16:46:55 7325 21 male R 5 5 16 self moralSelf H h 1 0.4225 
20-May-2018_16:46:56 7325 21 male R 5 5 17 self moralOther J j 1 0.5605 
20-May-2018_16:46:58 7325 21 male R 5 5 18 self moralOther J j 1 0.3761 
20-May-2018_16:46:59 7325 21 male R 5 5 19 self immoralOther J j 1 0.4575 
20-May-2018_16:47:01 7325 21 male R 5 5 20 self moralSelf H h 1 0.4237 
20-May-2018_16:47:02 7325 21 male R 5 5 21 self immoralSelf H h 1 0.4139 
20-May-2018_16:47:04 7325 21 male R 5 5 22 self immoralSelf H h 1 0.3631 
20-May-2018_16:47:06 7325 21 male R 5 5 23 self moralOther J j 1 0.3933 
20-May-2018_16:47:08 7325 21 male R 5 5 24 self immoralOther J j 1 0.4664 
Date Sub Age Sex Hand Block Bin Trial Task Shape corrResp Resp ACC RT
20-May-2018_16:49:17 7325 21 male R 6 1 1 moral immoralOther Y y 1 0.5614 
20-May-2018_16:49:19 7325 21 male R 6 1 2 moral immoralOther Y y 1 0.4628 
20-May-2018_16:49:21 7325 21 male R 6 1 3 moral immoralSelf Y u 0 0.6370 
20-May-2018_16:49:22 7325 21 male R 6 1 4 moral immoralOther Y y 1 0.5062 
20-May-2018_16:49:24 7325 21 male R 6 1 5 moral moralOther U u 1 0.6747 
20-May-2018_16:49:26 7325 21 male R 6 1 6 moral immoralSelf Y u 0 0.4504 
20-May-2018_16:49:28 7325 21 male R 6 1 7 moral moralSelf U u 1 0.3521 
20-May-2018_16:49:29 7325 21 male R 6 1 8 moral moralOther U u 1 0.4468 
20-May-2018_16:49:31 7325 21 male R 6 1 9 moral immoralSelf Y y 1 0.4853 
20-May-2018_16:49:33 7325 21 male R 6 1 10 moral moralOther U u 1 0.5315 
20-May-2018_16:49:35 7325 21 male R 6 1 11 moral immoralSelf Y y 1 0.4756 
20-May-2018_16:49:37 7325 21 male R 6 1 12 moral moralOther U u 1 0.6150 
20-May-2018_16:49:38 7325 21 male R 6 1 13 moral moralSelf U u 1 0.5177 
20-May-2018_16:49:40 7325 21 male R 6 1 14 moral moralOther U u 1 0.5982 
20-May-2018_16:49:42 7325 21 male R 6 1 15 moral moralSelf U u 1 0.5719 
20-May-2018_16:49:44 7325 21 male R 6 1 16 moral immoralSelf Y y 1 0.5399 
20-May-2018_16:49:46 7325 21 male R 6 1 17 moral immoralSelf Y NA -1 1.0841 
20-May-2018_16:49:47 7325 21 male R 6 1 18 moral moralSelf U u 1 0.4539 
20-May-2018_16:49:49 7325 21 male R 6 1 19 moral immoralOther Y y 1 0.6376 
20-May-2018_16:49:51 7325 21 male R 6 1 20 moral moralSelf U u 1 0.4466 
20-May-2018_16:49:53 7325 21 male R 6 1 21 moral immoralOther Y y 1 0.7662 
20-May-2018_16:49:55 7325 21 male R 6 1 22 moral immoralOther Y y 1 0.4515 
20-May-2018_16:49:56 7325 21 male R 6 1 23 moral moralSelf U u 1 0.5381 
20-May-2018_16:49:58 7325 21 male R 6 1 24 moral moralOther U u 1 0.5546 
20-May-2018_16:50:00 7325 21 male R 6 2 1 moral immoralSelf Y y 1 0.6299 
20-May-2018_16:50:02 7325 21 male R 6 2 2 moral moralOther U u 1 0.5712 
20-May-2018_16:50:04 7325 21 male R 6 2 3 moral moralSelf U u 1 0.5336 
20-May-2018_16:50:05 7325 21 male R 6 2 4 moral immoralOther Y y 1 0.4994 
20-May-2018_16:50:07 7325 21 male R 6 2 5 moral immoralSelf Y y 1 0.6650 
20-May-2018_16:50:09 7325 21 male R 6 2 6 moral immoralOther Y y 1 0.5644 
20-May-2018_16:50:11 7325 21 male R 6 2 7 moral immoralSelf Y u 0 0.6210 
20-May-2018_16:50:13 7325 21 male R 6 2 8 moral moralOther U u 1 0.3763 
20-May-2018_16:50:14 7325 21 male R 6 2 9 moral moralOther U u 1 0.6564 
20-May-2018_16:50:16 7325 21 male R 6 2 10 moral immoralOther Y y 1 0.5148 
20-May-2018_16:50:18 7325 21 male R 6 2 11 moral immoralOther Y y 1 0.5070 
20-May-2018_16:50:20 7325 21 male R 6 2 12 moral immoralSelf Y y 1 0.5493 
20-May-2018_16:50:22 7325 21 male R 6 2 13 moral moralOther U u 1 0.6119 
20-May-2018_16:50:23 7325 21 male R 6 2 14 moral immoralSelf Y y 1 0.5259 
20-May-2018_16:50:25 7325 21 male R 6 2 15 moral immoralSelf Y y 1 0.4611 
20-May-2018_16:50:27 7325 21 male R 6 2 16 moral moralSelf U u 1 0.4300 
20-May-2018_16:50:28 7325 21 male R 6 2 17 moral moralSelf U u 1 0.3077 
20-May-2018_16:50:30 7325 21 male R 6 2 18 moral moralSelf U u 1 0.3201 
20-May-2018_16:50:32 7325 21 male R 6 2 19 moral moralSelf U u 1 0.3121 
20-May-2018_16:50:33 7325 21 male R 6 2 20 moral immoralOther Y y 1 0.4317 
20-May-2018_16:50:35 7325 21 male R 6 2 21 moral moralOther U u 1 0.8388 
20-May-2018_16:50:37 7325 21 male R 6 2 22 moral moralOther U u 1 0.4215 
20-May-2018_16:50:39 7325 21 male R 6 2 23 moral moralSelf U u 1 0.4080 
20-May-2018_16:50:41 7325 21 male R 6 2 24 moral immoralOther Y u 0 0.5257 
20-May-2018_16:51:13 7325 21 male R 6 3 1 moral immoralOther Y y 1 0.4713 
20-May-2018_16:51:15 7325 21 male R 6 3 2 moral moralSelf U u 1 0.5049 
20-May-2018_16:51:17 7325 21 male R 6 3 3 moral immoralSelf Y y 1 0.5275 
20-May-2018_16:51:19 7325 21 male R 6 3 4 moral immoralOther Y y 1 0.4330 
20-May-2018_16:51:21 7325 21 male R 6 3 5 moral moralSelf U u 1 0.3309 
20-May-2018_16:51:22 7325 21 male R 6 3 6 moral moralOther U y 0 0.4049 
20-May-2018_16:51:24 7325 21 male R 6 3 7 moral moralSelf U u 1 0.4210 
20-May-2018_16:51:26 7325 21 male R 6 3 8 moral immoralOther Y y 1 0.5603 
20-May-2018_16:51:28 7325 21 male R 6 3 9 moral immoralSelf Y y 1 0.5702 
20-May-2018_16:51:29 7325 21 male R 6 3 10 moral immoralOther Y y 1 0.5016 
20-May-2018_16:51:31 7325 21 male R 6 3 11 moral immoralOther Y y 1 0.3882 
20-May-2018_16:51:33 7325 21 male R 6 3 12 moral immoralSelf Y u 0 0.5831 
20-May-2018_16:51:35 7325 21 male R 6 3 13 moral immoralSelf Y y 1 0.5093 
20-May-2018_16:51:37 7325 21 male R 6 3 14 moral immoralSelf Y y 1 0.4872 
20-May-2018_16:51:38 7325 21 male R 6 3 15 moral moralOther U u 1 0.6111 
20-May-2018_16:51:40 7325 21 male R 6 3 16 moral immoralOther Y y 1 0.5556 
20-May-2018_16:51:42 7325 21 male R 6 3 17 moral moralSelf U u 1 0.4616 
20-May-2018_16:51:44 7325 21 male R 6 3 18 moral moralOther U u 1 0.4517 
20-May-2018_16:51:45 7325 21 male R 6 3 19 moral moralSelf U u 1 0.4170 
20-May-2018_16:51:47 7325 21 male R 6 3 20 moral immoralSelf Y y 1 0.6463 
20-May-2018_16:51:49 7325 21 male R 6 3 21 moral moralOther U u 1 0.5565 
20-May-2018_16:51:51 7325 21 male R 6 3 22 moral moralSelf U u 1 0.4614 
20-May-2018_16:51:52 7325 21 male R 6 3 23 moral moralOther U u 1 0.4329 
20-May-2018_16:51:54 7325 21 male R 6 3 24 moral moralOther U u 1 0.4913 
20-May-2018_16:51:56 7325 21 male R 6 4 1 moral moralOther U u 1 0.4490 
20-May-2018_16:51:58 7325 21 male R 6 4 2 moral moralSelf U u 1 0.4701 
20-May-2018_16:51:59 7325 21 male R 6 4 3 moral moralOther U u 1 0.5630 
20-May-2018_16:52:01 7325 21 male R 6 4 4 moral immoralSelf Y y 1 0.5992 
20-May-2018_16:52:03 7325 21 male R 6 4 5 moral moralSelf U u 1 0.4351 
20-May-2018_16:52:05 7325 21 male R 6 4 6 moral moralOther U u 1 0.5203 
20-May-2018_16:52:07 7325 21 male R 6 4 7 moral moralSelf U u 1 0.5873 
20-May-2018_16:52:08 7325 21 male R 6 4 8 moral moralOther U u 1 0.3910 
20-May-2018_16:52:10 7325 21 male R 6 4 9 moral immoralOther Y y 1 0.5864 
20-May-2018_16:52:13 7325 21 male R 6 4 10 moral immoralSelf Y NA -1 1.0841 
20-May-2018_16:52:14 7325 21 male R 6 4 11 moral moralOther U u 1 0.4416 
20-May-2018_16:52:16 7325 21 male R 6 4 12 moral moralSelf U u 1 0.3829 
20-May-2018_16:52:18 7325 21 male R 6 4 13 moral immoralSelf Y y 1 0.4917 
20-May-2018_16:52:19 7325 21 male R 6 4 14 moral moralSelf U u 1 0.4211 
20-May-2018_16:52:21 7325 21 male R 6 4 15 moral immoralOther Y y 1 0.5403 
20-May-2018_16:52:23 7325 21 male R 6 4 16 moral immoralSelf Y y 1 0.5121 
20-May-2018_16:52:25 7325 21 male R 6 4 17 moral immoralOther Y u 0 0.5277 
20-May-2018_16:52:26 7325 21 male R 6 4 18 moral immoralOther Y y 1 0.4444 
20-May-2018_16:52:28 7325 21 male R 6 4 19 moral moralSelf U u 1 0.4506 
20-May-2018_16:52:29 7325 21 male R 6 4 20 moral immoralSelf Y y 1 0.5081 
20-May-2018_16:52:31 7325 21 male R 6 4 21 moral immoralOther Y y 1 0.5670 
20-May-2018_16:52:33 7325 21 male R 6 4 22 moral immoralOther Y y 1 0.4960 
20-May-2018_16:52:35 7325 21 male R 6 4 23 moral moralOther U u 1 0.5191 
20-May-2018_16:52:37 7325 21 male R 6 4 24 moral immoralSelf Y y 1 0.7864 
20-May-2018_16:53:07 7325 21 male R 6 5 1 moral moralSelf U u 1 0.4041 
20-May-2018_16:53:08 7325 21 male R 6 5 2 moral moralOther U u 1 0.4751 
20-May-2018_16:53:10 7325 21 male R 6 5 3 moral moralOther U u 1 0.4287 
20-May-2018_16:53:12 7325 21 male R 6 5 4 moral immoralOther Y y 1 0.4584 
20-May-2018_16:53:13 7325 21 male R 6 5 5 moral immoralSelf Y y 1 0.5365 
20-May-2018_16:53:15 7325 21 male R 6 5 6 moral moralSelf U u 1 0.3399 
20-May-2018_16:53:16 7325 21 male R 6 5 7 moral immoralOther Y y 1 0.4666 
20-May-2018_16:53:18 7325 21 male R 6 5 8 moral moralSelf U u 1 0.2846 
20-May-2018_16:53:20 7325 21 male R 6 5 9 moral immoralOther Y u 0 0.4441 
20-May-2018_16:53:22 7325 21 male R 6 5 10 moral immoralOther Y y 1 0.4729 
20-May-2018_16:53:24 7325 21 male R 6 5 11 moral moralOther U u 1 0.5520 
20-May-2018_16:53:25 7325 21 male R 6 5 12 moral moralOther U u 1 0.3126 
20-May-2018_16:53:27 7325 21 male R 6 5 13 moral moralSelf U u 1 0.3813 
20-May-2018_16:53:29 7325 21 male R 6 5 14 moral immoralSelf Y y 1 0.7437 
20-May-2018_16:53:31 7325 21 male R 6 5 15 moral moralSelf U u 1 0.4544 
20-May-2018_16:53:33 7325 21 male R 6 5 16 moral immoralSelf Y y 1 0.5096 
20-May-2018_16:53:34 7325 21 male R 6 5 17 moral immoralSelf Y y 1 0.5275 
20-May-2018_16:53:36 7325 21 male R 6 5 18 moral immoralOther Y y 1 0.7939 
20-May-2018_16:53:38 7325 21 male R 6 5 19 moral immoralSelf Y u 0 0.4871 
20-May-2018_16:53:40 7325 21 male R 6 5 20 moral immoralSelf Y y 1 0.4312 
20-May-2018_16:53:42 7325 21 male R 6 5 21 moral moralSelf U u 1 0.5042 
20-May-2018_16:53:43 7325 21 male R 6 5 22 moral moralOther U u 1 0.4939 
20-May-2018_16:53:45 7325 21 male R 6 5 23 moral moralOther U u 1 0.7307 
20-May-2018_16:53:47 7325 21 male R 6 5 24 moral immoralOther Y y 1 0.5505 
