Date Sub Age Sex Hand Block Bin Trial Task Shape corrResp Resp ACC RT
12-May-2018_16:18:12 7310 21 2 R 1 1 1 self moralSelf H h 1 0.4482 
12-May-2018_16:18:13 7310 21 2 R 1 1 2 self immoralSelf H h 1 0.5622 
12-May-2018_16:18:15 7310 21 2 R 1 1 3 self moralOther J j 1 0.5043 
12-May-2018_16:18:17 7310 21 2 R 1 1 4 self moralSelf H h 1 0.4145 
12-May-2018_16:18:18 7310 21 2 R 1 1 5 self immoralSelf H h 1 0.3585 
12-May-2018_16:18:20 7310 21 2 R 1 1 6 self moralSelf H h 1 0.3566 
12-May-2018_16:18:21 7310 21 2 R 1 1 7 self immoralOther J j 1 0.3866 
12-May-2018_16:18:23 7310 21 2 R 1 1 8 self moralSelf H h 1 0.3567 
12-May-2018_16:18:25 7310 21 2 R 1 1 9 self immoralSelf H h 1 0.3908 
12-May-2018_16:18:27 7310 21 2 R 1 1 10 self immoralOther J h 0 0.5169 
12-May-2018_16:18:28 7310 21 2 R 1 1 11 self moralOther J j 1 0.4210 
12-May-2018_16:18:30 7310 21 2 R 1 1 12 self moralOther J j 1 0.3532 
12-May-2018_16:18:32 7310 21 2 R 1 1 13 self immoralOther J j 1 0.5572 
12-May-2018_16:18:34 7310 21 2 R 1 1 14 self moralOther J j 1 0.5114 
12-May-2018_16:18:35 7310 21 2 R 1 1 15 self moralSelf H h 1 0.3794 
12-May-2018_16:18:37 7310 21 2 R 1 1 16 self immoralOther J j 1 0.5955 
12-May-2018_16:18:39 7310 21 2 R 1 1 17 self immoralOther J j 1 0.4197 
12-May-2018_16:18:41 7310 21 2 R 1 1 18 self immoralSelf H h 1 0.4837 
12-May-2018_16:18:43 7310 21 2 R 1 1 19 self immoralSelf H h 1 0.4139 
12-May-2018_16:18:44 7310 21 2 R 1 1 20 self moralSelf H h 1 0.3480 
12-May-2018_16:18:46 7310 21 2 R 1 1 21 self moralOther J j 1 0.4401 
12-May-2018_16:18:47 7310 21 2 R 1 1 22 self immoralOther J j 1 0.5601 
12-May-2018_16:18:49 7310 21 2 R 1 1 23 self moralOther J j 1 0.5082 
12-May-2018_16:18:50 7310 21 2 R 1 1 24 self immoralSelf H h 1 0.5643 
12-May-2018_16:18:52 7310 21 2 R 1 2 1 self moralOther J j 1 0.4183 
12-May-2018_16:18:54 7310 21 2 R 1 2 2 self immoralSelf H h 1 0.5444 
12-May-2018_16:18:55 7310 21 2 R 1 2 3 self moralSelf H h 1 0.3846 
12-May-2018_16:18:57 7310 21 2 R 1 2 4 self moralSelf H h 1 0.4807 
12-May-2018_16:18:58 7310 21 2 R 1 2 5 self immoralOther J j 1 0.3828 
12-May-2018_16:19:00 7310 21 2 R 1 2 6 self moralSelf H h 1 0.4388 
12-May-2018_16:19:01 7310 21 2 R 1 2 7 self immoralOther J j 1 0.5169 
12-May-2018_16:19:03 7310 21 2 R 1 2 8 self immoralOther J j 1 0.3250 
12-May-2018_16:19:05 7310 21 2 R 1 2 9 self moralOther J j 1 0.4811 
12-May-2018_16:19:07 7310 21 2 R 1 2 10 self immoralSelf H h 1 0.5112 
12-May-2018_16:19:08 7310 21 2 R 1 2 11 self immoralOther J j 1 0.3733 
12-May-2018_16:19:10 7310 21 2 R 1 2 12 self immoralSelf H h 1 0.5774 
12-May-2018_16:19:12 7310 21 2 R 1 2 13 self immoralOther J j 1 0.4256 
12-May-2018_16:19:14 7310 21 2 R 1 2 14 self moralOther J j 1 0.6536 
12-May-2018_16:19:16 7310 21 2 R 1 2 15 self immoralSelf H h 1 0.3337 
12-May-2018_16:19:18 7310 21 2 R 1 2 16 self moralOther J j 1 0.4578 
12-May-2018_16:19:19 7310 21 2 R 1 2 17 self moralSelf H h 1 0.3940 
12-May-2018_16:19:21 7310 21 2 R 1 2 18 self moralOther J j 1 0.3720 
12-May-2018_16:19:22 7310 21 2 R 1 2 19 self moralSelf H h 1 0.4221 
12-May-2018_16:19:24 7310 21 2 R 1 2 20 self immoralSelf H h 1 0.4401 
12-May-2018_16:19:26 7310 21 2 R 1 2 21 self moralOther J j 1 0.3383 
12-May-2018_16:19:27 7310 21 2 R 1 2 22 self immoralSelf H h 1 0.2784 
12-May-2018_16:19:29 7310 21 2 R 1 2 23 self immoralOther J j 1 0.4024 
12-May-2018_16:19:31 7310 21 2 R 1 2 24 self moralSelf H h 1 0.4066 
12-May-2018_16:19:57 7310 21 2 R 1 3 1 self immoralSelf H h 1 0.4320 
12-May-2018_16:19:59 7310 21 2 R 1 3 2 self immoralOther J j 1 0.5101 
12-May-2018_16:20:01 7310 21 2 R 1 3 3 self immoralOther J j 1 0.4983 
12-May-2018_16:20:02 7310 21 2 R 1 3 4 self moralSelf H h 1 0.4384 
12-May-2018_16:20:04 7310 21 2 R 1 3 5 self moralOther J j 1 0.4385 
12-May-2018_16:20:06 7310 21 2 R 1 3 6 self moralSelf H h 1 0.3706 
12-May-2018_16:20:08 7310 21 2 R 1 3 7 self moralOther J j 1 0.3906 
12-May-2018_16:20:09 7310 21 2 R 1 3 8 self immoralOther J h 0 0.3908 
12-May-2018_16:20:11 7310 21 2 R 1 3 9 self immoralSelf H h 1 0.5049 
12-May-2018_16:20:13 7310 21 2 R 1 3 10 self moralSelf H h 1 0.4650 
12-May-2018_16:20:14 7310 21 2 R 1 3 11 self moralOther J j 1 0.4030 
12-May-2018_16:20:16 7310 21 2 R 1 3 12 self immoralOther J j 1 0.7371 
12-May-2018_16:20:18 7310 21 2 R 1 3 13 self moralSelf H h 1 0.4752 
12-May-2018_16:20:19 7310 21 2 R 1 3 14 self immoralSelf H h 1 0.3273 
12-May-2018_16:20:21 7310 21 2 R 1 3 15 self moralOther J j 1 0.3595 
12-May-2018_16:20:23 7310 21 2 R 1 3 16 self moralSelf H h 1 0.4335 
12-May-2018_16:20:25 7310 21 2 R 1 3 17 self moralSelf H h 1 0.3936 
12-May-2018_16:20:27 7310 21 2 R 1 3 18 self immoralOther J j 1 0.4137 
12-May-2018_16:20:29 7310 21 2 R 1 3 19 self moralOther J j 1 0.6538 
12-May-2018_16:20:30 7310 21 2 R 1 3 20 self immoralSelf H h 1 0.3720 
12-May-2018_16:20:32 7310 21 2 R 1 3 21 self immoralSelf H h 1 0.4481 
12-May-2018_16:20:33 7310 21 2 R 1 3 22 self immoralSelf H h 1 0.3159 
12-May-2018_16:20:35 7310 21 2 R 1 3 23 self immoralOther J h 0 0.4002 
12-May-2018_16:20:37 7310 21 2 R 1 3 24 self moralOther J j 1 0.4683 
12-May-2018_16:20:38 7310 21 2 R 1 4 1 self immoralOther J h 0 0.4584 
12-May-2018_16:20:40 7310 21 2 R 1 4 2 self moralSelf H h 1 0.3884 
12-May-2018_16:20:41 7310 21 2 R 1 4 3 self immoralOther J j 1 0.3726 
12-May-2018_16:20:43 7310 21 2 R 1 4 4 self immoralSelf H h 1 0.4326 
12-May-2018_16:20:45 7310 21 2 R 1 4 5 self moralSelf H h 1 0.4228 
12-May-2018_16:20:46 7310 21 2 R 1 4 6 self moralSelf H h 1 0.4168 
12-May-2018_16:20:47 7310 21 2 R 1 4 7 self moralOther J j 1 0.4009 
12-May-2018_16:20:49 7310 21 2 R 1 4 8 self immoralOther J j 1 0.4890 
12-May-2018_16:20:50 7310 21 2 R 1 4 9 self immoralSelf H h 1 0.4831 
12-May-2018_16:20:52 7310 21 2 R 1 4 10 self immoralOther J j 1 0.6972 
12-May-2018_16:20:54 7310 21 2 R 1 4 11 self immoralSelf H h 1 0.4333 
12-May-2018_16:20:56 7310 21 2 R 1 4 12 self moralOther J j 1 0.5274 
12-May-2018_16:20:57 7310 21 2 R 1 4 13 self moralOther J j 1 0.5015 
12-May-2018_16:20:59 7310 21 2 R 1 4 14 self moralSelf H h 1 0.4216 
12-May-2018_16:21:00 7310 21 2 R 1 4 15 self immoralOther J j 1 0.3456 
12-May-2018_16:21:02 7310 21 2 R 1 4 16 self moralOther J j 1 0.4558 
12-May-2018_16:21:03 7310 21 2 R 1 4 17 self immoralSelf H h 1 0.4699 
12-May-2018_16:21:05 7310 21 2 R 1 4 18 self immoralOther J j 1 0.3559 
12-May-2018_16:21:06 7310 21 2 R 1 4 19 self moralSelf H h 1 0.3902 
12-May-2018_16:21:08 7310 21 2 R 1 4 20 self immoralSelf H h 1 0.3561 
12-May-2018_16:21:10 7310 21 2 R 1 4 21 self moralSelf H h 1 0.3882 
12-May-2018_16:21:11 7310 21 2 R 1 4 22 self moralOther J j 1 0.3603 
12-May-2018_16:21:13 7310 21 2 R 1 4 23 self moralOther J j 1 0.4644 
12-May-2018_16:21:15 7310 21 2 R 1 4 24 self immoralSelf H h 1 0.5025 
12-May-2018_16:21:28 7310 21 2 R 1 5 1 self moralOther J j 1 0.4452 
12-May-2018_16:21:29 7310 21 2 R 1 5 2 self moralOther J j 1 0.3453 
12-May-2018_16:21:31 7310 21 2 R 1 5 3 self moralSelf H h 1 0.5314 
12-May-2018_16:21:33 7310 21 2 R 1 5 4 self immoralOther J j 1 0.3715 
12-May-2018_16:21:35 7310 21 2 R 1 5 5 self immoralSelf H h 1 0.3677 
12-May-2018_16:21:36 7310 21 2 R 1 5 6 self moralOther J j 1 0.3598 
12-May-2018_16:21:38 7310 21 2 R 1 5 7 self immoralOther J h 0 0.3518 
12-May-2018_16:21:39 7310 21 2 R 1 5 8 self moralSelf H h 1 0.4059 
12-May-2018_16:21:41 7310 21 2 R 1 5 9 self immoralSelf H h 1 0.3980 
12-May-2018_16:21:43 7310 21 2 R 1 5 10 self immoralOther J j 1 0.3820 
12-May-2018_16:21:44 7310 21 2 R 1 5 11 self immoralOther J j 1 0.4261 
12-May-2018_16:21:46 7310 21 2 R 1 5 12 self immoralSelf H h 1 0.3442 
12-May-2018_16:21:47 7310 21 2 R 1 5 13 self moralOther J j 1 0.4083 
12-May-2018_16:21:49 7310 21 2 R 1 5 14 self immoralSelf H h 1 0.5405 
12-May-2018_16:21:51 7310 21 2 R 1 5 15 self moralSelf H h 1 0.4045 
12-May-2018_16:21:52 7310 21 2 R 1 5 16 self moralSelf H h 1 0.3646 
12-May-2018_16:21:54 7310 21 2 R 1 5 17 self moralOther J j 1 0.3807 
12-May-2018_16:21:56 7310 21 2 R 1 5 18 self moralOther J j 1 0.3508 
12-May-2018_16:21:57 7310 21 2 R 1 5 19 self immoralSelf H h 1 0.4029 
12-May-2018_16:21:59 7310 21 2 R 1 5 20 self immoralOther J j 1 0.6010 
12-May-2018_16:22:01 7310 21 2 R 1 5 21 self moralSelf H h 1 0.4272 
12-May-2018_16:22:03 7310 21 2 R 1 5 22 self immoralSelf H h 1 0.5232 
12-May-2018_16:22:04 7310 21 2 R 1 5 23 self moralSelf H h 1 0.3793 
12-May-2018_16:22:06 7310 21 2 R 1 5 24 self immoralOther J j 1 0.3794 
Date Sub Age Sex Hand Block Bin Trial Task Shape corrResp Resp ACC RT
12-May-2018_16:24:38 7310 21 2 R 2 1 1 moral moralOther U u 1 0.3580 
12-May-2018_16:24:40 7310 21 2 R 2 1 2 moral moralOther U u 1 0.4741 
12-May-2018_16:24:42 7310 21 2 R 2 1 3 moral moralSelf U u 1 0.4122 
12-May-2018_16:24:43 7310 21 2 R 2 1 4 moral immoralOther Y y 1 0.4203 
12-May-2018_16:24:45 7310 21 2 R 2 1 5 moral moralSelf U u 1 0.4004 
12-May-2018_16:24:46 7310 21 2 R 2 1 6 moral immoralSelf Y y 1 0.4225 
12-May-2018_16:24:48 7310 21 2 R 2 1 7 moral immoralOther Y y 1 0.5166 
12-May-2018_16:24:50 7310 21 2 R 2 1 8 moral immoralOther Y y 1 0.4426 
12-May-2018_16:24:51 7310 21 2 R 2 1 9 moral immoralSelf Y y 1 0.4387 
12-May-2018_16:24:53 7310 21 2 R 2 1 10 moral immoralOther Y y 1 0.4049 
12-May-2018_16:24:55 7310 21 2 R 2 1 11 moral immoralOther Y y 1 0.3870 
12-May-2018_16:24:57 7310 21 2 R 2 1 12 moral immoralSelf Y y 1 0.3891 
12-May-2018_16:24:58 7310 21 2 R 2 1 13 moral moralOther U u 1 0.3531 
12-May-2018_16:25:00 7310 21 2 R 2 1 14 moral immoralSelf Y y 1 0.4592 
12-May-2018_16:25:01 7310 21 2 R 2 1 15 moral moralOther U u 1 0.3233 
12-May-2018_16:25:03 7310 21 2 R 2 1 16 moral immoralSelf Y y 1 0.4954 
12-May-2018_16:25:05 7310 21 2 R 2 1 17 moral moralSelf U u 1 0.4735 
12-May-2018_16:25:06 7310 21 2 R 2 1 18 moral moralSelf U u 1 0.4076 
12-May-2018_16:25:08 7310 21 2 R 2 1 19 moral moralOther U u 1 0.4217 
12-May-2018_16:25:09 7310 21 2 R 2 1 20 moral moralOther U u 1 0.2898 
12-May-2018_16:25:11 7310 21 2 R 2 1 21 moral moralSelf U u 1 0.4259 
12-May-2018_16:25:12 7310 21 2 R 2 1 22 moral immoralOther Y y 1 0.4020 
12-May-2018_16:25:14 7310 21 2 R 2 1 23 moral immoralSelf Y y 1 0.4022 
12-May-2018_16:25:16 7310 21 2 R 2 1 24 moral moralSelf U u 1 0.5461 
12-May-2018_16:25:18 7310 21 2 R 2 2 1 moral moralSelf U u 1 0.2883 
12-May-2018_16:25:19 7310 21 2 R 2 2 2 moral moralSelf U u 1 0.2963 
12-May-2018_16:25:21 7310 21 2 R 2 2 3 moral moralSelf U u 1 0.3244 
12-May-2018_16:25:22 7310 21 2 R 2 2 4 moral moralOther U u 1 0.4225 
12-May-2018_16:25:24 7310 21 2 R 2 2 5 moral moralSelf U u 1 0.3766 
12-May-2018_16:25:25 7310 21 2 R 2 2 6 moral moralOther U u 1 0.3767 
12-May-2018_16:25:27 7310 21 2 R 2 2 7 moral moralOther U u 1 0.3028 
12-May-2018_16:25:28 7310 21 2 R 2 2 8 moral immoralSelf Y y 1 0.4828 
12-May-2018_16:25:30 7310 21 2 R 2 2 9 moral immoralOther Y u 0 0.4190 
12-May-2018_16:25:32 7310 21 2 R 2 2 10 moral immoralOther Y y 1 0.6471 
12-May-2018_16:25:34 7310 21 2 R 2 2 11 moral moralOther U u 1 0.3773 
12-May-2018_16:25:35 7310 21 2 R 2 2 12 moral immoralSelf Y y 1 0.4073 
12-May-2018_16:25:37 7310 21 2 R 2 2 13 moral immoralSelf Y y 1 0.3933 
12-May-2018_16:25:39 7310 21 2 R 2 2 14 moral immoralSelf Y y 1 0.4194 
12-May-2018_16:25:40 7310 21 2 R 2 2 15 moral immoralOther Y y 1 0.5155 
12-May-2018_16:25:42 7310 21 2 R 2 2 16 moral immoralOther Y y 1 0.5096 
12-May-2018_16:25:44 7310 21 2 R 2 2 17 moral moralSelf U u 1 0.8097 
12-May-2018_16:25:46 7310 21 2 R 2 2 18 moral immoralSelf Y y 1 0.3898 
12-May-2018_16:25:47 7310 21 2 R 2 2 19 moral moralOther U u 1 0.2900 
12-May-2018_16:25:49 7310 21 2 R 2 2 20 moral immoralOther Y y 1 0.3980 
12-May-2018_16:25:51 7310 21 2 R 2 2 21 moral moralSelf U u 1 0.5441 
12-May-2018_16:25:52 7310 21 2 R 2 2 22 moral immoralOther Y y 1 0.3982 
12-May-2018_16:25:54 7310 21 2 R 2 2 23 moral immoralSelf Y y 1 0.4464 
12-May-2018_16:25:56 7310 21 2 R 2 2 24 moral moralOther U u 1 0.3985 
12-May-2018_16:26:06 7310 21 2 R 2 3 1 moral immoralOther Y y 1 0.4150 
12-May-2018_16:26:08 7310 21 2 R 2 3 2 moral immoralSelf Y y 1 0.4070 
12-May-2018_16:26:09 7310 21 2 R 2 3 3 moral immoralOther Y y 1 0.4492 
12-May-2018_16:26:11 7310 21 2 R 2 3 4 moral immoralSelf Y y 1 0.3472 
12-May-2018_16:26:12 7310 21 2 R 2 3 5 moral immoralOther Y y 1 0.3493 
12-May-2018_16:26:14 7310 21 2 R 2 3 6 moral immoralSelf Y y 1 0.3474 
12-May-2018_16:26:15 7310 21 2 R 2 3 7 moral immoralSelf Y y 1 0.3275 
12-May-2018_16:26:17 7310 21 2 R 2 3 8 moral immoralOther Y y 1 0.4396 
12-May-2018_16:26:18 7310 21 2 R 2 3 9 moral moralOther U u 1 0.3057 
12-May-2018_16:26:20 7310 21 2 R 2 3 10 moral moralSelf U y 0 0.3258 
12-May-2018_16:26:22 7310 21 2 R 2 3 11 moral moralOther U u 1 0.4559 
12-May-2018_16:26:23 7310 21 2 R 2 3 12 moral moralSelf U u 1 0.3180 
12-May-2018_16:26:25 7310 21 2 R 2 3 13 moral moralSelf U u 1 0.3121 
12-May-2018_16:26:27 7310 21 2 R 2 3 14 moral moralOther U u 1 0.3522 
12-May-2018_16:26:28 7310 21 2 R 2 3 15 moral immoralSelf Y y 1 0.3662 
12-May-2018_16:26:30 7310 21 2 R 2 3 16 moral immoralSelf Y y 1 0.3203 
12-May-2018_16:26:32 7310 21 2 R 2 3 17 moral moralSelf U u 1 0.4985 
12-May-2018_16:26:33 7310 21 2 R 2 3 18 moral moralOther U u 1 0.4086 
12-May-2018_16:26:35 7310 21 2 R 2 3 19 moral moralSelf U u 1 0.4186 
12-May-2018_16:26:37 7310 21 2 R 2 3 20 moral moralSelf U u 1 0.3168 
12-May-2018_16:26:39 7310 21 2 R 2 3 21 moral immoralOther Y y 1 0.4908 
12-May-2018_16:26:40 7310 21 2 R 2 3 22 moral moralOther U u 1 0.3710 
12-May-2018_16:26:42 7310 21 2 R 2 3 23 moral immoralOther Y u 0 0.3990 
12-May-2018_16:26:43 7310 21 2 R 2 3 24 moral moralOther U u 1 0.4111 
12-May-2018_16:26:45 7310 21 2 R 2 4 1 moral immoralSelf Y y 1 0.4612 
12-May-2018_16:26:47 7310 21 2 R 2 4 2 moral moralOther U u 1 0.3674 
12-May-2018_16:26:48 7310 21 2 R 2 4 3 moral immoralOther Y y 1 0.5534 
12-May-2018_16:26:50 7310 21 2 R 2 4 4 moral immoralSelf Y y 1 0.3955 
12-May-2018_16:26:52 7310 21 2 R 2 4 5 moral immoralOther Y y 1 0.4415 
12-May-2018_16:26:54 7310 21 2 R 2 4 6 moral immoralSelf Y y 1 0.5217 
12-May-2018_16:26:55 7310 21 2 R 2 4 7 moral immoralOther Y y 1 0.4398 
12-May-2018_16:26:57 7310 21 2 R 2 4 8 moral moralOther U u 1 0.4219 
12-May-2018_16:26:58 7310 21 2 R 2 4 9 moral moralOther U u 1 0.3239 
12-May-2018_16:27:00 7310 21 2 R 2 4 10 moral moralOther U u 1 0.3320 
12-May-2018_16:27:02 7310 21 2 R 2 4 11 moral moralOther U u 1 0.3002 
12-May-2018_16:27:03 7310 21 2 R 2 4 12 moral immoralSelf Y y 1 0.5182 
12-May-2018_16:27:05 7310 21 2 R 2 4 13 moral moralSelf U u 1 0.3984 
12-May-2018_16:27:07 7310 21 2 R 2 4 14 moral moralSelf U u 1 0.3885 
12-May-2018_16:27:08 7310 21 2 R 2 4 15 moral moralOther U u 1 0.3806 
12-May-2018_16:27:10 7310 21 2 R 2 4 16 moral immoralOther Y y 1 0.5366 
12-May-2018_16:27:12 7310 21 2 R 2 4 17 moral moralSelf U u 1 0.3727 
12-May-2018_16:27:13 7310 21 2 R 2 4 18 moral moralSelf U u 1 0.3829 
12-May-2018_16:27:15 7310 21 2 R 2 4 19 moral immoralOther Y y 1 0.4270 
12-May-2018_16:27:17 7310 21 2 R 2 4 20 moral immoralSelf Y y 1 0.3910 
12-May-2018_16:27:18 7310 21 2 R 2 4 21 moral immoralOther Y y 1 0.4511 
12-May-2018_16:27:20 7310 21 2 R 2 4 22 moral moralSelf U u 1 0.4812 
12-May-2018_16:27:22 7310 21 2 R 2 4 23 moral immoralSelf Y y 1 0.4033 
12-May-2018_16:27:24 7310 21 2 R 2 4 24 moral moralSelf U u 1 0.4134 
12-May-2018_16:27:34 7310 21 2 R 2 5 1 moral immoralSelf Y y 1 0.4979 
12-May-2018_16:27:36 7310 21 2 R 2 5 2 moral immoralOther Y y 1 0.5401 
12-May-2018_16:27:38 7310 21 2 R 2 5 3 moral moralSelf U u 1 0.4223 
12-May-2018_16:27:40 7310 21 2 R 2 5 4 moral immoralOther Y y 1 0.3863 
12-May-2018_16:27:41 7310 21 2 R 2 5 5 moral immoralOther Y y 1 0.3584 
12-May-2018_16:27:43 7310 21 2 R 2 5 6 moral moralSelf U u 1 0.5205 
12-May-2018_16:27:45 7310 21 2 R 2 5 7 moral immoralOther Y y 1 0.4286 
12-May-2018_16:27:47 7310 21 2 R 2 5 8 moral immoralSelf Y y 1 0.4387 
12-May-2018_16:27:48 7310 21 2 R 2 5 9 moral moralOther U u 1 0.3168 
12-May-2018_16:27:50 7310 21 2 R 2 5 10 moral immoralSelf Y y 1 0.4429 
12-May-2018_16:27:51 7310 21 2 R 2 5 11 moral moralOther U u 1 0.3391 
12-May-2018_16:27:53 7310 21 2 R 2 5 12 moral moralSelf U u 1 0.5470 
12-May-2018_16:27:55 7310 21 2 R 2 5 13 moral moralOther U u 1 0.5612 
12-May-2018_16:27:57 7310 21 2 R 2 5 14 moral immoralSelf Y y 1 0.5453 
12-May-2018_16:27:58 7310 21 2 R 2 5 15 moral moralOther U u 1 0.3614 
12-May-2018_16:28:00 7310 21 2 R 2 5 16 moral moralOther U u 1 0.3815 
12-May-2018_16:28:02 7310 21 2 R 2 5 17 moral moralSelf U u 1 0.4895 
12-May-2018_16:28:03 7310 21 2 R 2 5 18 moral moralOther U u 1 0.3876 
12-May-2018_16:28:05 7310 21 2 R 2 5 19 moral immoralOther Y y 1 0.3918 
12-May-2018_16:28:06 7310 21 2 R 2 5 20 moral immoralSelf Y y 1 0.4318 
12-May-2018_16:28:08 7310 21 2 R 2 5 21 moral moralSelf U u 1 0.3660 
12-May-2018_16:28:10 7310 21 2 R 2 5 22 moral immoralSelf Y y 1 0.4301 
12-May-2018_16:28:11 7310 21 2 R 2 5 23 moral immoralOther Y y 1 0.5041 
12-May-2018_16:28:13 7310 21 2 R 2 5 24 moral moralSelf U y 0 0.3822 
Date Sub Age Sex Hand Block Bin Trial Task Shape corrResp Resp ACC RT
12-May-2018_16:30:41 7310 21 2 R 3 1 1 self immoralSelf H h 1 0.4946 
12-May-2018_16:30:42 7310 21 2 R 3 1 2 self immoralSelf H h 1 0.4606 
12-May-2018_16:30:44 7310 21 2 R 3 1 3 self moralSelf H h 1 0.3908 
12-May-2018_16:30:45 7310 21 2 R 3 1 4 self moralOther J j 1 0.4128 
12-May-2018_16:30:47 7310 21 2 R 3 1 5 self moralOther J j 1 0.3590 
12-May-2018_16:30:49 7310 21 2 R 3 1 6 self immoralOther J j 1 0.6630 
12-May-2018_16:30:50 7310 21 2 R 3 1 7 self moralOther J j 1 0.4771 
12-May-2018_16:30:52 7310 21 2 R 3 1 8 self moralOther J j 1 0.3972 
12-May-2018_16:30:54 7310 21 2 R 3 1 9 self immoralOther J j 1 0.5933 
12-May-2018_16:30:55 7310 21 2 R 3 1 10 self moralOther J j 1 0.3715 
12-May-2018_16:30:57 7310 21 2 R 3 1 11 self immoralSelf H h 1 0.4896 
12-May-2018_16:30:59 7310 21 2 R 3 1 12 self immoralSelf H h 1 0.3876 
12-May-2018_16:31:00 7310 21 2 R 3 1 13 self moralSelf H h 1 0.4077 
12-May-2018_16:31:02 7310 21 2 R 3 1 14 self moralSelf H h 1 0.3677 
12-May-2018_16:31:04 7310 21 2 R 3 1 15 self immoralSelf H h 1 0.4659 
12-May-2018_16:31:06 7310 21 2 R 3 1 16 self immoralOther J j 1 0.5179 
12-May-2018_16:31:07 7310 21 2 R 3 1 17 self immoralOther J j 1 0.3920 
12-May-2018_16:31:09 7310 21 2 R 3 1 18 self moralOther J j 1 0.5082 
12-May-2018_16:31:11 7310 21 2 R 3 1 19 self moralSelf H h 1 0.5782 
12-May-2018_16:31:13 7310 21 2 R 3 1 20 self immoralOther J j 1 0.5264 
12-May-2018_16:31:15 7310 21 2 R 3 1 21 self moralSelf H h 1 0.3426 
12-May-2018_16:31:16 7310 21 2 R 3 1 22 self immoralSelf H h 1 0.4286 
12-May-2018_16:31:18 7310 21 2 R 3 1 23 self moralSelf H h 1 0.3967 
12-May-2018_16:31:20 7310 21 2 R 3 1 24 self immoralOther J j 1 0.5087 
12-May-2018_16:31:22 7310 21 2 R 3 2 1 self immoralOther J j 1 0.3569 
12-May-2018_16:31:23 7310 21 2 R 3 2 2 self immoralSelf H h 1 0.4669 
12-May-2018_16:31:25 7310 21 2 R 3 2 3 self immoralOther J j 1 0.5471 
12-May-2018_16:31:26 7310 21 2 R 3 2 4 self immoralSelf H h 1 0.3711 
12-May-2018_16:31:28 7310 21 2 R 3 2 5 self moralSelf H h 1 0.3272 
12-May-2018_16:31:30 7310 21 2 R 3 2 6 self immoralSelf H h 1 0.4534 
12-May-2018_16:31:31 7310 21 2 R 3 2 7 self moralSelf H h 1 0.3734 
12-May-2018_16:31:33 7310 21 2 R 3 2 8 self moralOther J j 1 0.4855 
12-May-2018_16:31:34 7310 21 2 R 3 2 9 self moralOther J j 1 0.3296 
12-May-2018_16:31:36 7310 21 2 R 3 2 10 self immoralSelf H h 1 0.4837 
12-May-2018_16:31:37 7310 21 2 R 3 2 11 self moralOther J j 1 0.4618 
12-May-2018_16:31:39 7310 21 2 R 3 2 12 self immoralOther J j 1 0.5359 
12-May-2018_16:31:41 7310 21 2 R 3 2 13 self moralSelf H h 1 0.4279 
12-May-2018_16:31:43 7310 21 2 R 3 2 14 self immoralSelf H h 1 0.4821 
12-May-2018_16:31:45 7310 21 2 R 3 2 15 self moralSelf H h 1 0.3721 
12-May-2018_16:31:46 7310 21 2 R 3 2 16 self immoralSelf H h 1 0.5303 
12-May-2018_16:31:48 7310 21 2 R 3 2 17 self immoralOther J j 1 0.5503 
12-May-2018_16:31:49 7310 21 2 R 3 2 18 self immoralOther J j 1 0.3624 
12-May-2018_16:31:51 7310 21 2 R 3 2 19 self immoralOther J j 1 0.4226 
12-May-2018_16:31:52 7310 21 2 R 3 2 20 self moralOther J j 1 0.4387 
12-May-2018_16:31:54 7310 21 2 R 3 2 21 self moralOther J j 1 0.3268 
12-May-2018_16:31:56 7310 21 2 R 3 2 22 self moralSelf H h 1 0.3868 
12-May-2018_16:31:57 7310 21 2 R 3 2 23 self moralSelf H h 1 0.3449 
12-May-2018_16:31:59 7310 21 2 R 3 2 24 self moralOther J j 1 0.4252 
12-May-2018_16:32:09 7310 21 2 R 3 3 1 self moralOther J j 1 0.4355 
12-May-2018_16:32:11 7310 21 2 R 3 3 2 self immoralSelf H h 1 0.4116 
12-May-2018_16:32:12 7310 21 2 R 3 3 3 self immoralSelf H h 1 0.3757 
12-May-2018_16:32:14 7310 21 2 R 3 3 4 self moralSelf H h 1 0.4478 
12-May-2018_16:32:15 7310 21 2 R 3 3 5 self moralOther J j 1 0.3619 
12-May-2018_16:32:17 7310 21 2 R 3 3 6 self immoralOther J j 1 0.4640 
12-May-2018_16:32:19 7310 21 2 R 3 3 7 self moralSelf H h 1 0.3422 
12-May-2018_16:32:20 7310 21 2 R 3 3 8 self immoralSelf H h 1 0.5162 
12-May-2018_16:32:22 7310 21 2 R 3 3 9 self immoralSelf H h 1 0.3803 
12-May-2018_16:32:24 7310 21 2 R 3 3 10 self immoralOther J j 1 0.4444 
12-May-2018_16:32:25 7310 21 2 R 3 3 11 self moralSelf H h 1 0.3565 
12-May-2018_16:32:27 7310 21 2 R 3 3 12 self moralOther J j 1 0.3206 
12-May-2018_16:32:29 7310 21 2 R 3 3 13 self moralOther J j 1 0.3607 
12-May-2018_16:32:31 7310 21 2 R 3 3 14 self immoralSelf H h 1 0.3708 
12-May-2018_16:32:32 7310 21 2 R 3 3 15 self immoralOther J j 1 0.4969 
12-May-2018_16:32:34 7310 21 2 R 3 3 16 self moralSelf H h 1 0.3450 
12-May-2018_16:32:35 7310 21 2 R 3 3 17 self moralOther J j 1 0.3411 
12-May-2018_16:32:37 7310 21 2 R 3 3 18 self immoralOther J j 1 0.4551 
12-May-2018_16:32:39 7310 21 2 R 3 3 19 self immoralOther J j 1 0.4512 
12-May-2018_16:32:41 7310 21 2 R 3 3 20 self moralSelf H h 1 0.5013 
12-May-2018_16:32:43 7310 21 2 R 3 3 21 self immoralSelf H h 1 0.4935 
12-May-2018_16:32:44 7310 21 2 R 3 3 22 self immoralOther J j 1 0.4153 
12-May-2018_16:32:46 7310 21 2 R 3 3 23 self moralSelf H h 1 0.4137 
12-May-2018_16:32:48 7310 21 2 R 3 3 24 self moralOther J j 1 0.3597 
12-May-2018_16:32:49 7310 21 2 R 3 4 1 self moralOther J j 1 0.4498 
12-May-2018_16:32:51 7310 21 2 R 3 4 2 self moralSelf H h 1 0.4879 
12-May-2018_16:32:52 7310 21 2 R 3 4 3 self moralOther J j 1 0.3340 
12-May-2018_16:32:54 7310 21 2 R 3 4 4 self moralSelf H h 1 0.4101 
12-May-2018_16:32:55 7310 21 2 R 3 4 5 self immoralSelf H h 1 0.4822 
12-May-2018_16:32:57 7310 21 2 R 3 4 6 self immoralSelf H h 1 0.3282 
12-May-2018_16:32:58 7310 21 2 R 3 4 7 self moralOther J j 1 0.3564 
12-May-2018_16:33:00 7310 21 2 R 3 4 8 self moralSelf H h 1 0.3265 
12-May-2018_16:33:02 7310 21 2 R 3 4 9 self immoralOther J j 1 0.3965 
12-May-2018_16:33:04 7310 21 2 R 3 4 10 self moralOther J j 1 0.3947 
12-May-2018_16:33:05 7310 21 2 R 3 4 11 self immoralOther J j 1 0.5688 
12-May-2018_16:33:07 7310 21 2 R 3 4 12 self moralOther J j 1 0.3448 
12-May-2018_16:33:08 7310 21 2 R 3 4 13 self moralSelf H h 1 0.3730 
12-May-2018_16:33:10 7310 21 2 R 3 4 14 self immoralOther J j 1 0.5070 
12-May-2018_16:33:12 7310 21 2 R 3 4 15 self immoralSelf H h 1 0.4192 
12-May-2018_16:33:14 7310 21 2 R 3 4 16 self immoralSelf H h 1 0.4673 
12-May-2018_16:33:16 7310 21 2 R 3 4 17 self immoralOther J j 1 0.4915 
12-May-2018_16:33:17 7310 21 2 R 3 4 18 self moralSelf H h 1 0.3734 
12-May-2018_16:33:19 7310 21 2 R 3 4 19 self immoralSelf H h 1 0.4696 
12-May-2018_16:33:20 7310 21 2 R 3 4 20 self moralSelf H h 1 0.5156 
12-May-2018_16:33:22 7310 21 2 R 3 4 21 self moralOther J j 1 0.3597 
12-May-2018_16:33:23 7310 21 2 R 3 4 22 self immoralSelf H h 1 0.3538 
12-May-2018_16:33:25 7310 21 2 R 3 4 23 self immoralOther J j 1 0.4559 
12-May-2018_16:33:26 7310 21 2 R 3 4 24 self immoralOther J j 1 0.4439 
12-May-2018_16:33:45 7310 21 2 R 3 5 1 self moralOther J j 1 0.4050 
12-May-2018_16:33:47 7310 21 2 R 3 5 2 self immoralOther J j 1 0.6171 
12-May-2018_16:33:49 7310 21 2 R 3 5 3 self immoralOther J j 1 0.5032 
12-May-2018_16:33:51 7310 21 2 R 3 5 4 self moralSelf H h 1 0.4633 
12-May-2018_16:33:52 7310 21 2 R 3 5 5 self immoralSelf H h 1 0.3174 
12-May-2018_16:33:54 7310 21 2 R 3 5 6 self moralOther J j 1 0.3695 
12-May-2018_16:33:55 7310 21 2 R 3 5 7 self moralSelf H h 1 0.4056 
12-May-2018_16:33:57 7310 21 2 R 3 5 8 self moralOther J j 1 0.3857 
12-May-2018_16:33:58 7310 21 2 R 3 5 9 self moralSelf H h 1 0.3197 
12-May-2018_16:34:00 7310 21 2 R 3 5 10 self moralSelf H h 1 0.4080 
12-May-2018_16:34:02 7310 21 2 R 3 5 11 self moralOther J j 1 0.3240 
12-May-2018_16:34:03 7310 21 2 R 3 5 12 self immoralSelf H h 1 0.3981 
12-May-2018_16:34:05 7310 21 2 R 3 5 13 self immoralOther J j 1 0.5141 
12-May-2018_16:34:06 7310 21 2 R 3 5 14 self immoralSelf H h 1 0.3103 
12-May-2018_16:34:08 7310 21 2 R 3 5 15 self moralSelf H h 1 0.3483 
12-May-2018_16:34:10 7310 21 2 R 3 5 16 self immoralOther J j 1 0.4224 
12-May-2018_16:34:12 7310 21 2 R 3 5 17 self immoralOther J j 1 0.5465 
12-May-2018_16:34:13 7310 21 2 R 3 5 18 self immoralSelf H h 1 0.5826 
12-May-2018_16:34:15 7310 21 2 R 3 5 19 self moralOther J j 1 0.3947 
12-May-2018_16:34:17 7310 21 2 R 3 5 20 self immoralOther J j 1 0.4768 
12-May-2018_16:34:19 7310 21 2 R 3 5 21 self immoralSelf H h 1 0.3650 
12-May-2018_16:34:21 7310 21 2 R 3 5 22 self immoralSelf H h 1 0.4070 
12-May-2018_16:34:22 7310 21 2 R 3 5 23 self moralSelf H h 1 0.4471 
12-May-2018_16:34:23 7310 21 2 R 3 5 24 self moralOther J j 1 0.3553 
Date Sub Age Sex Hand Block Bin Trial Task Shape corrResp Resp ACC RT
12-May-2018_16:36:39 7310 21 2 R 4 1 1 moral immoralSelf Y y 1 0.5569 
12-May-2018_16:36:41 7310 21 2 R 4 1 2 moral moralOther U u 1 0.3310 
12-May-2018_16:36:43 7310 21 2 R 4 1 3 moral immoralOther Y y 1 0.4550 
12-May-2018_16:36:44 7310 21 2 R 4 1 4 moral immoralSelf Y y 1 0.4272 
12-May-2018_16:36:46 7310 21 2 R 4 1 5 moral immoralOther Y y 1 0.4233 
12-May-2018_16:36:47 7310 21 2 R 4 1 6 moral moralOther U u 1 0.3434 
12-May-2018_16:36:49 7310 21 2 R 4 1 7 moral moralSelf U u 1 0.5414 
12-May-2018_16:36:51 7310 21 2 R 4 1 8 moral moralOther U u 1 0.3216 
12-May-2018_16:36:53 7310 21 2 R 4 1 9 moral moralSelf U u 1 0.3196 
12-May-2018_16:36:54 7310 21 2 R 4 1 10 moral moralSelf U u 1 0.3577 
12-May-2018_16:36:55 7310 21 2 R 4 1 11 moral moralSelf U u 1 0.3798 
12-May-2018_16:36:57 7310 21 2 R 4 1 12 moral immoralOther Y y 1 0.3698 
12-May-2018_16:36:59 7310 21 2 R 4 1 13 moral immoralSelf Y y 1 0.5139 
12-May-2018_16:37:00 7310 21 2 R 4 1 14 moral moralSelf U u 1 0.4861 
12-May-2018_16:37:02 7310 21 2 R 4 1 15 moral immoralOther Y y 1 0.5022 
12-May-2018_16:37:04 7310 21 2 R 4 1 16 moral immoralOther Y y 1 0.4164 
12-May-2018_16:37:05 7310 21 2 R 4 1 17 moral moralOther U u 1 0.3844 
12-May-2018_16:37:07 7310 21 2 R 4 1 18 moral moralSelf U u 1 0.3445 
12-May-2018_16:37:08 7310 21 2 R 4 1 19 moral moralOther U u 1 0.3466 
12-May-2018_16:37:09 7310 21 2 R 4 1 20 moral immoralSelf Y y 1 0.3466 
12-May-2018_16:37:11 7310 21 2 R 4 1 21 moral immoralOther Y y 1 0.4807 
12-May-2018_16:37:13 7310 21 2 R 4 1 22 moral moralOther U u 1 0.3468 
12-May-2018_16:37:14 7310 21 2 R 4 1 23 moral immoralSelf Y y 1 0.3549 
12-May-2018_16:37:16 7310 21 2 R 4 1 24 moral immoralSelf Y y 1 0.5770 
12-May-2018_16:37:18 7310 21 2 R 4 2 1 moral immoralOther Y y 1 0.3391 
12-May-2018_16:37:19 7310 21 2 R 4 2 2 moral moralSelf U y 0 0.3971 
12-May-2018_16:37:20 7310 21 2 R 4 2 3 moral immoralSelf Y y 1 0.4792 
12-May-2018_16:37:22 7310 21 2 R 4 2 4 moral immoralOther Y y 1 0.5173 
12-May-2018_16:37:24 7310 21 2 R 4 2 5 moral immoralSelf Y y 1 0.4454 
12-May-2018_16:37:26 7310 21 2 R 4 2 6 moral moralSelf U u 1 0.7936 
12-May-2018_16:37:28 7310 21 2 R 4 2 7 moral immoralSelf Y y 1 0.4257 
12-May-2018_16:37:30 7310 21 2 R 4 2 8 moral immoralOther Y y 1 0.5257 
12-May-2018_16:37:31 7310 21 2 R 4 2 9 moral moralOther U u 1 0.2978 
12-May-2018_16:37:33 7310 21 2 R 4 2 10 moral moralOther U u 1 0.3078 
12-May-2018_16:37:34 7310 21 2 R 4 2 11 moral moralOther U u 1 0.3000 
12-May-2018_16:37:36 7310 21 2 R 4 2 12 moral immoralOther Y y 1 0.4361 
12-May-2018_16:37:37 7310 21 2 R 4 2 13 moral moralOther U u 1 0.3622 
12-May-2018_16:37:39 7310 21 2 R 4 2 14 moral immoralSelf Y y 1 0.3603 
12-May-2018_16:37:40 7310 21 2 R 4 2 15 moral immoralSelf Y y 1 0.3884 
12-May-2018_16:37:42 7310 21 2 R 4 2 16 moral moralOther U u 1 0.3224 
12-May-2018_16:37:43 7310 21 2 R 4 2 17 moral moralSelf U u 1 0.4164 
12-May-2018_16:37:45 7310 21 2 R 4 2 18 moral immoralOther Y y 1 0.3967 
12-May-2018_16:37:47 7310 21 2 R 4 2 19 moral moralSelf U u 1 0.4608 
12-May-2018_16:37:48 7310 21 2 R 4 2 20 moral moralOther U u 1 0.3909 
12-May-2018_16:37:50 7310 21 2 R 4 2 21 moral moralSelf U u 1 0.4029 
12-May-2018_16:37:51 7310 21 2 R 4 2 22 moral immoralSelf Y y 1 0.4170 
12-May-2018_16:37:53 7310 21 2 R 4 2 23 moral moralSelf U u 1 0.4491 
12-May-2018_16:37:55 7310 21 2 R 4 2 24 moral immoralOther Y y 1 0.3711 
12-May-2018_16:38:03 7310 21 2 R 4 3 1 moral immoralOther Y y 1 0.4336 
12-May-2018_16:38:05 7310 21 2 R 4 3 2 moral immoralOther Y y 1 0.5057 
12-May-2018_16:38:06 7310 21 2 R 4 3 3 moral moralOther U u 1 0.3398 
12-May-2018_16:38:08 7310 21 2 R 4 3 4 moral moralOther U u 1 0.3119 
12-May-2018_16:38:10 7310 21 2 R 4 3 5 moral moralSelf U u 1 0.4701 
12-May-2018_16:38:12 7310 21 2 R 4 3 6 moral moralOther U u 1 0.3121 
12-May-2018_16:38:13 7310 21 2 R 4 3 7 moral immoralSelf Y y 1 0.3882 
12-May-2018_16:38:15 7310 21 2 R 4 3 8 moral immoralSelf Y y 1 0.3503 
12-May-2018_16:38:16 7310 21 2 R 4 3 9 moral immoralSelf Y y 1 0.4284 
12-May-2018_16:38:18 7310 21 2 R 4 3 10 moral moralOther U u 1 0.3265 
12-May-2018_16:38:20 7310 21 2 R 4 3 11 moral moralSelf U u 1 0.4146 
12-May-2018_16:38:21 7310 21 2 R 4 3 12 moral moralSelf U u 1 0.3387 
12-May-2018_16:38:23 7310 21 2 R 4 3 13 moral immoralSelf Y y 1 0.4768 
12-May-2018_16:38:25 7310 21 2 R 4 3 14 moral immoralOther Y u 0 0.3988 
12-May-2018_16:38:26 7310 21 2 R 4 3 15 moral moralSelf U u 1 0.3610 
12-May-2018_16:38:28 7310 21 2 R 4 3 16 moral moralSelf U u 1 0.3230 
12-May-2018_16:38:30 7310 21 2 R 4 3 17 moral immoralOther Y y 1 0.3851 
12-May-2018_16:38:31 7310 21 2 R 4 3 18 moral immoralOther Y y 1 0.3274 
12-May-2018_16:38:33 7310 21 2 R 4 3 19 moral immoralOther Y y 1 0.3413 
12-May-2018_16:38:34 7310 21 2 R 4 3 20 moral immoralSelf Y y 1 0.4794 
12-May-2018_16:38:36 7310 21 2 R 4 3 21 moral moralOther U u 1 0.3795 
12-May-2018_16:38:37 7310 21 2 R 4 3 22 moral immoralSelf Y y 1 0.3616 
12-May-2018_16:38:39 7310 21 2 R 4 3 23 moral moralSelf U u 1 0.4957 
12-May-2018_16:38:41 7310 21 2 R 4 3 24 moral moralOther U u 1 0.3898 
12-May-2018_16:38:43 7310 21 2 R 4 4 1 moral moralOther U u 1 0.2979 
12-May-2018_16:38:44 7310 21 2 R 4 4 2 moral immoralOther Y y 1 0.3620 
12-May-2018_16:38:46 7310 21 2 R 4 4 3 moral immoralSelf Y y 1 0.4621 
12-May-2018_16:38:48 7310 21 2 R 4 4 4 moral moralSelf U u 1 0.4882 
12-May-2018_16:38:50 7310 21 2 R 4 4 5 moral immoralSelf Y y 1 0.5043 
12-May-2018_16:38:51 7310 21 2 R 4 4 6 moral moralOther U u 1 0.3383 
12-May-2018_16:38:53 7310 21 2 R 4 4 7 moral immoralOther Y y 1 0.4745 
12-May-2018_16:38:54 7310 21 2 R 4 4 8 moral moralSelf U u 1 0.5105 
12-May-2018_16:38:56 7310 21 2 R 4 4 9 moral moralOther U u 1 0.3386 
12-May-2018_16:38:57 7310 21 2 R 4 4 10 moral moralSelf U u 1 0.3507 
12-May-2018_16:38:59 7310 21 2 R 4 4 11 moral immoralSelf Y y 1 0.3988 
12-May-2018_16:39:01 7310 21 2 R 4 4 12 moral moralSelf U u 1 0.5589 
12-May-2018_16:39:02 7310 21 2 R 4 4 13 moral immoralSelf Y y 1 0.3650 
12-May-2018_16:39:04 7310 21 2 R 4 4 14 moral moralOther U u 1 0.3351 
12-May-2018_16:39:06 7310 21 2 R 4 4 15 moral immoralSelf Y y 1 0.4352 
12-May-2018_16:39:08 7310 21 2 R 4 4 16 moral immoralOther Y y 1 0.5533 
12-May-2018_16:39:09 7310 21 2 R 4 4 17 moral moralSelf U u 1 0.5934 
12-May-2018_16:39:11 7310 21 2 R 4 4 18 moral immoralSelf Y y 1 0.4675 
12-May-2018_16:39:12 7310 21 2 R 4 4 19 moral moralOther U u 1 0.3776 
12-May-2018_16:39:14 7310 21 2 R 4 4 20 moral immoralOther Y y 1 0.5196 
12-May-2018_16:39:16 7310 21 2 R 4 4 21 moral moralSelf U u 1 0.5019 
12-May-2018_16:39:17 7310 21 2 R 4 4 22 moral moralOther U u 1 0.3479 
12-May-2018_16:39:19 7310 21 2 R 4 4 23 moral immoralOther Y y 1 0.3960 
12-May-2018_16:39:20 7310 21 2 R 4 4 24 moral immoralOther Y y 1 0.4480 
12-May-2018_16:39:38 7310 21 2 R 4 5 1 moral immoralOther Y y 1 0.5090 
12-May-2018_16:39:40 7310 21 2 R 4 5 2 moral immoralSelf Y y 1 0.4252 
12-May-2018_16:39:41 7310 21 2 R 4 5 3 moral moralSelf U u 1 0.4592 
12-May-2018_16:39:43 7310 21 2 R 4 5 4 moral moralOther U u 1 0.2894 
12-May-2018_16:39:45 7310 21 2 R 4 5 5 moral moralOther U u 1 0.3534 
12-May-2018_16:39:46 7310 21 2 R 4 5 6 moral moralSelf U u 1 0.4456 
12-May-2018_16:39:48 7310 21 2 R 4 5 7 moral moralSelf U u 1 0.3236 
12-May-2018_16:39:49 7310 21 2 R 4 5 8 moral moralSelf U u 1 0.2977 
12-May-2018_16:39:51 7310 21 2 R 4 5 9 moral immoralOther Y y 1 0.3378 
12-May-2018_16:39:52 7310 21 2 R 4 5 10 moral moralOther U u 1 0.4238 
12-May-2018_16:39:54 7310 21 2 R 4 5 11 moral immoralSelf Y y 1 0.3460 
12-May-2018_16:39:56 7310 21 2 R 4 5 12 moral immoralSelf Y y 1 0.3919 
12-May-2018_16:39:57 7310 21 2 R 4 5 13 moral moralOther U u 1 0.3340 
12-May-2018_16:39:59 7310 21 2 R 4 5 14 moral immoralOther Y y 1 0.4262 
12-May-2018_16:40:00 7310 21 2 R 4 5 15 moral moralSelf U u 1 0.3523 
12-May-2018_16:40:02 7310 21 2 R 4 5 16 moral immoralOther Y y 1 0.3644 
12-May-2018_16:40:03 7310 21 2 R 4 5 17 moral immoralOther Y y 1 0.4005 
12-May-2018_16:40:05 7310 21 2 R 4 5 18 moral immoralSelf Y y 1 0.4486 
12-May-2018_16:40:06 7310 21 2 R 4 5 19 moral immoralSelf Y y 1 0.3066 
12-May-2018_16:40:08 7310 21 2 R 4 5 20 moral moralOther U u 1 0.3407 
12-May-2018_16:40:09 7310 21 2 R 4 5 21 moral moralOther U u 1 0.3108 
12-May-2018_16:40:11 7310 21 2 R 4 5 22 moral immoralSelf Y y 1 0.3989 
12-May-2018_16:40:13 7310 21 2 R 4 5 23 moral immoralOther Y y 1 0.3630 
12-May-2018_16:40:14 7310 21 2 R 4 5 24 moral moralSelf U u 1 0.4551 
Date Sub Age Sex Hand Block Bin Trial Task Shape corrResp Resp ACC RT
12-May-2018_16:42:34 7310 21 2 R 5 1 1 moral moralOther U u 1 0.3330 
12-May-2018_16:42:36 7310 21 2 R 5 1 2 moral immoralSelf Y y 1 0.4330 
12-May-2018_16:42:38 7310 21 2 R 5 1 3 moral moralSelf U u 1 0.5234 
12-May-2018_16:42:40 7310 21 2 R 5 1 4 moral moralSelf U u 1 0.3613 
12-May-2018_16:42:41 7310 21 2 R 5 1 5 moral moralOther U u 1 0.3794 
12-May-2018_16:42:42 7310 21 2 R 5 1 6 moral immoralOther Y y 1 0.3635 
12-May-2018_16:42:44 7310 21 2 R 5 1 7 moral immoralOther Y y 1 0.5596 
12-May-2018_16:42:46 7310 21 2 R 5 1 8 moral moralOther U u 1 0.3477 
12-May-2018_16:42:48 7310 21 2 R 5 1 9 moral immoralSelf Y y 1 0.3598 
12-May-2018_16:42:49 7310 21 2 R 5 1 10 moral moralOther U u 1 0.3599 
12-May-2018_16:42:51 7310 21 2 R 5 1 11 moral immoralSelf Y y 1 0.3959 
12-May-2018_16:42:53 7310 21 2 R 5 1 12 moral moralSelf U u 1 0.3481 
12-May-2018_16:42:54 7310 21 2 R 5 1 13 moral immoralSelf Y y 1 0.4203 
12-May-2018_16:42:56 7310 21 2 R 5 1 14 moral immoralSelf Y y 1 0.4122 
12-May-2018_16:42:58 7310 21 2 R 5 1 15 moral moralSelf U u 1 0.5383 
12-May-2018_16:43:00 7310 21 2 R 5 1 16 moral immoralOther Y y 1 0.3985 
12-May-2018_16:43:01 7310 21 2 R 5 1 17 moral moralOther U u 1 0.3625 
12-May-2018_16:43:03 7310 21 2 R 5 1 18 moral moralSelf U u 1 0.4506 
12-May-2018_16:43:04 7310 21 2 R 5 1 19 moral moralOther U u 1 0.4287 
12-May-2018_16:43:06 7310 21 2 R 5 1 20 moral moralSelf U u 1 0.4488 
12-May-2018_16:43:08 7310 21 2 R 5 1 21 moral immoralSelf Y y 1 0.4689 
12-May-2018_16:43:09 7310 21 2 R 5 1 22 moral immoralOther Y y 1 0.5310 
12-May-2018_16:43:11 7310 21 2 R 5 1 23 moral immoralOther Y y 1 0.3671 
12-May-2018_16:43:12 7310 21 2 R 5 1 24 moral immoralOther Y y 1 0.3972 
12-May-2018_16:43:14 7310 21 2 R 5 2 1 moral moralOther U u 1 0.3012 
12-May-2018_16:43:16 7310 21 2 R 5 2 2 moral moralSelf U u 1 0.4194 
12-May-2018_16:43:17 7310 21 2 R 5 2 3 moral moralSelf U u 1 0.3774 
12-May-2018_16:43:19 7310 21 2 R 5 2 4 moral immoralOther Y y 1 0.4035 
12-May-2018_16:43:21 7310 21 2 R 5 2 5 moral immoralSelf Y y 1 0.4816 
12-May-2018_16:43:22 7310 21 2 R 5 2 6 moral immoralSelf Y y 1 0.3517 
12-May-2018_16:43:24 7310 21 2 R 5 2 7 moral moralSelf U u 1 0.4639 
12-May-2018_16:43:26 7310 21 2 R 5 2 8 moral moralOther U u 1 0.4419 
12-May-2018_16:43:27 7310 21 2 R 5 2 9 moral moralSelf U u 1 0.3541 
12-May-2018_16:43:29 7310 21 2 R 5 2 10 moral immoralSelf Y y 1 0.5001 
12-May-2018_16:43:31 7310 21 2 R 5 2 11 moral moralOther U u 1 0.3262 
12-May-2018_16:43:32 7310 21 2 R 5 2 12 moral moralOther U u 1 0.3123 
12-May-2018_16:43:34 7310 21 2 R 5 2 13 moral immoralOther Y y 1 0.3524 
12-May-2018_16:43:36 7310 21 2 R 5 2 14 moral immoralOther Y y 1 0.4105 
12-May-2018_16:43:37 7310 21 2 R 5 2 15 moral moralOther U u 1 0.3186 
12-May-2018_16:43:39 7310 21 2 R 5 2 16 moral immoralOther Y y 1 0.3626 
12-May-2018_16:43:41 7310 21 2 R 5 2 17 moral moralSelf U u 1 0.4668 
12-May-2018_16:43:42 7310 21 2 R 5 2 18 moral immoralSelf Y y 1 0.3749 
12-May-2018_16:43:44 7310 21 2 R 5 2 19 moral moralOther U u 1 0.3150 
12-May-2018_16:43:45 7310 21 2 R 5 2 20 moral immoralSelf Y y 1 0.3511 
12-May-2018_16:43:47 7310 21 2 R 5 2 21 moral immoralOther Y y 1 0.4192 
12-May-2018_16:43:49 7310 21 2 R 5 2 22 moral immoralOther Y y 1 0.3932 
12-May-2018_16:43:51 7310 21 2 R 5 2 23 moral immoralSelf Y y 1 0.3454 
12-May-2018_16:43:52 7310 21 2 R 5 2 24 moral moralSelf U y 0 0.3374 
12-May-2018_16:44:16 7310 21 2 R 5 3 1 moral moralSelf U u 1 0.4688 
12-May-2018_16:44:17 7310 21 2 R 5 3 2 moral moralSelf U u 1 0.3529 
12-May-2018_16:44:19 7310 21 2 R 5 3 3 moral immoralOther Y y 1 0.3469 
12-May-2018_16:44:20 7310 21 2 R 5 3 4 moral moralOther U u 1 0.3390 
12-May-2018_16:44:22 7310 21 2 R 5 3 5 moral immoralOther Y y 1 0.4471 
12-May-2018_16:44:24 7310 21 2 R 5 3 6 moral immoralOther Y y 1 0.4232 
12-May-2018_16:44:25 7310 21 2 R 5 3 7 moral moralOther U u 1 0.2873 
12-May-2018_16:44:27 7310 21 2 R 5 3 8 moral immoralSelf Y y 1 0.5714 
12-May-2018_16:44:28 7310 21 2 R 5 3 9 moral moralSelf U u 1 0.4275 
12-May-2018_16:44:30 7310 21 2 R 5 3 10 moral immoralSelf Y y 1 0.4036 
12-May-2018_16:44:32 7310 21 2 R 5 3 11 moral immoralOther Y y 1 0.4356 
12-May-2018_16:44:33 7310 21 2 R 5 3 12 moral immoralSelf Y y 1 0.3457 
12-May-2018_16:44:35 7310 21 2 R 5 3 13 moral moralOther U u 1 0.3199 
12-May-2018_16:44:36 7310 21 2 R 5 3 14 moral moralOther U u 1 0.2939 
12-May-2018_16:44:38 7310 21 2 R 5 3 15 moral immoralOther Y y 1 0.3480 
12-May-2018_16:44:40 7310 21 2 R 5 3 16 moral moralOther U u 1 0.3761 
12-May-2018_16:44:41 7310 21 2 R 5 3 17 moral immoralSelf Y y 1 0.4842 
12-May-2018_16:44:43 7310 21 2 R 5 3 18 moral moralSelf U u 1 0.4043 
12-May-2018_16:44:44 7310 21 2 R 5 3 19 moral moralSelf U u 1 0.3664 
12-May-2018_16:44:46 7310 21 2 R 5 3 20 moral immoralOther Y y 1 0.4664 
12-May-2018_16:44:47 7310 21 2 R 5 3 21 moral immoralSelf Y y 1 0.4445 
12-May-2018_16:44:49 7310 21 2 R 5 3 22 moral moralSelf U u 1 0.3587 
12-May-2018_16:44:50 7310 21 2 R 5 3 23 moral moralOther U u 1 0.4147 
12-May-2018_16:44:52 7310 21 2 R 5 3 24 moral immoralSelf Y y 1 0.4328 
12-May-2018_16:44:54 7310 21 2 R 5 4 1 moral moralSelf U u 1 0.4310 
12-May-2018_16:44:55 7310 21 2 R 5 4 2 moral moralOther U u 1 0.3690 
12-May-2018_16:44:57 7310 21 2 R 5 4 3 moral moralOther U u 1 0.3311 
12-May-2018_16:44:58 7310 21 2 R 5 4 4 moral moralOther U u 1 0.3472 
12-May-2018_16:45:00 7310 21 2 R 5 4 5 moral immoralOther Y y 1 0.3753 
12-May-2018_16:45:02 7310 21 2 R 5 4 6 moral immoralOther Y y 1 0.3833 
12-May-2018_16:45:03 7310 21 2 R 5 4 7 moral immoralSelf Y y 1 0.4375 
12-May-2018_16:45:05 7310 21 2 R 5 4 8 moral moralSelf U u 1 0.3716 
12-May-2018_16:45:07 7310 21 2 R 5 4 9 moral moralOther U u 1 0.4217 
12-May-2018_16:45:09 7310 21 2 R 5 4 10 moral immoralOther Y y 1 0.3297 
12-May-2018_16:45:10 7310 21 2 R 5 4 11 moral moralOther U u 1 0.3419 
12-May-2018_16:45:12 7310 21 2 R 5 4 12 moral immoralSelf Y y 1 0.3859 
12-May-2018_16:45:13 7310 21 2 R 5 4 13 moral immoralSelf Y y 1 0.3300 
12-May-2018_16:45:15 7310 21 2 R 5 4 14 moral immoralSelf Y y 1 0.3782 
12-May-2018_16:45:17 7310 21 2 R 5 4 15 moral immoralOther Y y 1 0.4262 
12-May-2018_16:45:19 7310 21 2 R 5 4 16 moral moralSelf U u 1 0.4383 
12-May-2018_16:45:20 7310 21 2 R 5 4 17 moral immoralSelf Y y 1 0.4424 
12-May-2018_16:45:22 7310 21 2 R 5 4 18 moral immoralOther Y y 1 0.5285 
12-May-2018_16:45:23 7310 21 2 R 5 4 19 moral moralOther U u 1 0.3106 
12-May-2018_16:45:25 7310 21 2 R 5 4 20 moral moralSelf U u 1 0.3787 
12-May-2018_16:45:27 7310 21 2 R 5 4 21 moral immoralOther Y y 1 0.4908 
12-May-2018_16:45:28 7310 21 2 R 5 4 22 moral immoralSelf Y y 1 0.4409 
12-May-2018_16:45:30 7310 21 2 R 5 4 23 moral moralSelf U u 1 0.4830 
12-May-2018_16:45:32 7310 21 2 R 5 4 24 moral moralSelf U u 1 0.4051 
12-May-2018_16:45:39 7310 21 2 R 5 5 1 moral immoralSelf Y y 1 0.5094 
12-May-2018_16:45:40 7310 21 2 R 5 5 2 moral immoralOther Y y 1 0.5996 
12-May-2018_16:45:42 7310 21 2 R 5 5 3 moral moralSelf U u 1 0.4096 
12-May-2018_16:45:44 7310 21 2 R 5 5 4 moral moralOther U u 1 0.3337 
12-May-2018_16:45:45 7310 21 2 R 5 5 5 moral moralOther U u 1 0.3858 
12-May-2018_16:45:47 7310 21 2 R 5 5 6 moral moralSelf U u 1 0.4240 
12-May-2018_16:45:49 7310 21 2 R 5 5 7 moral immoralSelf Y y 1 0.4040 
12-May-2018_16:45:50 7310 21 2 R 5 5 8 moral moralSelf U u 1 0.4021 
12-May-2018_16:45:52 7310 21 2 R 5 5 9 moral moralOther U u 1 0.3222 
12-May-2018_16:45:53 7310 21 2 R 5 5 10 moral immoralOther Y y 1 0.3582 
12-May-2018_16:45:55 7310 21 2 R 5 5 11 moral moralOther U u 1 0.3104 
12-May-2018_16:45:57 7310 21 2 R 5 5 12 moral immoralOther Y y 1 0.3726 
12-May-2018_16:45:58 7310 21 2 R 5 5 13 moral immoralOther Y y 1 0.3526 
12-May-2018_16:46:00 7310 21 2 R 5 5 14 moral immoralSelf Y u 0 0.3767 
12-May-2018_16:46:01 7310 21 2 R 5 5 15 moral immoralOther Y y 1 0.4067 
12-May-2018_16:46:03 7310 21 2 R 5 5 16 moral moralOther U u 1 0.3188 
12-May-2018_16:46:04 7310 21 2 R 5 5 17 moral moralSelf U u 1 0.3489 
12-May-2018_16:46:06 7310 21 2 R 5 5 18 moral immoralSelf Y y 1 0.3570 
12-May-2018_16:46:08 7310 21 2 R 5 5 19 moral moralOther U u 1 0.4271 
12-May-2018_16:46:09 7310 21 2 R 5 5 20 moral moralSelf U u 1 0.3473 
12-May-2018_16:46:11 7310 21 2 R 5 5 21 moral immoralSelf Y y 1 0.4713 
12-May-2018_16:46:13 7310 21 2 R 5 5 22 moral immoralSelf Y y 1 0.3194 
12-May-2018_16:46:15 7310 21 2 R 5 5 23 moral moralSelf U u 1 0.4335 
12-May-2018_16:46:16 7310 21 2 R 5 5 24 moral immoralOther Y y 1 0.4016 
Date Sub Age Sex Hand Block Bin Trial Task Shape corrResp Resp ACC RT
12-May-2018_16:48:25 7310 21 2 R 6 1 1 self moralOther J j 1 0.4069 
12-May-2018_16:48:26 7310 21 2 R 6 1 2 self immoralOther J j 1 0.5290 
12-May-2018_16:48:28 7310 21 2 R 6 1 3 self immoralOther J j 1 0.3951 
12-May-2018_16:48:29 7310 21 2 R 6 1 4 self moralOther J j 1 0.4372 
12-May-2018_16:48:31 7310 21 2 R 6 1 5 self moralSelf H h 1 0.4695 
12-May-2018_16:48:33 7310 21 2 R 6 1 6 self immoralOther J j 1 0.5573 
12-May-2018_16:48:34 7310 21 2 R 6 1 7 self moralSelf H h 1 0.4095 
12-May-2018_16:48:36 7310 21 2 R 6 1 8 self moralSelf H h 1 0.3455 
12-May-2018_16:48:37 7310 21 2 R 6 1 9 self immoralSelf H j 0 0.3476 
12-May-2018_16:48:39 7310 21 2 R 6 1 10 self immoralSelf H h 1 0.4417 
12-May-2018_16:48:40 7310 21 2 R 6 1 11 self immoralOther J j 1 0.4878 
12-May-2018_16:48:42 7310 21 2 R 6 1 12 self immoralOther J j 1 0.5019 
12-May-2018_16:48:44 7310 21 2 R 6 1 13 self moralSelf H h 1 0.4400 
12-May-2018_16:48:45 7310 21 2 R 6 1 14 self moralSelf H h 1 0.3122 
12-May-2018_16:48:47 7310 21 2 R 6 1 15 self moralSelf H h 1 0.2922 
12-May-2018_16:48:49 7310 21 2 R 6 1 16 self moralOther J j 1 0.4922 
12-May-2018_16:48:50 7310 21 2 R 6 1 17 self moralOther J j 1 0.4103 
12-May-2018_16:48:52 7310 21 2 R 6 1 18 self moralOther J h 0 0.3345 
12-May-2018_16:48:54 7310 21 2 R 6 1 19 self immoralSelf H NA -1 1.1430 
12-May-2018_16:48:56 7310 21 2 R 6 1 20 self immoralSelf H j 0 0.6667 
12-May-2018_16:48:59 7310 21 2 R 6 1 21 self immoralSelf H h 1 1.0448 
12-May-2018_16:49:00 7310 21 2 R 6 1 22 self immoralSelf H h 1 0.2990 
12-May-2018_16:49:02 7310 21 2 R 6 1 23 self immoralOther J j 1 0.5770 
12-May-2018_16:49:03 7310 21 2 R 6 1 24 self moralOther J h 0 0.5391 
12-May-2018_16:49:05 7310 21 2 R 6 2 1 self moralOther J j 1 0.4052 
12-May-2018_16:49:07 7310 21 2 R 6 2 2 self immoralOther J j 1 0.4333 
12-May-2018_16:49:09 7310 21 2 R 6 2 3 self moralSelf H h 1 0.5134 
12-May-2018_16:49:10 7310 21 2 R 6 2 4 self moralOther J j 1 0.4654 
12-May-2018_16:49:12 7310 21 2 R 6 2 5 self moralSelf H h 1 0.3275 
12-May-2018_16:49:14 7310 21 2 R 6 2 6 self immoralSelf H h 1 0.4396 
12-May-2018_16:49:15 7310 21 2 R 6 2 7 self moralSelf H h 1 0.3418 
12-May-2018_16:49:17 7310 21 2 R 6 2 8 self immoralOther J j 1 0.4398 
12-May-2018_16:49:18 7310 21 2 R 6 2 9 self immoralSelf H h 1 0.4419 
12-May-2018_16:49:20 7310 21 2 R 6 2 10 self moralOther J j 1 0.5461 
12-May-2018_16:49:22 7310 21 2 R 6 2 11 self immoralSelf H h 1 0.3742 
12-May-2018_16:49:23 7310 21 2 R 6 2 12 self moralSelf H h 1 0.4582 
12-May-2018_16:49:25 7310 21 2 R 6 2 13 self immoralOther J j 1 0.4844 
12-May-2018_16:49:27 7310 21 2 R 6 2 14 self immoralSelf H h 1 0.3224 
12-May-2018_16:49:28 7310 21 2 R 6 2 15 self immoralOther J j 1 0.3825 
12-May-2018_16:49:30 7310 21 2 R 6 2 16 self immoralSelf H h 1 0.3366 
12-May-2018_16:49:31 7310 21 2 R 6 2 17 self moralSelf H h 1 0.3467 
12-May-2018_16:49:33 7310 21 2 R 6 2 18 self moralOther J j 1 0.3348 
12-May-2018_16:49:34 7310 21 2 R 6 2 19 self immoralOther J j 1 0.5228 
12-May-2018_16:49:36 7310 21 2 R 6 2 20 self moralOther J j 1 0.7129 
12-May-2018_16:49:37 7310 21 2 R 6 2 21 self immoralSelf H h 1 0.4510 
12-May-2018_16:49:39 7310 21 2 R 6 2 22 self immoralOther J j 1 0.4672 
12-May-2018_16:49:41 7310 21 2 R 6 2 23 self moralSelf H h 1 0.2973 
12-May-2018_16:49:42 7310 21 2 R 6 2 24 self moralOther J j 1 0.3833 
12-May-2018_16:49:51 7310 21 2 R 6 3 1 self immoralOther J j 1 0.5278 
12-May-2018_16:49:52 7310 21 2 R 6 3 2 self immoralOther J j 1 0.3477 
12-May-2018_16:49:54 7310 21 2 R 6 3 3 self moralOther J j 1 0.4220 
12-May-2018_16:49:56 7310 21 2 R 6 3 4 self moralOther J j 1 0.3101 
12-May-2018_16:49:57 7310 21 2 R 6 3 5 self moralOther J j 1 0.2921 
12-May-2018_16:49:59 7310 21 2 R 6 3 6 self moralOther J j 1 0.3302 
12-May-2018_16:50:00 7310 21 2 R 6 3 7 self immoralOther J j 1 0.5063 
12-May-2018_16:50:02 7310 21 2 R 6 3 8 self immoralSelf H h 1 0.4164 
12-May-2018_16:50:03 7310 21 2 R 6 3 9 self immoralOther J j 1 0.4525 
12-May-2018_16:50:05 7310 21 2 R 6 3 10 self immoralSelf H h 1 0.6386 
12-May-2018_16:50:07 7310 21 2 R 6 3 11 self moralOther J j 1 0.3407 
12-May-2018_16:50:08 7310 21 2 R 6 3 12 self immoralOther J j 1 0.6268 
12-May-2018_16:50:10 7310 21 2 R 6 3 13 self moralSelf H h 1 0.3809 
12-May-2018_16:50:12 7310 21 2 R 6 3 14 self moralSelf H h 1 0.3970 
12-May-2018_16:50:13 7310 21 2 R 6 3 15 self immoralSelf H h 1 0.4111 
12-May-2018_16:50:15 7310 21 2 R 6 3 16 self moralSelf H h 1 0.3611 
12-May-2018_16:50:17 7310 21 2 R 6 3 17 self immoralSelf H h 1 0.4513 
12-May-2018_16:50:19 7310 21 2 R 6 3 18 self immoralOther J j 1 0.4914 
12-May-2018_16:50:21 7310 21 2 R 6 3 19 self moralSelf H h 1 0.4235 
12-May-2018_16:50:22 7310 21 2 R 6 3 20 self moralOther J j 1 0.5755 
12-May-2018_16:50:24 7310 21 2 R 6 3 21 self immoralSelf H h 1 0.4497 
12-May-2018_16:50:26 7310 21 2 R 6 3 22 self moralSelf H h 1 0.3498 
12-May-2018_16:50:27 7310 21 2 R 6 3 23 self immoralSelf H h 1 0.4218 
12-May-2018_16:50:29 7310 21 2 R 6 3 24 self moralSelf H h 1 0.3680 
12-May-2018_16:50:31 7310 21 2 R 6 4 1 self immoralOther J h 0 0.4180 
12-May-2018_16:50:32 7310 21 2 R 6 4 2 self moralSelf H h 1 0.4061 
12-May-2018_16:50:34 7310 21 2 R 6 4 3 self moralSelf H h 1 0.3203 
12-May-2018_16:50:36 7310 21 2 R 6 4 4 self moralOther J j 1 0.3484 
12-May-2018_16:50:37 7310 21 2 R 6 4 5 self moralOther J j 1 0.7024 
12-May-2018_16:50:39 7310 21 2 R 6 4 6 self immoralOther J h 0 0.5505 
12-May-2018_16:50:41 7310 21 2 R 6 4 7 self immoralSelf H h 1 0.4046 
12-May-2018_16:50:42 7310 21 2 R 6 4 8 self moralSelf H h 1 0.3387 
12-May-2018_16:50:44 7310 21 2 R 6 4 9 self immoralSelf H h 1 0.4009 
12-May-2018_16:50:46 7310 21 2 R 6 4 10 self immoralOther J j 1 0.4589 
12-May-2018_16:50:48 7310 21 2 R 6 4 11 self immoralSelf H h 1 0.4850 
12-May-2018_16:50:50 7310 21 2 R 6 4 12 self immoralSelf H h 1 0.3411 
12-May-2018_16:50:51 7310 21 2 R 6 4 13 self moralOther J j 1 0.4612 
12-May-2018_16:50:53 7310 21 2 R 6 4 14 self moralOther J j 1 0.3833 
12-May-2018_16:50:55 7310 21 2 R 6 4 15 self moralSelf H h 1 0.3834 
12-May-2018_16:50:56 7310 21 2 R 6 4 16 self moralSelf H h 1 0.2935 
12-May-2018_16:50:58 7310 21 2 R 6 4 17 self immoralOther J j 1 0.4056 
12-May-2018_16:50:59 7310 21 2 R 6 4 18 self immoralOther J j 1 0.4037 
12-May-2018_16:51:01 7310 21 2 R 6 4 19 self immoralOther J j 1 0.3998 
12-May-2018_16:51:02 7310 21 2 R 6 4 20 self moralOther J j 1 0.5719 
12-May-2018_16:51:04 7310 21 2 R 6 4 21 self moralOther J j 1 0.3499 
12-May-2018_16:51:06 7310 21 2 R 6 4 22 self moralSelf H h 1 0.4701 
12-May-2018_16:51:08 7310 21 2 R 6 4 23 self immoralSelf H h 1 0.5101 
12-May-2018_16:51:09 7310 21 2 R 6 4 24 self immoralSelf H h 1 0.3662 
12-May-2018_16:51:23 7310 21 2 R 6 5 1 self immoralOther J j 1 0.5470 
12-May-2018_16:51:25 7310 21 2 R 6 5 2 self immoralSelf H h 1 0.4131 
12-May-2018_16:51:26 7310 21 2 R 6 5 3 self immoralSelf H h 1 0.3332 
12-May-2018_16:51:28 7310 21 2 R 6 5 4 self moralOther J j 1 0.5234 
12-May-2018_16:51:30 7310 21 2 R 6 5 5 self moralSelf H h 1 0.3394 
12-May-2018_16:51:31 7310 21 2 R 6 5 6 self moralSelf H h 1 0.3275 
12-May-2018_16:51:33 7310 21 2 R 6 5 7 self immoralSelf H h 1 0.4095 
12-May-2018_16:51:34 7310 21 2 R 6 5 8 self moralSelf H h 1 0.3857 
12-May-2018_16:51:36 7310 21 2 R 6 5 9 self immoralOther J j 1 0.4518 
12-May-2018_16:51:38 7310 21 2 R 6 5 10 self moralOther J j 1 0.4378 
12-May-2018_16:51:40 7310 21 2 R 6 5 11 self moralOther J j 1 0.3439 
12-May-2018_16:51:41 7310 21 2 R 6 5 12 self immoralOther J j 1 0.5420 
12-May-2018_16:51:43 7310 21 2 R 6 5 13 self immoralOther J j 1 0.3382 
12-May-2018_16:51:44 7310 21 2 R 6 5 14 self moralOther J j 1 0.5342 
12-May-2018_16:51:46 7310 21 2 R 6 5 15 self immoralOther J j 1 0.4703 
12-May-2018_16:51:48 7310 21 2 R 6 5 16 self immoralSelf H j 0 0.5404 
12-May-2018_16:51:50 7310 21 2 R 6 5 17 self moralOther J j 1 0.5065 
12-May-2018_16:51:51 7310 21 2 R 6 5 18 self moralSelf H h 1 0.3526 
12-May-2018_16:51:52 7310 21 2 R 6 5 19 self moralOther J j 1 0.4046 
12-May-2018_16:51:54 7310 21 2 R 6 5 20 self immoralSelf H h 1 0.3568 
12-May-2018_16:51:56 7310 21 2 R 6 5 21 self immoralSelf H h 1 0.3628 
12-May-2018_16:51:57 7310 21 2 R 6 5 22 self moralSelf H h 1 0.3450 
12-May-2018_16:51:59 7310 21 2 R 6 5 23 self immoralOther J j 1 0.5371 
12-May-2018_16:52:01 7310 21 2 R 6 5 24 self moralSelf H h 1 0.4372 
