Date Sub Age Sex Hand Block Bin Trial Task Shape corrResp Resp ACC RT
19-May-2018_13:57:25 7321 18 female R 1 1 1 moral immoralSelf Y NA -1 1.0850 
19-May-2018_13:57:27 7321 18 female R 1 1 2 moral moralOther U u 1 0.8995 
19-May-2018_13:57:29 7321 18 female R 1 1 3 moral immoralSelf Y u 0 0.2716 
19-May-2018_13:57:31 7321 18 female R 1 1 4 moral moralSelf U NA -1 1.0850 
19-May-2018_13:57:33 7321 18 female R 1 1 5 moral moralOther U y 0 0.8658 
19-May-2018_13:57:36 7321 18 female R 1 1 6 moral immoralOther Y y 1 0.8299 
19-May-2018_13:57:38 7321 18 female R 1 1 7 moral moralSelf U u 1 0.5241 
19-May-2018_13:57:39 7321 18 female R 1 1 8 moral moralOther U u 1 0.7942 
19-May-2018_13:57:41 7321 18 female R 1 1 9 moral moralSelf U u 1 0.5504 
19-May-2018_13:57:43 7321 18 female R 1 1 10 moral immoralOther Y y 1 0.4666 
19-May-2018_13:57:45 7321 18 female R 1 1 11 moral immoralSelf Y y 1 0.9765 
19-May-2018_13:57:47 7321 18 female R 1 1 12 moral moralOther U u 1 0.6007 
19-May-2018_13:57:49 7321 18 female R 1 1 13 moral immoralOther Y y 1 0.6567 
19-May-2018_13:57:51 7321 18 female R 1 1 14 moral moralSelf U u 1 0.5269 
19-May-2018_13:57:52 7321 18 female R 1 1 15 moral immoralOther Y u 0 0.4390 
19-May-2018_13:57:55 7321 18 female R 1 1 16 moral moralOther U u 1 0.6971 
19-May-2018_13:57:56 7321 18 female R 1 1 17 moral moralOther U u 1 0.4652 
19-May-2018_13:57:58 7321 18 female R 1 1 18 moral immoralOther Y y 1 0.5353 
19-May-2018_13:58:00 7321 18 female R 1 1 19 moral immoralSelf Y u 0 0.6495 
19-May-2018_13:58:01 7321 18 female R 1 1 20 moral immoralOther Y y 1 0.5195 
19-May-2018_13:58:04 7321 18 female R 1 1 21 moral moralSelf U u 1 0.9975 
19-May-2018_13:58:06 7321 18 female R 1 1 22 moral immoralSelf Y NA -1 1.0850 
19-May-2018_13:58:08 7321 18 female R 1 1 23 moral immoralSelf Y y 1 0.5399 
19-May-2018_13:58:10 7321 18 female R 1 1 24 moral moralSelf U u 1 0.5299 
19-May-2018_13:58:12 7321 18 female R 1 2 1 moral immoralOther Y y 1 0.5081 
19-May-2018_13:58:13 7321 18 female R 1 2 2 moral immoralOther Y y 1 0.4601 
19-May-2018_13:58:15 7321 18 female R 1 2 3 moral moralSelf U u 1 0.5682 
19-May-2018_13:58:17 7321 18 female R 1 2 4 moral immoralSelf Y y 1 0.6683 
19-May-2018_13:58:18 7321 18 female R 1 2 5 moral moralSelf U u 1 0.6084 
19-May-2018_13:58:21 7321 18 female R 1 2 6 moral immoralSelf Y y 1 1.0185 
19-May-2018_13:58:22 7321 18 female R 1 2 7 moral immoralOther Y y 1 0.5786 
19-May-2018_13:58:24 7321 18 female R 1 2 8 moral moralOther U u 1 0.6208 
19-May-2018_13:58:26 7321 18 female R 1 2 9 moral moralSelf U u 1 0.8169 
19-May-2018_13:58:28 7321 18 female R 1 2 10 moral moralOther U u 1 0.5711 
19-May-2018_13:58:30 7321 18 female R 1 2 11 moral immoralSelf Y y 1 0.5471 
19-May-2018_13:58:31 7321 18 female R 1 2 12 moral immoralSelf Y y 1 0.4932 
19-May-2018_13:58:33 7321 18 female R 1 2 13 moral immoralSelf Y y 1 0.3752 
19-May-2018_13:58:35 7321 18 female R 1 2 14 moral moralOther U u 1 0.5593 
19-May-2018_13:58:36 7321 18 female R 1 2 15 moral immoralSelf Y y 1 0.5334 
19-May-2018_13:58:38 7321 18 female R 1 2 16 moral immoralOther Y y 1 0.5256 
19-May-2018_13:58:40 7321 18 female R 1 2 17 moral moralSelf U u 1 0.4336 
19-May-2018_13:58:42 7321 18 female R 1 2 18 moral moralSelf U u 1 0.3838 
19-May-2018_13:58:43 7321 18 female R 1 2 19 moral immoralOther Y y 1 0.4579 
19-May-2018_13:58:45 7321 18 female R 1 2 20 moral moralOther U u 1 0.5499 
19-May-2018_13:58:47 7321 18 female R 1 2 21 moral moralOther U u 1 0.5701 
19-May-2018_13:58:49 7321 18 female R 1 2 22 moral moralSelf U u 1 0.5083 
19-May-2018_13:58:51 7321 18 female R 1 2 23 moral moralOther U u 1 0.5742 
19-May-2018_13:58:52 7321 18 female R 1 2 24 moral immoralOther Y y 1 0.5324 
19-May-2018_13:59:05 7321 18 female R 1 3 1 moral moralOther U u 1 0.4851 
19-May-2018_13:59:07 7321 18 female R 1 3 2 moral moralSelf U u 1 0.4852 
19-May-2018_13:59:09 7321 18 female R 1 3 3 moral immoralSelf Y y 1 0.6372 
19-May-2018_13:59:11 7321 18 female R 1 3 4 moral immoralSelf Y y 1 0.4574 
19-May-2018_13:59:12 7321 18 female R 1 3 5 moral immoralSelf Y y 1 0.3975 
19-May-2018_13:59:14 7321 18 female R 1 3 6 moral moralSelf U u 1 0.5776 
19-May-2018_13:59:16 7321 18 female R 1 3 7 moral moralOther U u 1 0.6594 
19-May-2018_13:59:18 7321 18 female R 1 3 8 moral immoralOther Y y 1 0.4078 
19-May-2018_13:59:20 7321 18 female R 1 3 9 moral moralSelf U u 1 0.5979 
19-May-2018_13:59:21 7321 18 female R 1 3 10 moral immoralOther Y y 1 0.4580 
19-May-2018_13:59:23 7321 18 female R 1 3 11 moral immoralOther Y y 1 0.5442 
19-May-2018_13:59:25 7321 18 female R 1 3 12 moral immoralOther Y y 1 0.4023 
19-May-2018_13:59:27 7321 18 female R 1 3 13 moral moralSelf U u 1 0.4303 
19-May-2018_13:59:29 7321 18 female R 1 3 14 moral immoralOther Y y 1 0.6104 
19-May-2018_13:59:31 7321 18 female R 1 3 15 moral moralSelf U u 1 0.4705 
19-May-2018_13:59:33 7321 18 female R 1 3 16 moral moralSelf U u 1 0.4247 
19-May-2018_13:59:34 7321 18 female R 1 3 17 moral immoralOther Y y 1 0.4687 
19-May-2018_13:59:36 7321 18 female R 1 3 18 moral moralOther U u 1 0.4369 
19-May-2018_13:59:38 7321 18 female R 1 3 19 moral moralOther U u 1 0.3950 
19-May-2018_13:59:39 7321 18 female R 1 3 20 moral moralOther U u 1 0.3450 
19-May-2018_13:59:41 7321 18 female R 1 3 21 moral immoralSelf Y y 1 0.4231 
19-May-2018_13:59:43 7321 18 female R 1 3 22 moral immoralSelf Y y 1 0.4412 
19-May-2018_13:59:44 7321 18 female R 1 3 23 moral immoralSelf Y y 1 0.3553 
19-May-2018_13:59:46 7321 18 female R 1 3 24 moral moralOther U u 1 0.4374 
19-May-2018_13:59:48 7321 18 female R 1 4 1 moral moralSelf U u 1 0.5897 
19-May-2018_13:59:50 7321 18 female R 1 4 2 moral immoralSelf Y u 0 0.6777 
19-May-2018_13:59:52 7321 18 female R 1 4 3 moral immoralOther Y y 1 0.4718 
19-May-2018_13:59:54 7321 18 female R 1 4 4 moral immoralSelf Y y 1 0.3198 
19-May-2018_13:59:55 7321 18 female R 1 4 5 moral immoralOther Y y 1 0.5539 
19-May-2018_13:59:57 7321 18 female R 1 4 6 moral moralSelf U u 1 0.4361 
19-May-2018_13:59:59 7321 18 female R 1 4 7 moral moralSelf U u 1 0.4261 
19-May-2018_14:00:00 7321 18 female R 1 4 8 moral immoralSelf Y y 1 0.4883 
19-May-2018_14:00:02 7321 18 female R 1 4 9 moral moralOther U u 1 0.5604 
19-May-2018_14:00:04 7321 18 female R 1 4 10 moral moralSelf U u 1 0.5805 
19-May-2018_14:00:06 7321 18 female R 1 4 11 moral immoralSelf Y y 1 0.6426 
19-May-2018_14:00:08 7321 18 female R 1 4 12 moral immoralOther Y y 1 0.5127 
19-May-2018_14:00:10 7321 18 female R 1 4 13 moral immoralSelf Y y 1 0.5887 
19-May-2018_14:00:12 7321 18 female R 1 4 14 moral immoralOther Y y 1 0.5369 
19-May-2018_14:00:14 7321 18 female R 1 4 15 moral moralSelf U u 1 0.5630 
19-May-2018_14:00:15 7321 18 female R 1 4 16 moral immoralSelf Y y 1 0.6691 
19-May-2018_14:00:17 7321 18 female R 1 4 17 moral moralOther U u 1 0.6532 
19-May-2018_14:00:19 7321 18 female R 1 4 18 moral moralOther U u 1 0.4853 
19-May-2018_14:00:21 7321 18 female R 1 4 19 moral immoralOther Y y 1 0.4755 
19-May-2018_14:00:23 7321 18 female R 1 4 20 moral moralOther U u 1 0.5434 
19-May-2018_14:00:25 7321 18 female R 1 4 21 moral moralSelf U u 1 0.4556 
19-May-2018_14:00:26 7321 18 female R 1 4 22 moral immoralOther Y y 1 0.4417 
19-May-2018_14:00:28 7321 18 female R 1 4 23 moral moralOther U u 1 0.4018 
19-May-2018_14:00:30 7321 18 female R 1 4 24 moral moralOther U u 1 0.3259 
19-May-2018_14:00:42 7321 18 female R 1 5 1 moral moralOther U u 1 0.4606 
19-May-2018_14:00:43 7321 18 female R 1 5 2 moral moralSelf U u 1 0.3766 
19-May-2018_14:00:45 7321 18 female R 1 5 3 moral immoralOther Y y 1 0.4927 
19-May-2018_14:00:47 7321 18 female R 1 5 4 moral moralSelf U u 1 0.5208 
19-May-2018_14:00:49 7321 18 female R 1 5 5 moral immoralOther Y y 1 0.4770 
19-May-2018_14:00:50 7321 18 female R 1 5 6 moral immoralOther Y y 1 0.4950 
19-May-2018_14:00:52 7321 18 female R 1 5 7 moral immoralOther Y y 1 0.3732 
19-May-2018_14:00:53 7321 18 female R 1 5 8 moral moralSelf U y 0 0.3292 
19-May-2018_14:00:55 7321 18 female R 1 5 9 moral moralSelf U u 1 0.4533 
19-May-2018_14:00:56 7321 18 female R 1 5 10 moral moralOther U u 1 0.4654 
19-May-2018_14:00:58 7321 18 female R 1 5 11 moral moralOther U u 1 0.4215 
19-May-2018_14:00:59 7321 18 female R 1 5 12 moral immoralSelf Y u 0 0.3916 
19-May-2018_14:01:01 7321 18 female R 1 5 13 moral immoralSelf Y y 1 0.5697 
19-May-2018_14:01:02 7321 18 female R 1 5 14 moral immoralSelf Y y 1 0.3477 
19-May-2018_14:01:04 7321 18 female R 1 5 15 moral immoralOther Y y 1 0.4778 
19-May-2018_14:01:06 7321 18 female R 1 5 16 moral moralOther U u 1 0.5099 
19-May-2018_14:01:08 7321 18 female R 1 5 17 moral immoralSelf Y y 1 0.5120 
19-May-2018_14:01:10 7321 18 female R 1 5 18 moral moralOther U y 0 0.5181 
19-May-2018_14:01:12 7321 18 female R 1 5 19 moral immoralSelf Y y 1 0.6603 
19-May-2018_14:01:14 7321 18 female R 1 5 20 moral moralOther U u 1 0.5064 
19-May-2018_14:01:16 7321 18 female R 1 5 21 moral immoralOther Y y 1 0.5325 
19-May-2018_14:01:17 7321 18 female R 1 5 22 moral moralSelf U u 1 0.5166 
19-May-2018_14:01:19 7321 18 female R 1 5 23 moral moralSelf U u 1 0.3887 
19-May-2018_14:01:21 7321 18 female R 1 5 24 moral immoralSelf Y u 0 0.4108 
Date Sub Age Sex Hand Block Bin Trial Task Shape corrResp Resp ACC RT
19-May-2018_14:03:46 7321 18 female R 2 1 1 self immoralOther H h 1 0.6771 
19-May-2018_14:03:48 7321 18 female R 2 1 2 self immoralOther H h 1 0.5071 
19-May-2018_14:03:50 7321 18 female R 2 1 3 self immoralSelf J j 1 0.7592 
19-May-2018_14:03:52 7321 18 female R 2 1 4 self moralSelf J j 1 0.7952 
19-May-2018_14:03:54 7321 18 female R 2 1 5 self moralOther H h 1 0.7294 
19-May-2018_14:03:56 7321 18 female R 2 1 6 self immoralSelf J h 0 0.6376 
19-May-2018_14:03:58 7321 18 female R 2 1 7 self moralOther H h 1 0.7136 
19-May-2018_14:04:00 7321 18 female R 2 1 8 self moralOther H h 1 0.5139 
19-May-2018_14:04:01 7321 18 female R 2 1 9 self immoralSelf J j 1 0.7739 
19-May-2018_14:04:04 7321 18 female R 2 1 10 self moralSelf J j 1 0.7280 
19-May-2018_14:04:05 7321 18 female R 2 1 11 self moralSelf J j 1 0.4001 
19-May-2018_14:04:07 7321 18 female R 2 1 12 self immoralOther H h 1 0.5922 
19-May-2018_14:04:09 7321 18 female R 2 1 13 self immoralSelf J j 1 0.8644 
19-May-2018_14:04:11 7321 18 female R 2 1 14 self moralSelf J j 1 0.7144 
19-May-2018_14:04:13 7321 18 female R 2 1 15 self moralOther H h 1 0.7485 
19-May-2018_14:04:15 7321 18 female R 2 1 16 self moralSelf J j 1 0.5267 
19-May-2018_14:04:17 7321 18 female R 2 1 17 self immoralOther H h 1 0.6707 
19-May-2018_14:04:19 7321 18 female R 2 1 18 self moralOther H j 0 0.6568 
19-May-2018_14:04:21 7321 18 female R 2 1 19 self immoralOther H h 1 0.6910 
19-May-2018_14:04:23 7321 18 female R 2 1 20 self immoralSelf J NA -1 1.0850 
19-May-2018_14:04:25 7321 18 female R 2 1 21 self moralSelf J j 1 0.5351 
19-May-2018_14:04:27 7321 18 female R 2 1 22 self immoralSelf J j 1 0.6513 
19-May-2018_14:04:29 7321 18 female R 2 1 23 self moralOther H h 1 0.5635 
19-May-2018_14:04:31 7321 18 female R 2 1 24 self immoralOther H h 1 0.5836 
19-May-2018_14:04:33 7321 18 female R 2 2 1 self moralSelf J j 1 0.6217 
19-May-2018_14:04:35 7321 18 female R 2 2 2 self immoralSelf J j 1 0.7178 
19-May-2018_14:04:36 7321 18 female R 2 2 3 self moralSelf J j 1 0.4479 
19-May-2018_14:04:38 7321 18 female R 2 2 4 self moralSelf J j 1 0.4500 
19-May-2018_14:04:39 7321 18 female R 2 2 5 self immoralSelf J j 1 0.4941 
19-May-2018_14:04:41 7321 18 female R 2 2 6 self moralSelf J j 1 0.3461 
19-May-2018_14:04:43 7321 18 female R 2 2 7 self immoralSelf J j 1 0.3742 
19-May-2018_14:04:45 7321 18 female R 2 2 8 self immoralSelf J j 1 0.4284 
19-May-2018_14:04:46 7321 18 female R 2 2 9 self immoralOther H h 1 0.4545 
19-May-2018_14:04:48 7321 18 female R 2 2 10 self moralOther H h 1 0.5346 
19-May-2018_14:04:50 7321 18 female R 2 2 11 self moralSelf J j 1 0.5986 
19-May-2018_14:04:52 7321 18 female R 2 2 12 self moralSelf J j 1 0.4108 
19-May-2018_14:04:53 7321 18 female R 2 2 13 self immoralOther H h 1 0.5229 
19-May-2018_14:04:55 7321 18 female R 2 2 14 self moralOther H h 1 0.7010 
19-May-2018_14:04:57 7321 18 female R 2 2 15 self immoralSelf J j 1 0.6290 
19-May-2018_14:04:59 7321 18 female R 2 2 16 self immoralOther H h 1 0.5472 
19-May-2018_14:05:01 7321 18 female R 2 2 17 self immoralOther H h 1 0.4833 
19-May-2018_14:05:03 7321 18 female R 2 2 18 self immoralSelf J h 0 0.3974 
19-May-2018_14:05:04 7321 18 female R 2 2 19 self moralOther H h 1 0.6974 
19-May-2018_14:05:06 7321 18 female R 2 2 20 self moralOther H h 1 0.5377 
19-May-2018_14:05:08 7321 18 female R 2 2 21 self immoralOther H h 1 0.6496 
19-May-2018_14:05:10 7321 18 female R 2 2 22 self moralOther H h 1 0.7917 
19-May-2018_14:05:12 7321 18 female R 2 2 23 self immoralOther H h 1 0.6199 
19-May-2018_14:05:14 7321 18 female R 2 2 24 self moralOther H h 1 0.7460 
19-May-2018_14:05:38 7321 18 female R 2 3 1 self moralSelf J j 1 0.3774 
19-May-2018_14:05:40 7321 18 female R 2 3 2 self immoralSelf J j 1 0.8714 
19-May-2018_14:05:42 7321 18 female R 2 3 3 self moralSelf J j 1 0.5076 
19-May-2018_14:05:44 7321 18 female R 2 3 4 self moralOther H h 1 0.6437 
19-May-2018_14:05:45 7321 18 female R 2 3 5 self moralOther H h 1 0.3759 
19-May-2018_14:05:47 7321 18 female R 2 3 6 self immoralSelf J j 1 0.8718 
19-May-2018_14:05:49 7321 18 female R 2 3 7 self moralSelf J j 1 0.4620 
19-May-2018_14:05:51 7321 18 female R 2 3 8 self moralSelf J j 1 0.3941 
19-May-2018_14:05:53 7321 18 female R 2 3 9 self immoralSelf J h 0 0.5801 
19-May-2018_14:05:54 7321 18 female R 2 3 10 self moralOther H h 1 0.6743 
19-May-2018_14:05:56 7321 18 female R 2 3 11 self immoralOther H h 1 0.5324 
19-May-2018_14:05:58 7321 18 female R 2 3 12 self moralOther H j 0 0.4966 
19-May-2018_14:05:59 7321 18 female R 2 3 13 self moralOther H h 1 0.4786 
19-May-2018_14:06:01 7321 18 female R 2 3 14 self immoralSelf J j 1 0.6007 
19-May-2018_14:06:03 7321 18 female R 2 3 15 self moralSelf J j 1 0.5788 
19-May-2018_14:06:05 7321 18 female R 2 3 16 self immoralOther H h 1 0.6130 
19-May-2018_14:06:07 7321 18 female R 2 3 17 self immoralSelf J j 1 0.7870 
19-May-2018_14:06:08 7321 18 female R 2 3 18 self immoralSelf J j 1 0.4351 
19-May-2018_14:06:11 7321 18 female R 2 3 19 self moralOther H h 1 0.9611 
19-May-2018_14:06:12 7321 18 female R 2 3 20 self immoralOther H h 1 0.5934 
19-May-2018_14:06:14 7321 18 female R 2 3 21 self immoralOther H h 1 0.4174 
19-May-2018_14:06:16 7321 18 female R 2 3 22 self moralSelf J j 1 0.5435 
19-May-2018_14:06:17 7321 18 female R 2 3 23 self immoralOther H h 1 0.4496 
19-May-2018_14:06:19 7321 18 female R 2 3 24 self immoralOther H j 0 0.5357 
19-May-2018_14:06:21 7321 18 female R 2 4 1 self moralSelf J j 1 0.5058 
19-May-2018_14:06:22 7321 18 female R 2 4 2 self moralOther H j 0 0.5079 
19-May-2018_14:06:25 7321 18 female R 2 4 3 self immoralSelf J j 1 0.9720 
19-May-2018_14:06:27 7321 18 female R 2 4 4 self moralOther H h 1 1.0301 
19-May-2018_14:06:29 7321 18 female R 2 4 5 self moralOther H h 1 0.4482 
19-May-2018_14:06:30 7321 18 female R 2 4 6 self moralSelf J j 1 0.4684 
19-May-2018_14:06:32 7321 18 female R 2 4 7 self moralOther H h 1 0.5084 
19-May-2018_14:06:34 7321 18 female R 2 4 8 self immoralOther H h 1 0.5446 
19-May-2018_14:06:36 7321 18 female R 2 4 9 self moralSelf J j 1 0.3687 
19-May-2018_14:06:38 7321 18 female R 2 4 10 self immoralSelf J j 1 0.5347 
19-May-2018_14:06:40 7321 18 female R 2 4 11 self immoralOther H h 1 0.5888 
19-May-2018_14:06:41 7321 18 female R 2 4 12 self moralOther H h 1 0.3729 
19-May-2018_14:06:43 7321 18 female R 2 4 13 self immoralSelf J j 1 0.5651 
19-May-2018_14:06:45 7321 18 female R 2 4 14 self moralSelf J j 1 0.3911 
19-May-2018_14:06:46 7321 18 female R 2 4 15 self immoralSelf J h 0 0.5492 
19-May-2018_14:06:48 7321 18 female R 2 4 16 self immoralOther H h 1 0.5474 
19-May-2018_14:06:50 7321 18 female R 2 4 17 self moralSelf J j 1 0.4735 
19-May-2018_14:06:52 7321 18 female R 2 4 18 self immoralSelf J j 1 0.6936 
19-May-2018_14:06:54 7321 18 female R 2 4 19 self moralOther H h 1 0.6397 
19-May-2018_14:06:56 7321 18 female R 2 4 20 self immoralOther H h 1 0.6077 
19-May-2018_14:06:58 7321 18 female R 2 4 21 self immoralSelf J j 1 0.8779 
19-May-2018_14:06:59 7321 18 female R 2 4 22 self moralSelf J j 1 0.4800 
19-May-2018_14:07:01 7321 18 female R 2 4 23 self immoralOther H h 1 0.4741 
19-May-2018_14:07:03 7321 18 female R 2 4 24 self immoralOther H h 1 0.5022 
19-May-2018_14:07:36 7321 18 female R 2 5 1 self immoralOther H h 1 0.5003 
19-May-2018_14:07:38 7321 18 female R 2 5 2 self immoralSelf J j 1 0.6262 
19-May-2018_14:07:40 7321 18 female R 2 5 3 self immoralSelf J j 1 0.6142 
19-May-2018_14:07:41 7321 18 female R 2 5 4 self moralSelf J j 1 0.5384 
19-May-2018_14:07:43 7321 18 female R 2 5 5 self immoralOther H h 1 0.6485 
19-May-2018_14:07:45 7321 18 female R 2 5 6 self moralSelf J j 1 0.5185 
19-May-2018_14:07:47 7321 18 female R 2 5 7 self immoralOther H h 1 0.5987 
19-May-2018_14:07:49 7321 18 female R 2 5 8 self moralSelf J j 1 0.4328 
19-May-2018_14:07:50 7321 18 female R 2 5 9 self moralSelf J j 1 0.3729 
19-May-2018_14:07:52 7321 18 female R 2 5 10 self immoralSelf J j 1 0.6110 
19-May-2018_14:07:54 7321 18 female R 2 5 11 self immoralOther H h 1 0.6491 
19-May-2018_14:07:57 7321 18 female R 2 5 12 self moralOther H NA -1 1.0850 
19-May-2018_14:07:59 7321 18 female R 2 5 13 self immoralOther H h 1 0.4914 
19-May-2018_14:08:01 7321 18 female R 2 5 14 self moralOther H h 1 0.8614 
19-May-2018_14:08:02 7321 18 female R 2 5 15 self moralOther H h 1 0.5915 
19-May-2018_14:08:04 7321 18 female R 2 5 16 self immoralSelf J j 1 0.6457 
19-May-2018_14:08:06 7321 18 female R 2 5 17 self moralOther H h 1 0.6438 
19-May-2018_14:08:08 7321 18 female R 2 5 18 self immoralSelf J j 1 0.7158 
19-May-2018_14:08:10 7321 18 female R 2 5 19 self moralOther H h 1 0.6579 
19-May-2018_14:08:12 7321 18 female R 2 5 20 self moralSelf J j 1 0.5440 
19-May-2018_14:08:14 7321 18 female R 2 5 21 self immoralOther H h 1 0.4542 
19-May-2018_14:08:16 7321 18 female R 2 5 22 self moralSelf J j 1 0.6323 
19-May-2018_14:08:17 7321 18 female R 2 5 23 self moralOther H j 0 0.5225 
19-May-2018_14:08:19 7321 18 female R 2 5 24 self immoralSelf J j 1 0.4926 
Date Sub Age Sex Hand Block Bin Trial Task Shape corrResp Resp ACC RT
19-May-2018_14:11:17 7321 18 female R 3 1 1 self immoralOther H h 1 0.5506 
19-May-2018_14:11:19 7321 18 female R 3 1 2 self moralSelf J j 1 0.5047 
19-May-2018_14:11:21 7321 18 female R 3 1 3 self immoralSelf J j 1 0.4947 
19-May-2018_14:11:23 7321 18 female R 3 1 4 self moralSelf J j 1 0.4229 
19-May-2018_14:11:24 7321 18 female R 3 1 5 self immoralSelf J j 1 0.5910 
19-May-2018_14:11:26 7321 18 female R 3 1 6 self moralSelf J j 1 0.3871 
19-May-2018_14:11:28 7321 18 female R 3 1 7 self immoralOther H h 1 0.6132 
19-May-2018_14:11:30 7321 18 female R 3 1 8 self moralOther H h 1 0.7813 
19-May-2018_14:11:32 7321 18 female R 3 1 9 self immoralOther H h 1 0.4934 
19-May-2018_14:11:34 7321 18 female R 3 1 10 self moralOther H h 1 0.7975 
19-May-2018_14:11:36 7321 18 female R 3 1 11 self immoralOther H h 1 0.4897 
19-May-2018_14:11:38 7321 18 female R 3 1 12 self moralOther H h 1 0.6258 
19-May-2018_14:11:39 7321 18 female R 3 1 13 self moralSelf J j 1 0.3600 
19-May-2018_14:11:41 7321 18 female R 3 1 14 self immoralOther H h 1 0.5718 
19-May-2018_14:11:43 7321 18 female R 3 1 15 self immoralSelf J j 1 0.7661 
19-May-2018_14:11:45 7321 18 female R 3 1 16 self moralOther H h 1 0.5323 
19-May-2018_14:11:47 7321 18 female R 3 1 17 self immoralOther H h 1 0.4703 
19-May-2018_14:11:49 7321 18 female R 3 1 18 self moralOther H h 1 0.6565 
19-May-2018_14:11:50 7321 18 female R 3 1 19 self moralSelf J j 1 0.4826 
19-May-2018_14:11:52 7321 18 female R 3 1 20 self immoralSelf J j 1 0.6086 
19-May-2018_14:11:54 7321 18 female R 3 1 21 self moralSelf J j 1 0.4467 
19-May-2018_14:11:56 7321 18 female R 3 1 22 self immoralSelf J j 1 0.4868 
19-May-2018_14:11:58 7321 18 female R 3 1 23 self moralOther H h 1 0.5470 
19-May-2018_14:12:00 7321 18 female R 3 1 24 self immoralSelf J j 1 0.6472 
19-May-2018_14:12:01 7321 18 female R 3 2 1 self moralOther H h 1 0.5372 
19-May-2018_14:12:03 7321 18 female R 3 2 2 self moralSelf J j 1 0.4832 
19-May-2018_14:12:05 7321 18 female R 3 2 3 self immoralOther H h 1 0.5913 
19-May-2018_14:12:06 7321 18 female R 3 2 4 self moralSelf J j 1 0.5095 
19-May-2018_14:12:08 7321 18 female R 3 2 5 self immoralOther H h 1 0.7895 
19-May-2018_14:12:10 7321 18 female R 3 2 6 self immoralOther H h 1 0.5057 
19-May-2018_14:12:12 7321 18 female R 3 2 7 self moralOther H h 1 0.5956 
19-May-2018_14:12:14 7321 18 female R 3 2 8 self moralSelf J j 1 0.5618 
19-May-2018_14:12:16 7321 18 female R 3 2 9 self immoralSelf J j 1 0.8260 
19-May-2018_14:12:18 7321 18 female R 3 2 10 self moralSelf J j 1 0.4260 
19-May-2018_14:12:20 7321 18 female R 3 2 11 self moralSelf J j 1 0.3862 
19-May-2018_14:12:21 7321 18 female R 3 2 12 self immoralSelf J j 1 0.5343 
19-May-2018_14:12:23 7321 18 female R 3 2 13 self moralOther H h 1 0.5004 
19-May-2018_14:12:25 7321 18 female R 3 2 14 self immoralSelf J j 1 0.5624 
19-May-2018_14:12:27 7321 18 female R 3 2 15 self immoralSelf J j 1 0.4806 
19-May-2018_14:12:29 7321 18 female R 3 2 16 self immoralOther H h 1 0.5327 
19-May-2018_14:12:30 7321 18 female R 3 2 17 self moralOther H j 0 0.4728 
19-May-2018_14:12:32 7321 18 female R 3 2 18 self moralOther H h 1 0.6249 
19-May-2018_14:12:34 7321 18 female R 3 2 19 self immoralSelf J j 1 0.7370 
19-May-2018_14:12:36 7321 18 female R 3 2 20 self moralOther H h 1 0.5991 
19-May-2018_14:12:38 7321 18 female R 3 2 21 self moralSelf J j 1 0.4693 
19-May-2018_14:12:39 7321 18 female R 3 2 22 self immoralSelf J j 1 0.4714 
19-May-2018_14:12:41 7321 18 female R 3 2 23 self immoralOther H h 1 0.6654 
19-May-2018_14:12:43 7321 18 female R 3 2 24 self immoralOther H h 1 0.5095 
19-May-2018_14:13:15 7321 18 female R 3 3 1 self moralSelf J j 1 0.3994 
19-May-2018_14:13:17 7321 18 female R 3 3 2 self moralOther H h 1 0.5954 
19-May-2018_14:13:19 7321 18 female R 3 3 3 self immoralSelf J j 1 0.5755 
19-May-2018_14:13:21 7321 18 female R 3 3 4 self immoralSelf J j 1 0.4136 
19-May-2018_14:13:22 7321 18 female R 3 3 5 self immoralSelf J j 1 0.4317 
19-May-2018_14:13:24 7321 18 female R 3 3 6 self immoralSelf J j 1 0.3939 
19-May-2018_14:13:26 7321 18 female R 3 3 7 self immoralSelf J j 1 0.3939 
19-May-2018_14:13:27 7321 18 female R 3 3 8 self immoralOther H h 1 0.4720 
19-May-2018_14:13:29 7321 18 female R 3 3 9 self immoralOther H h 1 0.3801 
19-May-2018_14:13:31 7321 18 female R 3 3 10 self moralSelf J j 1 0.4202 
19-May-2018_14:13:32 7321 18 female R 3 3 11 self moralSelf J j 1 0.4763 
19-May-2018_14:13:34 7321 18 female R 3 3 12 self moralSelf J j 1 0.3784 
19-May-2018_14:13:36 7321 18 female R 3 3 13 self moralOther H h 1 0.5005 
19-May-2018_14:13:38 7321 18 female R 3 3 14 self immoralOther H h 1 0.4726 
19-May-2018_14:13:39 7321 18 female R 3 3 15 self moralSelf J j 1 0.3886 
19-May-2018_14:13:42 7321 18 female R 3 3 16 self moralOther H h 1 0.7388 
19-May-2018_14:13:43 7321 18 female R 3 3 17 self moralOther H h 1 0.3949 
19-May-2018_14:13:45 7321 18 female R 3 3 18 self moralOther H h 1 0.4030 
19-May-2018_14:13:46 7321 18 female R 3 3 19 self immoralOther H h 1 0.5011 
19-May-2018_14:13:48 7321 18 female R 3 3 20 self immoralOther H h 1 0.3612 
19-May-2018_14:13:49 7321 18 female R 3 3 21 self immoralOther H h 1 0.4295 
19-May-2018_14:13:51 7321 18 female R 3 3 22 self moralOther H h 1 0.5934 
19-May-2018_14:13:53 7321 18 female R 3 3 23 self moralSelf J j 1 0.3335 
19-May-2018_14:13:54 7321 18 female R 3 3 24 self immoralSelf J j 1 0.3496 
19-May-2018_14:13:56 7321 18 female R 3 4 1 self moralOther H h 1 0.5377 
19-May-2018_14:13:58 7321 18 female R 3 4 2 self moralOther H h 1 0.4299 
19-May-2018_14:14:00 7321 18 female R 3 4 3 self immoralOther H h 1 0.4538 
19-May-2018_14:14:01 7321 18 female R 3 4 4 self immoralOther H h 1 0.4200 
19-May-2018_14:14:03 7321 18 female R 3 4 5 self immoralOther H h 1 0.3760 
19-May-2018_14:14:05 7321 18 female R 3 4 6 self moralSelf J j 1 0.4420 
19-May-2018_14:14:06 7321 18 female R 3 4 7 self immoralSelf J j 1 0.4382 
19-May-2018_14:14:08 7321 18 female R 3 4 8 self moralSelf J j 1 0.4003 
19-May-2018_14:14:10 7321 18 female R 3 4 9 self immoralSelf J j 1 0.3744 
19-May-2018_14:14:11 7321 18 female R 3 4 10 self immoralOther H h 1 0.4205 
19-May-2018_14:14:14 7321 18 female R 3 4 11 self immoralSelf J j 1 0.5286 
19-May-2018_14:14:15 7321 18 female R 3 4 12 self moralSelf J j 1 0.3228 
19-May-2018_14:14:17 7321 18 female R 3 4 13 self moralOther H j 0 0.5169 
19-May-2018_14:14:19 7321 18 female R 3 4 14 self moralOther H h 1 0.4990 
19-May-2018_14:14:20 7321 18 female R 3 4 15 self moralOther H h 1 0.4491 
19-May-2018_14:14:22 7321 18 female R 3 4 16 self immoralSelf J j 1 0.5971 
19-May-2018_14:14:24 7321 18 female R 3 4 17 self moralSelf J j 1 0.4513 
19-May-2018_14:14:26 7321 18 female R 3 4 18 self immoralSelf J j 1 0.4152 
19-May-2018_14:14:27 7321 18 female R 3 4 19 self moralSelf J j 1 0.3914 
19-May-2018_14:14:29 7321 18 female R 3 4 20 self moralOther H h 1 0.4796 
19-May-2018_14:14:31 7321 18 female R 3 4 21 self immoralOther H h 1 0.6756 
19-May-2018_14:14:33 7321 18 female R 3 4 22 self immoralOther H h 1 0.4577 
19-May-2018_14:14:35 7321 18 female R 3 4 23 self immoralSelf J j 1 0.6318 
19-May-2018_14:14:36 7321 18 female R 3 4 24 self moralSelf J j 1 0.4040 
19-May-2018_14:14:42 7321 18 female R 3 5 1 self moralOther H h 1 0.5382 
19-May-2018_14:14:44 7321 18 female R 3 5 2 self immoralOther H h 1 0.3284 
19-May-2018_14:14:45 7321 18 female R 3 5 3 self moralSelf J j 1 0.4485 
19-May-2018_14:14:47 7321 18 female R 3 5 4 self immoralSelf J j 1 1.0245 
19-May-2018_14:14:49 7321 18 female R 3 5 5 self immoralSelf J j 1 0.3890 
19-May-2018_14:14:51 7321 18 female R 3 5 6 self moralOther H h 1 0.4847 
19-May-2018_14:14:53 7321 18 female R 3 5 7 self moralOther H h 1 0.3608 
19-May-2018_14:14:55 7321 18 female R 3 5 8 self immoralOther H h 1 0.4870 
19-May-2018_14:14:56 7321 18 female R 3 5 9 self immoralOther H h 1 0.3692 
19-May-2018_14:14:58 7321 18 female R 3 5 10 self moralSelf J j 1 0.4772 
19-May-2018_14:15:00 7321 18 female R 3 5 11 self moralOther H h 1 0.6032 
19-May-2018_14:15:01 7321 18 female R 3 5 12 self moralSelf J j 1 0.4354 
19-May-2018_14:15:03 7321 18 female R 3 5 13 self immoralOther H j 0 0.4214 
19-May-2018_14:15:05 7321 18 female R 3 5 14 self moralSelf J j 1 0.4296 
19-May-2018_14:15:07 7321 18 female R 3 5 15 self moralSelf J j 1 0.3797 
19-May-2018_14:15:09 7321 18 female R 3 5 16 self immoralSelf J j 1 0.5178 
19-May-2018_14:15:10 7321 18 female R 3 5 17 self immoralSelf J j 1 0.4699 
19-May-2018_14:15:12 7321 18 female R 3 5 18 self immoralSelf J j 1 0.3740 
19-May-2018_14:15:14 7321 18 female R 3 5 19 self moralSelf J j 1 0.4361 
19-May-2018_14:15:16 7321 18 female R 3 5 20 self immoralOther H j 0 0.4102 
19-May-2018_14:15:18 7321 18 female R 3 5 21 self moralOther H h 1 0.5902 
19-May-2018_14:15:20 7321 18 female R 3 5 22 self moralOther H h 1 0.4164 
19-May-2018_14:15:22 7321 18 female R 3 5 23 self immoralSelf J j 1 0.7085 
19-May-2018_14:15:23 7321 18 female R 3 5 24 self immoralOther H h 1 0.5326 
Date Sub Age Sex Hand Block Bin Trial Task Shape corrResp Resp ACC RT
19-May-2018_14:18:17 7321 18 female R 4 1 1 moral moralOther U NA -1 1.0850 
19-May-2018_14:18:19 7321 18 female R 4 1 2 moral immoralSelf Y NA -1 1.0850 
19-May-2018_14:18:21 7321 18 female R 4 1 3 moral immoralOther Y y 1 0.7007 
19-May-2018_14:18:23 7321 18 female R 4 1 4 moral moralSelf U u 1 0.5188 
19-May-2018_14:18:25 7321 18 female R 4 1 5 moral immoralSelf Y y 1 0.7868 
19-May-2018_14:18:27 7321 18 female R 4 1 6 moral moralSelf U u 1 0.4450 
19-May-2018_14:18:29 7321 18 female R 4 1 7 moral moralSelf U u 1 0.5830 
19-May-2018_14:18:31 7321 18 female R 4 1 8 moral immoralSelf Y y 1 0.7192 
19-May-2018_14:18:33 7321 18 female R 4 1 9 moral immoralOther Y y 1 0.4994 
19-May-2018_14:18:34 7321 18 female R 4 1 10 moral moralSelf U u 1 0.5254 
19-May-2018_14:18:36 7321 18 female R 4 1 11 moral immoralOther Y y 1 0.6535 
19-May-2018_14:18:39 7321 18 female R 4 1 12 moral immoralSelf Y y 1 0.9896 
19-May-2018_14:18:40 7321 18 female R 4 1 13 moral moralOther U u 1 0.6438 
19-May-2018_14:18:42 7321 18 female R 4 1 14 moral immoralOther Y y 1 0.5819 
19-May-2018_14:18:44 7321 18 female R 4 1 15 moral moralOther U u 1 0.8239 
19-May-2018_14:18:46 7321 18 female R 4 1 16 moral moralOther U u 1 0.5041 
19-May-2018_14:18:48 7321 18 female R 4 1 17 moral moralOther U u 1 0.4302 
19-May-2018_14:18:49 7321 18 female R 4 1 18 moral immoralOther Y y 1 0.6563 
19-May-2018_14:18:52 7321 18 female R 4 1 19 moral immoralSelf Y u 0 0.6484 
19-May-2018_14:18:53 7321 18 female R 4 1 20 moral moralSelf U u 1 0.8486 
19-May-2018_14:18:55 7321 18 female R 4 1 21 moral immoralOther Y y 1 0.5666 
19-May-2018_14:18:58 7321 18 female R 4 1 22 moral immoralSelf Y NA -1 1.0850 
19-May-2018_14:18:59 7321 18 female R 4 1 23 moral moralSelf U u 1 0.5129 
19-May-2018_14:19:02 7321 18 female R 4 1 24 moral moralOther U u 1 0.8871 
19-May-2018_14:19:03 7321 18 female R 4 2 1 moral moralOther U u 1 0.4051 
19-May-2018_14:19:05 7321 18 female R 4 2 2 moral moralOther U u 1 0.3712 
19-May-2018_14:19:07 7321 18 female R 4 2 3 moral immoralSelf Y y 1 0.8313 
19-May-2018_14:19:09 7321 18 female R 4 2 4 moral moralSelf U u 1 0.4934 
19-May-2018_14:19:11 7321 18 female R 4 2 5 moral moralOther U u 1 0.8595 
19-May-2018_14:19:13 7321 18 female R 4 2 6 moral immoralSelf Y u 0 0.5916 
19-May-2018_14:19:15 7321 18 female R 4 2 7 moral immoralOther Y y 1 0.5498 
19-May-2018_14:19:16 7321 18 female R 4 2 8 moral moralOther U u 1 0.5978 
19-May-2018_14:19:18 7321 18 female R 4 2 9 moral moralOther U u 1 0.4079 
19-May-2018_14:19:20 7321 18 female R 4 2 10 moral immoralSelf Y y 1 0.6441 
19-May-2018_14:19:22 7321 18 female R 4 2 11 moral immoralOther Y y 1 0.5682 
19-May-2018_14:19:23 7321 18 female R 4 2 12 moral immoralOther Y y 1 0.5042 
19-May-2018_14:19:25 7321 18 female R 4 2 13 moral moralSelf U u 1 0.4844 
19-May-2018_14:19:27 7321 18 female R 4 2 14 moral moralSelf U u 1 0.4644 
19-May-2018_14:19:29 7321 18 female R 4 2 15 moral immoralSelf Y y 1 0.8025 
19-May-2018_14:19:31 7321 18 female R 4 2 16 moral immoralOther Y y 1 0.5126 
19-May-2018_14:19:32 7321 18 female R 4 2 17 moral moralSelf U u 1 0.4609 
19-May-2018_14:19:34 7321 18 female R 4 2 18 moral moralSelf U u 1 0.4329 
19-May-2018_14:19:36 7321 18 female R 4 2 19 moral moralSelf U u 1 0.4950 
19-May-2018_14:19:38 7321 18 female R 4 2 20 moral moralOther U u 1 0.6630 
19-May-2018_14:19:40 7321 18 female R 4 2 21 moral immoralSelf Y y 1 0.6211 
19-May-2018_14:19:41 7321 18 female R 4 2 22 moral immoralSelf Y y 1 0.5993 
19-May-2018_14:19:43 7321 18 female R 4 2 23 moral immoralOther Y y 1 0.4993 
19-May-2018_14:19:45 7321 18 female R 4 2 24 moral immoralOther Y y 1 0.5155 
19-May-2018_14:20:43 7321 18 female R 4 3 1 moral moralSelf U u 1 0.4949 
19-May-2018_14:20:45 7321 18 female R 4 3 2 moral moralSelf U u 1 0.3988 
19-May-2018_14:20:46 7321 18 female R 4 3 3 moral moralSelf U u 1 0.3550 
19-May-2018_14:20:48 7321 18 female R 4 3 4 moral moralOther U u 1 0.5351 
19-May-2018_14:20:50 7321 18 female R 4 3 5 moral immoralSelf Y y 1 0.4752 
19-May-2018_14:20:52 7321 18 female R 4 3 6 moral immoralOther Y y 1 0.4793 
19-May-2018_14:20:54 7321 18 female R 4 3 7 moral immoralOther Y y 1 0.4514 
19-May-2018_14:20:55 7321 18 female R 4 3 8 moral moralOther U u 1 0.5815 
19-May-2018_14:20:57 7321 18 female R 4 3 9 moral moralSelf U u 1 0.5315 
19-May-2018_14:20:59 7321 18 female R 4 3 10 moral immoralSelf Y y 1 0.5178 
19-May-2018_14:21:00 7321 18 female R 4 3 11 moral moralSelf U u 1 0.4697 
19-May-2018_14:21:02 7321 18 female R 4 3 12 moral immoralOther Y y 1 0.4859 
19-May-2018_14:21:04 7321 18 female R 4 3 13 moral moralSelf U u 1 0.4660 
19-May-2018_14:21:06 7321 18 female R 4 3 14 moral moralOther U y 0 0.8060 
19-May-2018_14:21:07 7321 18 female R 4 3 15 moral moralOther U u 1 0.4062 
19-May-2018_14:21:09 7321 18 female R 4 3 16 moral moralOther U u 1 0.4102 
19-May-2018_14:21:11 7321 18 female R 4 3 17 moral immoralSelf Y y 1 0.4864 
19-May-2018_14:21:12 7321 18 female R 4 3 18 moral immoralOther Y y 1 0.5104 
19-May-2018_14:21:14 7321 18 female R 4 3 19 moral immoralSelf Y y 1 0.8325 
19-May-2018_14:21:16 7321 18 female R 4 3 20 moral immoralOther Y y 1 0.4786 
19-May-2018_14:21:18 7321 18 female R 4 3 21 moral immoralSelf Y y 1 0.3927 
19-May-2018_14:21:19 7321 18 female R 4 3 22 moral immoralSelf Y y 1 0.3648 
19-May-2018_14:21:20 7321 18 female R 4 3 23 moral moralOther U u 1 0.5070 
19-May-2018_14:21:22 7321 18 female R 4 3 24 moral immoralOther Y y 1 0.7474 
19-May-2018_14:21:24 7321 18 female R 4 4 1 moral immoralSelf Y y 1 0.6791 
19-May-2018_14:21:26 7321 18 female R 4 4 2 moral moralSelf U u 1 0.4772 
19-May-2018_14:21:28 7321 18 female R 4 4 3 moral immoralSelf Y y 1 0.5053 
19-May-2018_14:21:29 7321 18 female R 4 4 4 moral immoralSelf Y y 1 0.5173 
19-May-2018_14:21:31 7321 18 female R 4 4 5 moral moralOther U y 0 0.6095 
19-May-2018_14:21:33 7321 18 female R 4 4 6 moral immoralOther Y y 1 0.5296 
19-May-2018_14:21:35 7321 18 female R 4 4 7 moral immoralSelf Y y 1 0.5978 
19-May-2018_14:21:37 7321 18 female R 4 4 8 moral moralOther U u 1 0.5058 
19-May-2018_14:21:39 7321 18 female R 4 4 9 moral immoralOther Y y 1 0.7698 
19-May-2018_14:21:41 7321 18 female R 4 4 10 moral immoralOther Y y 1 0.4980 
19-May-2018_14:21:42 7321 18 female R 4 4 11 moral moralSelf U u 1 0.5221 
19-May-2018_14:21:44 7321 18 female R 4 4 12 moral moralSelf U u 1 0.3522 
19-May-2018_14:21:46 7321 18 female R 4 4 13 moral moralOther U u 1 0.5664 
19-May-2018_14:21:48 7321 18 female R 4 4 14 moral immoralOther Y y 1 0.4664 
19-May-2018_14:21:50 7321 18 female R 4 4 15 moral immoralSelf Y y 1 0.6725 
19-May-2018_14:21:51 7321 18 female R 4 4 16 moral moralSelf U u 1 0.5146 
19-May-2018_14:21:53 7321 18 female R 4 4 17 moral immoralOther Y y 1 0.5028 
19-May-2018_14:21:56 7321 18 female R 4 4 18 moral moralOther U u 1 0.8768 
19-May-2018_14:21:57 7321 18 female R 4 4 19 moral moralSelf U u 1 0.3910 
19-May-2018_14:21:59 7321 18 female R 4 4 20 moral immoralSelf Y y 1 0.4490 
19-May-2018_14:22:01 7321 18 female R 4 4 21 moral moralSelf U u 1 0.5491 
19-May-2018_14:22:02 7321 18 female R 4 4 22 moral moralOther U u 1 0.5232 
19-May-2018_14:22:04 7321 18 female R 4 4 23 moral moralOther U u 1 0.4735 
19-May-2018_14:22:06 7321 18 female R 4 4 24 moral immoralOther Y y 1 0.4694 
19-May-2018_14:22:12 7321 18 female R 4 5 1 moral immoralOther Y y 1 0.4838 
19-May-2018_14:22:14 7321 18 female R 4 5 2 moral immoralSelf Y u 0 0.7038 
19-May-2018_14:22:16 7321 18 female R 4 5 3 moral moralOther U u 1 0.5280 
19-May-2018_14:22:17 7321 18 female R 4 5 4 moral immoralSelf Y y 1 0.7901 
19-May-2018_14:22:19 7321 18 female R 4 5 5 moral moralSelf U u 1 0.5123 
19-May-2018_14:22:21 7321 18 female R 4 5 6 moral moralSelf U u 1 0.4362 
19-May-2018_14:22:23 7321 18 female R 4 5 7 moral moralOther U u 1 0.5888 
19-May-2018_14:22:25 7321 18 female R 4 5 8 moral immoralSelf Y u 0 0.5125 
19-May-2018_14:22:27 7321 18 female R 4 5 9 moral moralOther U u 1 0.8726 
19-May-2018_14:22:29 7321 18 female R 4 5 10 moral immoralOther Y y 1 0.5028 
19-May-2018_14:22:30 7321 18 female R 4 5 11 moral immoralOther Y y 1 0.3989 
19-May-2018_14:22:32 7321 18 female R 4 5 12 moral moralOther U u 1 0.6970 
19-May-2018_14:22:34 7321 18 female R 4 5 13 moral moralSelf U u 1 0.5391 
19-May-2018_14:22:36 7321 18 female R 4 5 14 moral immoralSelf Y y 1 0.8672 
19-May-2018_14:22:38 7321 18 female R 4 5 15 moral moralSelf U u 1 0.5033 
19-May-2018_14:22:40 7321 18 female R 4 5 16 moral moralOther U u 1 0.6434 
19-May-2018_14:22:42 7321 18 female R 4 5 17 moral moralOther U u 1 0.8795 
19-May-2018_14:22:44 7321 18 female R 4 5 18 moral immoralOther Y y 1 0.5316 
19-May-2018_14:22:46 7321 18 female R 4 5 19 moral moralSelf U u 1 0.4738 
19-May-2018_14:22:47 7321 18 female R 4 5 20 moral immoralSelf Y y 1 0.6898 
19-May-2018_14:22:50 7321 18 female R 4 5 21 moral immoralOther Y y 1 0.6439 
19-May-2018_14:22:51 7321 18 female R 4 5 22 moral moralSelf U u 1 0.4840 
19-May-2018_14:22:53 7321 18 female R 4 5 23 moral immoralSelf Y y 1 0.5442 
19-May-2018_14:22:55 7321 18 female R 4 5 24 moral immoralOther Y y 1 0.6363 
Date Sub Age Sex Hand Block Bin Trial Task Shape corrResp Resp ACC RT
19-May-2018_14:26:01 7321 18 female R 5 1 1 self moralOther H NA -1 1.0850 
19-May-2018_14:26:03 7321 18 female R 5 1 2 self moralOther H NA -1 1.0850 
19-May-2018_14:26:05 7321 18 female R 5 1 3 self moralSelf J j 1 0.5950 
19-May-2018_14:26:07 7321 18 female R 5 1 4 self moralSelf J j 1 0.3771 
19-May-2018_14:26:09 7321 18 female R 5 1 5 self moralSelf J j 1 0.4173 
19-May-2018_14:26:11 7321 18 female R 5 1 6 self immoralOther H h 1 0.6114 
19-May-2018_14:26:12 7321 18 female R 5 1 7 self immoralSelf J j 1 0.6575 
19-May-2018_14:26:15 7321 18 female R 5 1 8 self immoralSelf J j 1 0.6415 
19-May-2018_14:26:16 7321 18 female R 5 1 9 self immoralSelf J j 1 0.3837 
19-May-2018_14:26:18 7321 18 female R 5 1 10 self immoralOther H h 1 0.6058 
19-May-2018_14:26:20 7321 18 female R 5 1 11 self immoralOther H h 1 0.4259 
19-May-2018_14:26:22 7321 18 female R 5 1 12 self moralSelf J j 1 0.4661 
19-May-2018_14:26:23 7321 18 female R 5 1 13 self immoralOther H h 1 0.4302 
19-May-2018_14:26:25 7321 18 female R 5 1 14 self moralSelf J j 1 0.4682 
19-May-2018_14:26:27 7321 18 female R 5 1 15 self moralOther H h 1 0.9702 
19-May-2018_14:26:29 7321 18 female R 5 1 16 self immoralSelf J j 1 0.5965 
19-May-2018_14:26:31 7321 18 female R 5 1 17 self moralOther H h 1 0.6645 
19-May-2018_14:26:33 7321 18 female R 5 1 18 self immoralOther H h 1 0.7186 
19-May-2018_14:26:35 7321 18 female R 5 1 19 self moralOther H h 1 0.7707 
19-May-2018_14:26:37 7321 18 female R 5 1 20 self immoralOther H h 1 0.5289 
19-May-2018_14:26:38 7321 18 female R 5 1 21 self moralSelf J j 1 0.5070 
19-May-2018_14:26:40 7321 18 female R 5 1 22 self immoralSelf J j 1 0.4731 
19-May-2018_14:26:42 7321 18 female R 5 1 23 self immoralSelf J j 1 0.3491 
19-May-2018_14:26:44 7321 18 female R 5 1 24 self moralOther H h 1 0.5093 
19-May-2018_14:26:45 7321 18 female R 5 2 1 self immoralOther H h 1 0.4114 
19-May-2018_14:26:47 7321 18 female R 5 2 2 self immoralOther H h 1 0.4695 
19-May-2018_14:26:49 7321 18 female R 5 2 3 self moralOther H h 1 0.8055 
19-May-2018_14:26:51 7321 18 female R 5 2 4 self immoralOther H h 1 0.4697 
19-May-2018_14:26:53 7321 18 female R 5 2 5 self moralOther H h 1 0.5898 
19-May-2018_14:26:55 7321 18 female R 5 2 6 self moralSelf J j 1 0.4419 
19-May-2018_14:26:57 7321 18 female R 5 2 7 self immoralSelf J j 1 0.4881 
19-May-2018_14:26:59 7321 18 female R 5 2 8 self immoralSelf J j 1 0.4540 
19-May-2018_14:27:01 7321 18 female R 5 2 9 self immoralSelf J j 1 0.5183 
19-May-2018_14:27:02 7321 18 female R 5 2 10 self moralSelf J j 1 0.6062 
19-May-2018_14:27:04 7321 18 female R 5 2 11 self moralSelf J j 1 0.4624 
19-May-2018_14:27:06 7321 18 female R 5 2 12 self immoralOther H h 1 0.4945 
19-May-2018_14:27:08 7321 18 female R 5 2 13 self moralOther H h 1 0.7446 
19-May-2018_14:27:10 7321 18 female R 5 2 14 self immoralSelf J j 1 0.5348 
19-May-2018_14:27:12 7321 18 female R 5 2 15 self moralOther H h 1 0.7628 
19-May-2018_14:27:14 7321 18 female R 5 2 16 self moralSelf J j 1 0.4611 
19-May-2018_14:27:16 7321 18 female R 5 2 17 self immoralSelf J j 1 0.7650 
19-May-2018_14:27:17 7321 18 female R 5 2 18 self immoralSelf J j 1 0.4131 
19-May-2018_14:27:19 7321 18 female R 5 2 19 self moralSelf J j 1 0.4514 
19-May-2018_14:27:20 7321 18 female R 5 2 20 self immoralOther H h 1 0.4814 
19-May-2018_14:27:22 7321 18 female R 5 2 21 self moralOther H h 1 0.5013 
19-May-2018_14:27:24 7321 18 female R 5 2 22 self immoralOther H h 1 0.5136 
19-May-2018_14:27:26 7321 18 female R 5 2 23 self moralSelf J j 1 0.4716 
19-May-2018_14:27:28 7321 18 female R 5 2 24 self moralOther H h 1 0.5817 
19-May-2018_14:27:34 7321 18 female R 5 3 1 self immoralSelf J j 1 0.6342 
19-May-2018_14:27:35 7321 18 female R 5 3 2 self immoralSelf J j 1 0.3822 
19-May-2018_14:27:37 7321 18 female R 5 3 3 self moralOther H h 1 0.5723 
19-May-2018_14:27:39 7321 18 female R 5 3 4 self moralSelf J j 1 0.4625 
19-May-2018_14:27:41 7321 18 female R 5 3 5 self immoralOther H h 1 0.5325 
19-May-2018_14:27:43 7321 18 female R 5 3 6 self immoralSelf J j 1 0.5906 
19-May-2018_14:27:44 7321 18 female R 5 3 7 self moralSelf J j 1 0.3687 
19-May-2018_14:27:46 7321 18 female R 5 3 8 self moralOther H h 1 0.7107 
19-May-2018_14:27:48 7321 18 female R 5 3 9 self immoralOther H h 1 0.4849 
19-May-2018_14:27:50 7321 18 female R 5 3 10 self moralOther H h 1 0.4791 
19-May-2018_14:27:52 7321 18 female R 5 3 11 self immoralOther H h 1 0.4571 
19-May-2018_14:27:53 7321 18 female R 5 3 12 self immoralSelf J j 1 0.4632 
19-May-2018_14:27:55 7321 18 female R 5 3 13 self moralSelf J j 1 0.5154 
19-May-2018_14:27:57 7321 18 female R 5 3 14 self moralSelf J j 1 0.3553 
19-May-2018_14:27:59 7321 18 female R 5 3 15 self moralSelf J j 1 0.3276 
19-May-2018_14:28:01 7321 18 female R 5 3 16 self immoralOther H h 1 0.4776 
19-May-2018_14:28:02 7321 18 female R 5 3 17 self moralSelf J j 1 0.4657 
19-May-2018_14:28:04 7321 18 female R 5 3 18 self immoralOther H h 1 0.4618 
19-May-2018_14:28:05 7321 18 female R 5 3 19 self immoralOther H h 1 0.4000 
19-May-2018_14:28:07 7321 18 female R 5 3 20 self moralOther H h 1 0.5421 
19-May-2018_14:28:09 7321 18 female R 5 3 21 self immoralSelf J j 1 0.4361 
19-May-2018_14:28:11 7321 18 female R 5 3 22 self immoralSelf J j 1 0.4062 
19-May-2018_14:28:12 7321 18 female R 5 3 23 self moralOther H h 1 0.6103 
19-May-2018_14:28:14 7321 18 female R 5 3 24 self moralOther H h 1 0.3085 
19-May-2018_14:28:16 7321 18 female R 5 4 1 self moralOther H h 1 0.3764 
19-May-2018_14:28:17 7321 18 female R 5 4 2 self moralSelf J j 1 0.4066 
19-May-2018_14:28:19 7321 18 female R 5 4 3 self moralOther H h 1 0.5386 
19-May-2018_14:28:21 7321 18 female R 5 4 4 self moralSelf J j 1 0.4107 
19-May-2018_14:28:22 7321 18 female R 5 4 5 self immoralOther H h 1 0.4409 
19-May-2018_14:28:24 7321 18 female R 5 4 6 self moralSelf J j 1 0.4770 
19-May-2018_14:28:26 7321 18 female R 5 4 7 self moralOther H h 1 0.5171 
19-May-2018_14:28:28 7321 18 female R 5 4 8 self immoralOther H h 1 0.4752 
19-May-2018_14:28:29 7321 18 female R 5 4 9 self moralOther H h 1 0.6812 
19-May-2018_14:28:31 7321 18 female R 5 4 10 self moralSelf J j 1 0.4113 
19-May-2018_14:28:33 7321 18 female R 5 4 11 self moralSelf J j 1 0.3694 
19-May-2018_14:28:34 7321 18 female R 5 4 12 self immoralSelf J j 1 0.5197 
19-May-2018_14:28:36 7321 18 female R 5 4 13 self moralSelf J j 1 0.4337 
19-May-2018_14:28:37 7321 18 female R 5 4 14 self immoralSelf J j 1 0.4677 
19-May-2018_14:28:39 7321 18 female R 5 4 15 self immoralSelf J j 1 0.3960 
19-May-2018_14:28:40 7321 18 female R 5 4 16 self immoralOther H h 1 0.5338 
19-May-2018_14:28:42 7321 18 female R 5 4 17 self moralOther H h 1 0.5221 
19-May-2018_14:28:44 7321 18 female R 5 4 18 self immoralSelf J j 1 0.4520 
19-May-2018_14:28:46 7321 18 female R 5 4 19 self immoralOther H h 1 0.4201 
19-May-2018_14:28:47 7321 18 female R 5 4 20 self immoralSelf J j 1 0.3723 
19-May-2018_14:28:49 7321 18 female R 5 4 21 self immoralOther H h 1 0.4605 
19-May-2018_14:28:50 7321 18 female R 5 4 22 self moralOther H h 1 0.5465 
19-May-2018_14:28:52 7321 18 female R 5 4 23 self immoralOther H h 1 0.4124 
19-May-2018_14:28:54 7321 18 female R 5 4 24 self immoralSelf J h 0 0.3767 
19-May-2018_14:29:06 7321 18 female R 5 5 1 self moralSelf J j 1 0.3913 
19-May-2018_14:29:07 7321 18 female R 5 5 2 self moralSelf J j 1 0.4494 
19-May-2018_14:29:09 7321 18 female R 5 5 3 self moralOther H h 1 0.6955 
19-May-2018_14:29:11 7321 18 female R 5 5 4 self immoralSelf J j 1 0.7516 
19-May-2018_14:29:13 7321 18 female R 5 5 5 self moralOther H h 1 0.5038 
19-May-2018_14:29:15 7321 18 female R 5 5 6 self moralSelf J j 1 0.4539 
19-May-2018_14:29:17 7321 18 female R 5 5 7 self moralOther H h 1 0.5419 
19-May-2018_14:29:18 7321 18 female R 5 5 8 self moralSelf J j 1 0.4641 
19-May-2018_14:29:20 7321 18 female R 5 5 9 self immoralSelf J j 1 0.5082 
19-May-2018_14:29:22 7321 18 female R 5 5 10 self immoralOther H h 1 0.4962 
19-May-2018_14:29:24 7321 18 female R 5 5 11 self immoralOther H h 1 0.4503 
19-May-2018_14:29:25 7321 18 female R 5 5 12 self moralOther H j 0 0.4705 
19-May-2018_14:29:27 7321 18 female R 5 5 13 self immoralOther H h 1 0.4685 
19-May-2018_14:29:29 7321 18 female R 5 5 14 self immoralOther H h 1 0.4186 
19-May-2018_14:29:31 7321 18 female R 5 5 15 self immoralSelf J j 1 0.4847 
19-May-2018_14:29:32 7321 18 female R 5 5 16 self immoralOther H h 1 0.5529 
19-May-2018_14:29:34 7321 18 female R 5 5 17 self immoralSelf J j 1 0.5311 
19-May-2018_14:29:36 7321 18 female R 5 5 18 self immoralSelf J j 1 0.4229 
19-May-2018_14:29:38 7321 18 female R 5 5 19 self moralOther H h 1 0.6871 
19-May-2018_14:29:39 7321 18 female R 5 5 20 self immoralOther H h 1 0.4636 
19-May-2018_14:29:41 7321 18 female R 5 5 21 self moralSelf J j 1 0.4593 
19-May-2018_14:29:43 7321 18 female R 5 5 22 self moralOther H h 1 0.7154 
19-May-2018_14:29:45 7321 18 female R 5 5 23 self moralSelf J j 1 0.4495 
19-May-2018_14:29:47 7321 18 female R 5 5 24 self immoralSelf J j 1 0.3716 
Date Sub Age Sex Hand Block Bin Trial Task Shape corrResp Resp ACC RT
19-May-2018_14:31:56 7321 18 female R 6 1 1 moral immoralSelf Y y 1 0.9270 
19-May-2018_14:31:58 7321 18 female R 6 1 2 moral moralSelf U u 1 0.4931 
19-May-2018_14:32:00 7321 18 female R 6 1 3 moral immoralOther Y y 1 0.6171 
19-May-2018_14:32:02 7321 18 female R 6 1 4 moral moralOther U u 1 0.6954 
19-May-2018_14:32:04 7321 18 female R 6 1 5 moral moralSelf U u 1 0.4294 
19-May-2018_14:32:06 7321 18 female R 6 1 6 moral moralSelf U u 1 0.3615 
19-May-2018_14:32:07 7321 18 female R 6 1 7 moral moralSelf U u 1 0.4276 
19-May-2018_14:32:09 7321 18 female R 6 1 8 moral immoralSelf Y y 1 0.6378 
19-May-2018_14:32:11 7321 18 female R 6 1 9 moral moralOther U u 1 0.5319 
19-May-2018_14:32:13 7321 18 female R 6 1 10 moral moralSelf U u 1 0.4439 
19-May-2018_14:32:14 7321 18 female R 6 1 11 moral immoralOther Y y 1 0.5320 
19-May-2018_14:32:17 7321 18 female R 6 1 12 moral moralOther U u 1 0.8322 
19-May-2018_14:32:19 7321 18 female R 6 1 13 moral immoralSelf Y y 1 0.8703 
19-May-2018_14:32:21 7321 18 female R 6 1 14 moral immoralOther Y y 1 0.6764 
19-May-2018_14:32:23 7321 18 female R 6 1 15 moral moralOther U u 1 0.5425 
19-May-2018_14:32:24 7321 18 female R 6 1 16 moral moralOther U u 1 0.4086 
19-May-2018_14:32:26 7321 18 female R 6 1 17 moral immoralSelf Y y 1 0.6527 
19-May-2018_14:32:28 7321 18 female R 6 1 18 moral immoralOther Y y 1 0.5008 
19-May-2018_14:32:29 7321 18 female R 6 1 19 moral immoralOther Y y 1 0.3930 
19-May-2018_14:32:32 7321 18 female R 6 1 20 moral immoralSelf Y y 1 0.9890 
19-May-2018_14:32:33 7321 18 female R 6 1 21 moral immoralSelf Y y 1 0.3911 
19-May-2018_14:32:35 7321 18 female R 6 1 22 moral moralOther U u 1 0.5632 
19-May-2018_14:32:37 7321 18 female R 6 1 23 moral moralSelf U u 1 0.4853 
19-May-2018_14:32:39 7321 18 female R 6 1 24 moral immoralOther Y y 1 0.4655 
19-May-2018_14:32:41 7321 18 female R 6 2 1 moral immoralSelf Y y 1 0.6935 
19-May-2018_14:32:42 7321 18 female R 6 2 2 moral moralSelf U u 1 0.4556 
19-May-2018_14:32:45 7321 18 female R 6 2 3 moral moralOther U u 1 1.0377 
19-May-2018_14:32:46 7321 18 female R 6 2 4 moral immoralOther Y y 1 0.4179 
19-May-2018_14:32:48 7321 18 female R 6 2 5 moral immoralOther Y y 1 0.4879 
19-May-2018_14:32:50 7321 18 female R 6 2 6 moral moralSelf U u 1 0.4660 
19-May-2018_14:32:51 7321 18 female R 6 2 7 moral moralSelf U u 1 0.4482 
19-May-2018_14:32:53 7321 18 female R 6 2 8 moral immoralOther Y y 1 0.5402 
19-May-2018_14:32:55 7321 18 female R 6 2 9 moral immoralOther Y y 1 0.3544 
19-May-2018_14:32:57 7321 18 female R 6 2 10 moral immoralSelf Y y 1 0.8325 
19-May-2018_14:32:59 7321 18 female R 6 2 11 moral moralOther U u 1 0.4986 
19-May-2018_14:33:01 7321 18 female R 6 2 12 moral moralSelf U u 1 0.4547 
19-May-2018_14:33:02 7321 18 female R 6 2 13 moral moralOther U y 0 0.5348 
19-May-2018_14:33:04 7321 18 female R 6 2 14 moral immoralOther Y y 1 0.5989 
19-May-2018_14:33:06 7321 18 female R 6 2 15 moral immoralOther Y y 1 0.4969 
19-May-2018_14:33:08 7321 18 female R 6 2 16 moral immoralSelf Y u 0 0.5451 
19-May-2018_14:33:10 7321 18 female R 6 2 17 moral moralOther U u 1 0.9391 
19-May-2018_14:33:12 7321 18 female R 6 2 18 moral immoralSelf Y y 1 0.7213 
19-May-2018_14:33:13 7321 18 female R 6 2 19 moral moralSelf U u 1 0.4355 
19-May-2018_14:33:15 7321 18 female R 6 2 20 moral immoralSelf Y y 1 0.6474 
19-May-2018_14:33:17 7321 18 female R 6 2 21 moral moralOther U u 1 0.5255 
19-May-2018_14:33:19 7321 18 female R 6 2 22 moral immoralSelf Y y 1 0.5817 
19-May-2018_14:33:21 7321 18 female R 6 2 23 moral moralSelf U u 1 0.5878 
19-May-2018_14:33:23 7321 18 female R 6 2 24 moral moralOther U u 1 0.6219 
19-May-2018_14:33:27 7321 18 female R 6 3 1 moral immoralOther Y y 1 0.6202 
19-May-2018_14:33:29 7321 18 female R 6 3 2 moral immoralSelf Y y 1 0.7983 
19-May-2018_14:33:31 7321 18 female R 6 3 3 moral moralOther U u 1 0.5286 
19-May-2018_14:33:32 7321 18 female R 6 3 4 moral moralSelf U u 1 0.3585 
19-May-2018_14:33:34 7321 18 female R 6 3 5 moral immoralSelf Y y 1 0.6845 
19-May-2018_14:33:36 7321 18 female R 6 3 6 moral immoralSelf Y y 1 0.5767 
19-May-2018_14:33:38 7321 18 female R 6 3 7 moral moralSelf U u 1 0.3907 
19-May-2018_14:33:40 7321 18 female R 6 3 8 moral moralOther U u 1 0.3989 
19-May-2018_14:33:41 7321 18 female R 6 3 9 moral moralOther U u 1 0.4449 
19-May-2018_14:33:43 7321 18 female R 6 3 10 moral immoralSelf Y y 1 0.5491 
19-May-2018_14:33:45 7321 18 female R 6 3 11 moral immoralSelf Y y 1 0.4132 
19-May-2018_14:33:46 7321 18 female R 6 3 12 moral immoralSelf Y y 1 0.3573 
19-May-2018_14:33:48 7321 18 female R 6 3 13 moral moralOther U u 1 0.5433 
19-May-2018_14:33:50 7321 18 female R 6 3 14 moral moralSelf U u 1 0.5094 
19-May-2018_14:33:51 7321 18 female R 6 3 15 moral immoralOther Y y 1 0.5176 
19-May-2018_14:33:53 7321 18 female R 6 3 16 moral moralSelf U u 1 0.4777 
19-May-2018_14:33:55 7321 18 female R 6 3 17 moral immoralOther Y y 1 0.4317 
19-May-2018_14:33:56 7321 18 female R 6 3 18 moral moralSelf U u 1 0.4658 
19-May-2018_14:33:58 7321 18 female R 6 3 19 moral moralOther U u 1 0.5359 
19-May-2018_14:34:00 7321 18 female R 6 3 20 moral moralOther U u 1 0.3321 
19-May-2018_14:34:02 7321 18 female R 6 3 21 moral moralSelf U u 1 0.4261 
19-May-2018_14:34:03 7321 18 female R 6 3 22 moral immoralOther Y y 1 0.4782 
19-May-2018_14:34:05 7321 18 female R 6 3 23 moral immoralOther Y y 1 0.3083 
19-May-2018_14:34:06 7321 18 female R 6 3 24 moral immoralOther Y y 1 0.3164 
19-May-2018_14:34:09 7321 18 female R 6 4 1 moral immoralSelf Y y 1 0.8923 
19-May-2018_14:34:10 7321 18 female R 6 4 2 moral moralOther U u 1 0.5125 
19-May-2018_14:34:12 7321 18 female R 6 4 3 moral immoralOther Y y 1 0.4786 
19-May-2018_14:34:14 7321 18 female R 6 4 4 moral moralSelf U u 1 0.4248 
19-May-2018_14:34:15 7321 18 female R 6 4 5 moral immoralOther Y y 1 0.4229 
19-May-2018_14:34:17 7321 18 female R 6 4 6 moral moralSelf U u 1 0.4811 
19-May-2018_14:34:19 7321 18 female R 6 4 7 moral moralSelf U u 1 0.5591 
19-May-2018_14:34:21 7321 18 female R 6 4 8 moral immoralSelf Y y 1 0.7732 
19-May-2018_14:34:22 7321 18 female R 6 4 9 moral moralSelf U u 1 0.4534 
19-May-2018_14:34:25 7321 18 female R 6 4 10 moral immoralOther Y y 1 0.5474 
19-May-2018_14:34:26 7321 18 female R 6 4 11 moral moralOther U u 1 0.5615 
19-May-2018_14:34:29 7321 18 female R 6 4 12 moral moralOther U u 1 1.0036 
19-May-2018_14:34:31 7321 18 female R 6 4 13 moral immoralSelf Y y 1 0.5157 
19-May-2018_14:34:32 7321 18 female R 6 4 14 moral immoralOther Y y 1 0.4679 
19-May-2018_14:34:34 7321 18 female R 6 4 15 moral immoralSelf Y y 1 0.7141 
19-May-2018_14:34:36 7321 18 female R 6 4 16 moral moralSelf U u 1 0.4721 
19-May-2018_14:34:38 7321 18 female R 6 4 17 moral moralSelf U u 1 0.4481 
19-May-2018_14:34:40 7321 18 female R 6 4 18 moral immoralOther Y y 1 0.4683 
19-May-2018_14:34:41 7321 18 female R 6 4 19 moral immoralOther Y y 1 0.4944 
19-May-2018_14:34:43 7321 18 female R 6 4 20 moral immoralSelf Y y 1 1.0384 
19-May-2018_14:34:45 7321 18 female R 6 4 21 moral moralOther U u 1 0.4566 
19-May-2018_14:34:47 7321 18 female R 6 4 22 moral moralOther U u 1 0.4567 
19-May-2018_14:34:48 7321 18 female R 6 4 23 moral immoralSelf Y u 0 0.5528 
19-May-2018_14:34:50 7321 18 female R 6 4 24 moral moralOther U u 1 0.4850 
19-May-2018_14:35:05 7321 18 female R 6 5 1 moral immoralSelf Y y 1 0.8099 
19-May-2018_14:35:07 7321 18 female R 6 5 2 moral moralOther U u 1 0.4561 
19-May-2018_14:35:09 7321 18 female R 6 5 3 moral moralSelf U u 1 0.4880 
19-May-2018_14:35:10 7321 18 female R 6 5 4 moral immoralSelf Y y 1 0.4700 
19-May-2018_14:35:12 7321 18 female R 6 5 5 moral immoralSelf Y y 1 0.3961 
19-May-2018_14:35:14 7321 18 female R 6 5 6 moral immoralSelf Y y 1 0.3463 
19-May-2018_14:35:15 7321 18 female R 6 5 7 moral immoralOther Y y 1 0.4743 
19-May-2018_14:35:17 7321 18 female R 6 5 8 moral moralSelf U u 1 0.4084 
19-May-2018_14:35:18 7321 18 female R 6 5 9 moral immoralOther Y y 1 0.4765 
19-May-2018_14:35:20 7321 18 female R 6 5 10 moral immoralSelf Y y 1 0.3706 
19-May-2018_14:35:22 7321 18 female R 6 5 11 moral moralSelf U u 1 0.4888 
19-May-2018_14:35:24 7321 18 female R 6 5 12 moral immoralOther Y y 1 0.4988 
19-May-2018_14:35:25 7321 18 female R 6 5 13 moral moralSelf U u 1 0.5309 
19-May-2018_14:35:27 7321 18 female R 6 5 14 moral moralSelf U u 1 0.5750 
19-May-2018_14:35:29 7321 18 female R 6 5 15 moral moralOther U u 1 0.4871 
19-May-2018_14:35:31 7321 18 female R 6 5 16 moral immoralOther Y y 1 0.4052 
19-May-2018_14:35:32 7321 18 female R 6 5 17 moral immoralOther Y y 1 0.5513 
19-May-2018_14:35:34 7321 18 female R 6 5 18 moral moralOther U u 1 0.5174 
19-May-2018_14:35:36 7321 18 female R 6 5 19 moral immoralSelf Y y 1 0.6315 
19-May-2018_14:35:38 7321 18 female R 6 5 20 moral moralOther U u 1 0.6716 
19-May-2018_14:35:40 7321 18 female R 6 5 21 moral immoralOther Y y 1 0.4877 
19-May-2018_14:35:41 7321 18 female R 6 5 22 moral moralOther U u 1 0.6098 
19-May-2018_14:35:43 7321 18 female R 6 5 23 moral moralSelf U u 1 0.4719 
19-May-2018_14:35:45 7321 18 female R 6 5 24 moral moralOther U u 1 0.5300 
