Date Sub Age Sex Hand Block Bin Trial Task Shape corrResp Resp ACC RT
09-May-2018_13:55:50 7306 21 male R 1 1 1 self moralSelf J j 1 0.5076 
09-May-2018_13:55:52 7306 21 male R 1 1 2 self moralOther H h 1 0.6317 
09-May-2018_13:55:54 7306 21 male R 1 1 3 self immoralOther H h 1 0.7538 
09-May-2018_13:55:55 7306 21 male R 1 1 4 self moralSelf J j 1 0.5719 
09-May-2018_13:55:57 7306 21 male R 1 1 5 self moralOther H h 1 0.5421 
09-May-2018_13:55:59 7306 21 male R 1 1 6 self moralSelf J j 1 0.5621 
09-May-2018_13:56:01 7306 21 male R 1 1 7 self moralOther H h 1 0.4902 
09-May-2018_13:56:03 7306 21 male R 1 1 8 self moralOther H h 1 0.4723 
09-May-2018_13:56:05 7306 21 male R 1 1 9 self immoralSelf J j 1 0.4804 
09-May-2018_13:56:07 7306 21 male R 1 1 10 self immoralSelf J j 1 0.5086 
09-May-2018_13:56:08 7306 21 male R 1 1 11 self immoralOther H h 1 0.5668 
09-May-2018_13:56:10 7306 21 male R 1 1 12 self immoralSelf J j 1 0.4947 
09-May-2018_13:56:12 7306 21 male R 1 1 13 self moralSelf J h 0 0.6368 
09-May-2018_13:56:13 7306 21 male R 1 1 14 self moralOther H h 1 0.4810 
09-May-2018_13:56:15 7306 21 male R 1 1 15 self immoralSelf J j 1 0.4910 
09-May-2018_13:56:17 7306 21 male R 1 1 16 self moralSelf J j 1 0.5012 
09-May-2018_13:56:19 7306 21 male R 1 1 17 self immoralSelf J j 1 0.5692 
09-May-2018_13:56:20 7306 21 male R 1 1 18 self immoralOther H h 1 0.5434 
09-May-2018_13:56:22 7306 21 male R 1 1 19 self moralSelf J j 1 0.5014 
09-May-2018_13:56:24 7306 21 male R 1 1 20 self immoralOther H h 1 0.5837 
09-May-2018_13:56:26 7306 21 male R 1 1 21 self immoralSelf J j 1 0.4158 
09-May-2018_13:56:28 7306 21 male R 1 1 22 self immoralOther H h 1 0.4537 
09-May-2018_13:56:30 7306 21 male R 1 1 23 self moralOther H h 1 0.2939 
09-May-2018_13:56:31 7306 21 male R 1 1 24 self immoralOther H h 1 0.4479 
09-May-2018_13:56:33 7306 21 male R 1 2 1 self immoralSelf J j 1 0.4160 
09-May-2018_13:56:35 7306 21 male R 1 2 2 self immoralSelf J j 1 0.3821 
09-May-2018_13:56:37 7306 21 male R 1 2 3 self immoralOther H h 1 0.6003 
09-May-2018_13:56:39 7306 21 male R 1 2 4 self moralSelf J j 1 0.5044 
09-May-2018_13:56:40 7306 21 male R 1 2 5 self moralOther H h 1 0.4465 
09-May-2018_13:56:42 7306 21 male R 1 2 6 self moralSelf J j 1 0.5165 
09-May-2018_13:56:44 7306 21 male R 1 2 7 self moralSelf J j 1 0.3527 
09-May-2018_13:56:46 7306 21 male R 1 2 8 self moralSelf J j 1 0.3408 
09-May-2018_13:56:47 7306 21 male R 1 2 9 self moralSelf J j 1 0.2909 
09-May-2018_13:56:48 7306 21 male R 1 2 10 self moralOther H h 1 0.3549 
09-May-2018_13:56:50 7306 21 male R 1 2 11 self immoralSelf J j 1 0.3810 
09-May-2018_13:56:52 7306 21 male R 1 2 12 self immoralOther H h 1 0.4972 
09-May-2018_13:56:54 7306 21 male R 1 2 13 self immoralOther H j 0 0.3872 
09-May-2018_13:56:55 7306 21 male R 1 2 14 self moralSelf J j 1 0.5254 
09-May-2018_13:56:57 7306 21 male R 1 2 15 self immoralOther H h 1 0.4174 
09-May-2018_13:56:59 7306 21 male R 1 2 16 self immoralOther H h 1 0.3275 
09-May-2018_13:57:00 7306 21 male R 1 2 17 self immoralOther H h 1 0.3157 
09-May-2018_13:57:02 7306 21 male R 1 2 18 self moralOther H h 1 0.5497 
09-May-2018_13:57:03 7306 21 male R 1 2 19 self moralOther H h 1 0.3499 
09-May-2018_13:57:05 7306 21 male R 1 2 20 self immoralSelf J j 1 0.3798 
09-May-2018_13:57:07 7306 21 male R 1 2 21 self moralOther H h 1 0.3881 
09-May-2018_13:57:09 7306 21 male R 1 2 22 self immoralSelf J j 1 0.4081 
09-May-2018_13:57:10 7306 21 male R 1 2 23 self moralOther H h 1 0.3742 
09-May-2018_13:57:12 7306 21 male R 1 2 24 self immoralSelf J j 1 0.4403 
09-May-2018_13:57:26 7306 21 male R 1 3 1 self immoralOther H NA -1 1.0850 
09-May-2018_13:57:28 7306 21 male R 1 3 2 self immoralSelf J j 1 0.6932 
09-May-2018_13:57:30 7306 21 male R 1 3 3 self moralOther H h 1 0.5313 
09-May-2018_13:57:32 7306 21 male R 1 3 4 self immoralSelf J j 1 0.4755 
09-May-2018_13:57:34 7306 21 male R 1 3 5 self moralOther H h 1 0.5675 
09-May-2018_13:57:36 7306 21 male R 1 3 6 self moralSelf J j 1 0.4917 
09-May-2018_13:57:37 7306 21 male R 1 3 7 self moralSelf J j 1 0.5217 
09-May-2018_13:57:39 7306 21 male R 1 3 8 self moralOther H h 1 0.3739 
09-May-2018_13:57:41 7306 21 male R 1 3 9 self moralSelf J j 1 0.4039 
09-May-2018_13:57:43 7306 21 male R 1 3 10 self immoralSelf J j 1 0.4700 
09-May-2018_13:57:44 7306 21 male R 1 3 11 self immoralSelf J j 1 0.3661 
09-May-2018_13:57:46 7306 21 male R 1 3 12 self immoralOther H h 1 0.4362 
09-May-2018_13:57:48 7306 21 male R 1 3 13 self immoralOther H h 1 0.5303 
09-May-2018_13:57:50 7306 21 male R 1 3 14 self moralOther H j 0 0.4145 
09-May-2018_13:57:52 7306 21 male R 1 3 15 self immoralSelf J j 1 0.4405 
09-May-2018_13:57:53 7306 21 male R 1 3 16 self moralSelf J j 1 0.4506 
09-May-2018_13:57:55 7306 21 male R 1 3 17 self moralOther H h 1 0.3747 
09-May-2018_13:57:57 7306 21 male R 1 3 18 self immoralSelf J j 1 0.4210 
09-May-2018_13:57:58 7306 21 male R 1 3 19 self moralOther H h 1 0.3489 
09-May-2018_13:58:00 7306 21 male R 1 3 20 self immoralOther H h 1 0.5191 
09-May-2018_13:58:02 7306 21 male R 1 3 21 self immoralOther H h 1 0.3251 
09-May-2018_13:58:03 7306 21 male R 1 3 22 self immoralOther H h 1 0.2612 
09-May-2018_13:58:05 7306 21 male R 1 3 23 self moralSelf J j 1 0.3633 
09-May-2018_13:58:07 7306 21 male R 1 3 24 self moralSelf J j 1 0.8935 
09-May-2018_13:58:09 7306 21 male R 1 4 1 self moralOther H h 1 0.4635 
09-May-2018_13:58:10 7306 21 male R 1 4 2 self immoralOther H h 1 0.4916 
09-May-2018_13:58:12 7306 21 male R 1 4 3 self immoralOther H h 1 0.3638 
09-May-2018_13:58:14 7306 21 male R 1 4 4 self moralOther H h 1 0.4678 
09-May-2018_13:58:15 7306 21 male R 1 4 5 self moralSelf J j 1 0.6179 
09-May-2018_13:58:17 7306 21 male R 1 4 6 self immoralOther H h 1 0.4080 
09-May-2018_13:58:19 7306 21 male R 1 4 7 self moralOther H h 1 0.4041 
09-May-2018_13:58:21 7306 21 male R 1 4 8 self moralSelf J j 1 0.3681 
09-May-2018_13:58:22 7306 21 male R 1 4 9 self moralSelf J j 1 0.4283 
09-May-2018_13:58:24 7306 21 male R 1 4 10 self moralOther H h 1 0.3724 
09-May-2018_13:58:26 7306 21 male R 1 4 11 self moralSelf J j 1 0.4064 
09-May-2018_13:58:27 7306 21 male R 1 4 12 self moralOther H h 1 0.3206 
09-May-2018_13:58:29 7306 21 male R 1 4 13 self moralSelf J h 0 0.3586 
09-May-2018_13:58:31 7306 21 male R 1 4 14 self moralSelf J j 1 0.4247 
09-May-2018_13:58:32 7306 21 male R 1 4 15 self immoralOther H h 1 0.4508 
09-May-2018_13:58:34 7306 21 male R 1 4 16 self immoralSelf J j 1 0.5089 
09-May-2018_13:58:36 7306 21 male R 1 4 17 self immoralSelf J j 1 0.3711 
09-May-2018_13:58:38 7306 21 male R 1 4 18 self immoralOther H h 1 0.3812 
09-May-2018_13:58:39 7306 21 male R 1 4 19 self immoralSelf J j 1 0.4032 
09-May-2018_13:58:41 7306 21 male R 1 4 20 self immoralOther H h 1 0.3813 
09-May-2018_13:58:43 7306 21 male R 1 4 21 self immoralSelf J j 1 0.4175 
09-May-2018_13:58:45 7306 21 male R 1 4 22 self immoralSelf J j 1 0.9556 
09-May-2018_13:58:46 7306 21 male R 1 4 23 self immoralSelf J j 1 0.8256 
09-May-2018_13:58:48 7306 21 male R 1 4 24 self moralOther H h 1 0.3717 
09-May-2018_13:59:03 7306 21 male R 1 5 1 self immoralSelf J j 1 0.4806 
09-May-2018_13:59:05 7306 21 male R 1 5 2 self immoralOther H h 1 0.4667 
09-May-2018_13:59:07 7306 21 male R 1 5 3 self immoralOther H h 1 0.5808 
09-May-2018_13:59:08 7306 21 male R 1 5 4 self immoralSelf J j 1 0.4229 
09-May-2018_13:59:10 7306 21 male R 1 5 5 self immoralSelf J j 1 0.3611 
09-May-2018_13:59:11 7306 21 male R 1 5 6 self moralSelf J h 0 0.3971 
09-May-2018_13:59:14 7306 21 male R 1 5 7 self immoralOther H h 1 0.7332 
09-May-2018_13:59:16 7306 21 male R 1 5 8 self moralOther H h 1 0.6373 
09-May-2018_13:59:17 7306 21 male R 1 5 9 self immoralSelf J j 1 0.3714 
09-May-2018_13:59:19 7306 21 male R 1 5 10 self moralSelf J j 1 0.4515 
09-May-2018_13:59:21 7306 21 male R 1 5 11 self immoralSelf J j 1 0.3216 
09-May-2018_13:59:23 7306 21 male R 1 5 12 self immoralOther H h 1 0.6297 
09-May-2018_13:59:25 7306 21 male R 1 5 13 self immoralOther H h 1 0.5579 
09-May-2018_13:59:26 7306 21 male R 1 5 14 self moralOther H h 1 0.4640 
09-May-2018_13:59:28 7306 21 male R 1 5 15 self immoralSelf J j 1 0.4080 
09-May-2018_13:59:30 7306 21 male R 1 5 16 self moralSelf J j 1 0.4141 
09-May-2018_13:59:31 7306 21 male R 1 5 17 self immoralOther H h 1 0.4982 
09-May-2018_13:59:33 7306 21 male R 1 5 18 self moralSelf J j 1 0.4743 
09-May-2018_13:59:35 7306 21 male R 1 5 19 self moralSelf J j 1 0.5524 
09-May-2018_13:59:37 7306 21 male R 1 5 20 self moralOther H h 1 0.4465 
09-May-2018_13:59:38 7306 21 male R 1 5 21 self moralOther H h 1 0.4367 
09-May-2018_13:59:40 7306 21 male R 1 5 22 self moralOther H h 1 0.3827 
09-May-2018_13:59:41 7306 21 male R 1 5 23 self moralOther H h 1 0.2988 
09-May-2018_13:59:43 7306 21 male R 1 5 24 self moralSelf J j 1 0.4290 
Date Sub Age Sex Hand Block Bin Trial Task Shape corrResp Resp ACC RT
09-May-2018_14:02:51 7306 21 male R 2 1 1 moral immoralSelf U u 1 0.5795 
09-May-2018_14:02:54 7306 21 male R 2 1 2 moral moralSelf Y NA -1 1.0850 
09-May-2018_14:02:55 7306 21 male R 2 1 3 moral moralSelf Y y 1 0.5858 
09-May-2018_14:02:57 7306 21 male R 2 1 4 moral immoralOther U u 1 0.5439 
09-May-2018_14:02:59 7306 21 male R 2 1 5 moral moralOther Y y 1 0.4099 
09-May-2018_14:03:01 7306 21 male R 2 1 6 moral immoralSelf U u 1 0.4940 
09-May-2018_14:03:02 7306 21 male R 2 1 7 moral immoralSelf U u 1 0.4421 
09-May-2018_14:03:04 7306 21 male R 2 1 8 moral moralSelf Y u 0 0.3542 
09-May-2018_14:03:06 7306 21 male R 2 1 9 moral immoralOther U y 0 0.5204 
09-May-2018_14:03:08 7306 21 male R 2 1 10 moral moralOther Y y 1 0.7625 
09-May-2018_14:03:10 7306 21 male R 2 1 11 moral moralOther Y y 1 0.4727 
09-May-2018_14:03:12 7306 21 male R 2 1 12 moral moralSelf Y y 1 0.6527 
09-May-2018_14:03:13 7306 21 male R 2 1 13 moral immoralSelf U u 1 0.5867 
09-May-2018_14:03:15 7306 21 male R 2 1 14 moral immoralOther U u 1 0.3970 
09-May-2018_14:03:17 7306 21 male R 2 1 15 moral immoralSelf U u 1 0.6850 
09-May-2018_14:03:19 7306 21 male R 2 1 16 moral moralSelf Y y 1 0.6411 
09-May-2018_14:03:21 7306 21 male R 2 1 17 moral immoralSelf U u 1 0.6132 
09-May-2018_14:03:23 7306 21 male R 2 1 18 moral moralOther Y y 1 0.9393 
09-May-2018_14:03:25 7306 21 male R 2 1 19 moral immoralOther U y 0 0.5834 
09-May-2018_14:03:28 7306 21 male R 2 1 20 moral moralSelf Y NA -1 1.0850 
09-May-2018_14:03:29 7306 21 male R 2 1 21 moral moralOther Y y 1 0.4998 
09-May-2018_14:03:32 7306 21 male R 2 1 22 moral immoralOther U NA -1 1.0850 
09-May-2018_14:03:34 7306 21 male R 2 1 23 moral moralOther Y y 1 0.8440 
09-May-2018_14:03:36 7306 21 male R 2 1 24 moral immoralOther U u 1 0.4800 
09-May-2018_14:03:37 7306 21 male R 2 2 1 moral moralOther Y y 1 0.4962 
09-May-2018_14:03:39 7306 21 male R 2 2 2 moral moralOther Y y 1 0.4822 
09-May-2018_14:03:40 7306 21 male R 2 2 3 moral moralSelf Y y 1 0.5323 
09-May-2018_14:03:42 7306 21 male R 2 2 4 moral moralSelf Y y 1 0.4825 
09-May-2018_14:03:44 7306 21 male R 2 2 5 moral immoralSelf U u 1 0.5366 
09-May-2018_14:03:46 7306 21 male R 2 2 6 moral immoralSelf U u 1 0.5487 
09-May-2018_14:03:48 7306 21 male R 2 2 7 moral immoralSelf U u 1 0.4728 
09-May-2018_14:03:50 7306 21 male R 2 2 8 moral moralSelf Y y 1 0.8368 
09-May-2018_14:03:52 7306 21 male R 2 2 9 moral immoralSelf U u 1 0.5349 
09-May-2018_14:03:54 7306 21 male R 2 2 10 moral moralOther Y y 1 0.4892 
09-May-2018_14:03:56 7306 21 male R 2 2 11 moral immoralOther U u 1 0.7472 
09-May-2018_14:03:57 7306 21 male R 2 2 12 moral moralOther Y y 1 0.4653 
09-May-2018_14:03:59 7306 21 male R 2 2 13 moral immoralOther U u 1 0.4014 
09-May-2018_14:04:00 7306 21 male R 2 2 14 moral immoralOther U u 1 0.3335 
09-May-2018_14:04:02 7306 21 male R 2 2 15 moral moralSelf Y y 1 0.5676 
09-May-2018_14:04:04 7306 21 male R 2 2 16 moral moralSelf Y y 1 0.3597 
09-May-2018_14:04:06 7306 21 male R 2 2 17 moral immoralSelf U u 1 0.5417 
09-May-2018_14:04:08 7306 21 male R 2 2 18 moral immoralOther U u 1 0.6859 
09-May-2018_14:04:09 7306 21 male R 2 2 19 moral immoralOther U u 1 0.3600 
09-May-2018_14:04:11 7306 21 male R 2 2 20 moral moralSelf Y y 1 0.3902 
09-May-2018_14:04:13 7306 21 male R 2 2 21 moral immoralSelf U u 1 0.5042 
09-May-2018_14:04:14 7306 21 male R 2 2 22 moral moralOther Y y 1 0.4962 
09-May-2018_14:04:16 7306 21 male R 2 2 23 moral moralOther Y y 1 0.5364 
09-May-2018_14:04:18 7306 21 male R 2 2 24 moral immoralOther U u 1 0.6625 
09-May-2018_14:04:30 7306 21 male R 2 3 1 moral moralSelf Y y 1 0.5792 
09-May-2018_14:04:32 7306 21 male R 2 3 2 moral moralOther Y y 1 0.3952 
09-May-2018_14:04:33 7306 21 male R 2 3 3 moral immoralSelf U u 1 0.3113 
09-May-2018_14:04:35 7306 21 male R 2 3 4 moral moralOther Y y 1 0.4935 
09-May-2018_14:04:37 7306 21 male R 2 3 5 moral moralSelf Y y 1 0.6195 
09-May-2018_14:04:39 7306 21 male R 2 3 6 moral immoralSelf U u 1 0.5338 
09-May-2018_14:04:41 7306 21 male R 2 3 7 moral immoralOther U u 1 0.5877 
09-May-2018_14:04:42 7306 21 male R 2 3 8 moral immoralOther U u 1 0.3719 
09-May-2018_14:04:44 7306 21 male R 2 3 9 moral immoralOther U u 1 0.3360 
09-May-2018_14:04:45 7306 21 male R 2 3 10 moral immoralSelf U u 1 0.4680 
09-May-2018_14:04:47 7306 21 male R 2 3 11 moral immoralSelf U u 1 0.3421 
09-May-2018_14:04:48 7306 21 male R 2 3 12 moral immoralOther U u 1 0.3842 
09-May-2018_14:04:49 7306 21 male R 2 3 13 moral immoralOther U u 1 0.3363 
09-May-2018_14:04:51 7306 21 male R 2 3 14 moral immoralOther U u 1 0.3105 
09-May-2018_14:04:52 7306 21 male R 2 3 15 moral immoralSelf U u 1 0.4124 
09-May-2018_14:04:54 7306 21 male R 2 3 16 moral moralSelf Y y 1 0.5985 
09-May-2018_14:04:56 7306 21 male R 2 3 17 moral moralOther Y y 1 0.4229 
09-May-2018_14:04:58 7306 21 male R 2 3 18 moral moralSelf Y y 1 0.4368 
09-May-2018_14:05:00 7306 21 male R 2 3 19 moral moralOther Y y 1 0.4108 
09-May-2018_14:05:01 7306 21 male R 2 3 20 moral immoralSelf U u 1 0.4489 
09-May-2018_14:05:03 7306 21 male R 2 3 21 moral moralSelf Y y 1 0.7110 
09-May-2018_14:05:05 7306 21 male R 2 3 22 moral moralOther Y u 0 0.4952 
09-May-2018_14:05:07 7306 21 male R 2 3 23 moral moralSelf Y y 1 0.5573 
09-May-2018_14:05:08 7306 21 male R 2 3 24 moral moralOther Y y 1 0.4393 
09-May-2018_14:05:10 7306 21 male R 2 4 1 moral moralOther Y y 1 0.4434 
09-May-2018_14:05:11 7306 21 male R 2 4 2 moral moralOther Y y 1 0.3435 
09-May-2018_14:05:13 7306 21 male R 2 4 3 moral immoralOther U u 1 0.5136 
09-May-2018_14:05:15 7306 21 male R 2 4 4 moral immoralSelf U u 1 0.5017 
09-May-2018_14:05:17 7306 21 male R 2 4 5 moral moralOther Y y 1 0.4678 
09-May-2018_14:05:19 7306 21 male R 2 4 6 moral immoralSelf U u 1 0.6019 
09-May-2018_14:05:21 7306 21 male R 2 4 7 moral immoralOther U y 0 0.6140 
09-May-2018_14:05:22 7306 21 male R 2 4 8 moral moralSelf Y y 1 0.5902 
09-May-2018_14:05:24 7306 21 male R 2 4 9 moral moralSelf Y y 1 0.4783 
09-May-2018_14:05:26 7306 21 male R 2 4 10 moral moralOther Y y 1 0.5864 
09-May-2018_14:05:27 7306 21 male R 2 4 11 moral immoralOther U u 1 0.4345 
09-May-2018_14:05:29 7306 21 male R 2 4 12 moral immoralSelf U u 1 0.6008 
09-May-2018_14:05:31 7306 21 male R 2 4 13 moral immoralOther U u 1 0.8547 
09-May-2018_14:05:33 7306 21 male R 2 4 14 moral moralSelf Y y 1 0.6748 
09-May-2018_14:05:35 7306 21 male R 2 4 15 moral immoralSelf U u 1 0.4849 
09-May-2018_14:05:36 7306 21 male R 2 4 16 moral immoralSelf U u 1 0.4310 
09-May-2018_14:05:38 7306 21 male R 2 4 17 moral immoralOther U u 1 0.6090 
09-May-2018_14:05:40 7306 21 male R 2 4 18 moral immoralOther U u 1 0.5371 
09-May-2018_14:05:41 7306 21 male R 2 4 19 moral moralOther Y y 1 0.4033 
09-May-2018_14:05:43 7306 21 male R 2 4 20 moral moralSelf Y u 0 0.5933 
09-May-2018_14:05:45 7306 21 male R 2 4 21 moral moralOther Y y 1 0.7374 
09-May-2018_14:05:47 7306 21 male R 2 4 22 moral moralSelf Y y 1 0.4675 
09-May-2018_14:05:49 7306 21 male R 2 4 23 moral immoralSelf U u 1 0.4377 
09-May-2018_14:05:51 7306 21 male R 2 4 24 moral moralSelf Y y 1 0.5457 
09-May-2018_14:06:03 7306 21 male R 2 5 1 moral moralSelf Y y 1 0.7745 
09-May-2018_14:06:05 7306 21 male R 2 5 2 moral moralOther Y y 1 0.4926 
09-May-2018_14:06:06 7306 21 male R 2 5 3 moral immoralSelf U u 1 0.5107 
09-May-2018_14:06:08 7306 21 male R 2 5 4 moral moralSelf Y y 1 0.6148 
09-May-2018_14:06:10 7306 21 male R 2 5 5 moral moralSelf Y y 1 0.3589 
09-May-2018_14:06:12 7306 21 male R 2 5 6 moral moralSelf Y y 1 0.4249 
09-May-2018_14:06:14 7306 21 male R 2 5 7 moral immoralSelf U u 1 0.4532 
09-May-2018_14:06:15 7306 21 male R 2 5 8 moral immoralOther U u 1 0.5033 
09-May-2018_14:06:17 7306 21 male R 2 5 9 moral moralSelf Y y 1 0.7072 
09-May-2018_14:06:19 7306 21 male R 2 5 10 moral immoralOther U u 1 0.6654 
09-May-2018_14:06:21 7306 21 male R 2 5 11 moral immoralSelf U u 1 0.6015 
09-May-2018_14:06:23 7306 21 male R 2 5 12 moral moralOther Y y 1 0.5076 
09-May-2018_14:06:25 7306 21 male R 2 5 13 moral immoralOther U u 1 0.6276 
09-May-2018_14:06:26 7306 21 male R 2 5 14 moral moralSelf Y y 1 0.4378 
09-May-2018_14:06:28 7306 21 male R 2 5 15 moral immoralSelf U u 1 0.4239 
09-May-2018_14:06:30 7306 21 male R 2 5 16 moral moralOther Y y 1 0.5440 
09-May-2018_14:06:32 7306 21 male R 2 5 17 moral moralOther Y y 1 0.4701 
09-May-2018_14:06:34 7306 21 male R 2 5 18 moral moralOther Y y 1 0.4062 
09-May-2018_14:06:35 7306 21 male R 2 5 19 moral immoralSelf U u 1 0.4523 
09-May-2018_14:06:37 7306 21 male R 2 5 20 moral immoralSelf U u 1 0.5524 
09-May-2018_14:06:39 7306 21 male R 2 5 21 moral immoralOther U y 0 0.4766 
09-May-2018_14:06:41 7306 21 male R 2 5 22 moral moralOther Y y 1 0.5466 
09-May-2018_14:06:42 7306 21 male R 2 5 23 moral immoralOther U u 1 0.6647 
09-May-2018_14:06:44 7306 21 male R 2 5 24 moral immoralOther U u 1 0.3808 
Date Sub Age Sex Hand Block Bin Trial Task Shape corrResp Resp ACC RT
09-May-2018_14:09:46 7306 21 male R 3 1 1 self immoralSelf J j 1 0.5431 
09-May-2018_14:09:47 7306 21 male R 3 1 2 self moralOther H h 1 0.4592 
09-May-2018_14:09:49 7306 21 male R 3 1 3 self moralOther H h 1 0.5733 
09-May-2018_14:09:51 7306 21 male R 3 1 4 self immoralSelf J j 1 0.5553 
09-May-2018_14:09:53 7306 21 male R 3 1 5 self moralOther H h 1 0.4595 
09-May-2018_14:09:54 7306 21 male R 3 1 6 self moralSelf J j 1 0.5196 
09-May-2018_14:09:57 7306 21 male R 3 1 7 self immoralSelf J j 1 0.9337 
09-May-2018_14:09:59 7306 21 male R 3 1 8 self moralSelf J j 1 1.0698 
09-May-2018_14:10:02 7306 21 male R 3 1 9 self moralSelf J h 0 0.7860 
09-May-2018_14:10:04 7306 21 male R 3 1 10 self immoralOther H NA -1 1.0850 
09-May-2018_14:10:06 7306 21 male R 3 1 11 self immoralOther H h 1 0.5082 
09-May-2018_14:10:07 7306 21 male R 3 1 12 self immoralOther H h 1 0.4443 
09-May-2018_14:10:09 7306 21 male R 3 1 13 self moralSelf J j 1 0.8544 
09-May-2018_14:10:11 7306 21 male R 3 1 14 self immoralSelf J j 1 0.8865 
09-May-2018_14:10:13 7306 21 male R 3 1 15 self moralSelf J j 1 0.6866 
09-May-2018_14:10:15 7306 21 male R 3 1 16 self immoralOther H h 1 0.5468 
09-May-2018_14:10:17 7306 21 male R 3 1 17 self moralOther H h 1 0.5288 
09-May-2018_14:10:19 7306 21 male R 3 1 18 self moralSelf J j 1 0.6190 
09-May-2018_14:10:21 7306 21 male R 3 1 19 self moralOther H h 1 0.4631 
09-May-2018_14:10:23 7306 21 male R 3 1 20 self immoralOther H h 1 0.6792 
09-May-2018_14:10:25 7306 21 male R 3 1 21 self immoralOther H h 1 0.4713 
09-May-2018_14:10:26 7306 21 male R 3 1 22 self moralOther H h 1 0.5374 
09-May-2018_14:10:28 7306 21 male R 3 1 23 self immoralSelf J j 1 0.6255 
09-May-2018_14:10:30 7306 21 male R 3 1 24 self immoralSelf J j 1 0.5715 
09-May-2018_14:10:31 7306 21 male R 3 2 1 self moralOther H h 1 0.4737 
09-May-2018_14:10:33 7306 21 male R 3 2 2 self moralSelf J j 1 0.7439 
09-May-2018_14:10:35 7306 21 male R 3 2 3 self immoralOther H h 1 0.5579 
09-May-2018_14:10:37 7306 21 male R 3 2 4 self moralSelf J j 1 0.3300 
09-May-2018_14:10:39 7306 21 male R 3 2 5 self moralSelf J j 1 0.5362 
09-May-2018_14:10:41 7306 21 male R 3 2 6 self immoralSelf J j 1 0.5182 
09-May-2018_14:10:43 7306 21 male R 3 2 7 self immoralOther H h 1 0.6263 
09-May-2018_14:10:45 7306 21 male R 3 2 8 self moralOther H h 1 0.3804 
09-May-2018_14:10:46 7306 21 male R 3 2 9 self moralOther H h 1 0.5045 
09-May-2018_14:10:48 7306 21 male R 3 2 10 self immoralSelf J j 1 0.6126 
09-May-2018_14:10:50 7306 21 male R 3 2 11 self immoralSelf J j 1 0.4667 
09-May-2018_14:10:51 7306 21 male R 3 2 12 self immoralSelf J j 1 0.3988 
09-May-2018_14:10:53 7306 21 male R 3 2 13 self immoralSelf J j 1 0.3710 
09-May-2018_14:10:54 7306 21 male R 3 2 14 self immoralOther H h 1 0.5109 
09-May-2018_14:10:56 7306 21 male R 3 2 15 self moralOther H h 1 0.8652 
09-May-2018_14:10:58 7306 21 male R 3 2 16 self immoralOther H h 1 0.5712 
09-May-2018_14:11:00 7306 21 male R 3 2 17 self immoralOther H h 1 0.3793 
09-May-2018_14:11:01 7306 21 male R 3 2 18 self moralSelf J j 1 0.4294 
09-May-2018_14:11:03 7306 21 male R 3 2 19 self moralSelf J j 1 0.4135 
09-May-2018_14:11:05 7306 21 male R 3 2 20 self immoralSelf J j 1 0.5996 
09-May-2018_14:11:06 7306 21 male R 3 2 21 self moralSelf J j 1 0.7057 
09-May-2018_14:11:08 7306 21 male R 3 2 22 self moralOther H h 1 0.5738 
09-May-2018_14:11:10 7306 21 male R 3 2 23 self moralOther H h 1 0.4459 
09-May-2018_14:11:11 7306 21 male R 3 2 24 self immoralOther H h 1 0.5800 
09-May-2018_14:11:20 7306 21 male R 3 3 1 self moralSelf J j 1 0.4265 
09-May-2018_14:11:22 7306 21 male R 3 3 2 self immoralOther H h 1 0.5705 
09-May-2018_14:11:24 7306 21 male R 3 3 3 self moralOther H h 1 0.7507 
09-May-2018_14:11:25 7306 21 male R 3 3 4 self immoralSelf J j 1 0.4731 
09-May-2018_14:11:27 7306 21 male R 3 3 5 self moralSelf J h 0 0.4389 
09-May-2018_14:11:29 7306 21 male R 3 3 6 self immoralSelf J j 1 0.4950 
09-May-2018_14:11:31 7306 21 male R 3 3 7 self moralOther H h 1 0.5251 
09-May-2018_14:11:33 7306 21 male R 3 3 8 self immoralOther H h 1 0.6752 
09-May-2018_14:11:35 7306 21 male R 3 3 9 self moralOther H h 1 0.9552 
09-May-2018_14:11:37 7306 21 male R 3 3 10 self moralSelf J j 1 0.4395 
09-May-2018_14:11:39 7306 21 male R 3 3 11 self immoralSelf J j 1 0.4835 
09-May-2018_14:11:41 7306 21 male R 3 3 12 self immoralOther H h 1 0.8696 
09-May-2018_14:11:43 7306 21 male R 3 3 13 self moralSelf J h 0 0.9677 
09-May-2018_14:11:45 7306 21 male R 3 3 14 self moralSelf J j 1 0.6498 
09-May-2018_14:11:46 7306 21 male R 3 3 15 self immoralSelf J j 1 0.5860 
09-May-2018_14:11:48 7306 21 male R 3 3 16 self immoralSelf J j 1 0.5301 
09-May-2018_14:11:50 7306 21 male R 3 3 17 self moralOther H h 1 0.6061 
09-May-2018_14:11:52 7306 21 male R 3 3 18 self immoralOther H h 1 0.7162 
09-May-2018_14:11:54 7306 21 male R 3 3 19 self immoralOther H h 1 0.3824 
09-May-2018_14:11:55 7306 21 male R 3 3 20 self moralSelf J j 1 0.5965 
09-May-2018_14:11:58 7306 21 male R 3 3 21 self moralOther H h 1 1.0725 
09-May-2018_14:12:00 7306 21 male R 3 3 22 self immoralOther H h 1 0.6368 
09-May-2018_14:12:01 7306 21 male R 3 3 23 self immoralSelf J j 1 0.5408 
09-May-2018_14:12:03 7306 21 male R 3 3 24 self moralOther H h 1 0.5549 
09-May-2018_14:12:05 7306 21 male R 3 4 1 self immoralOther H h 1 0.6050 
09-May-2018_14:12:07 7306 21 male R 3 4 2 self moralSelf J j 1 0.6411 
09-May-2018_14:12:09 7306 21 male R 3 4 3 self moralSelf J j 1 0.4653 
09-May-2018_14:12:11 7306 21 male R 3 4 4 self immoralOther H h 1 0.7093 
09-May-2018_14:12:13 7306 21 male R 3 4 5 self immoralSelf J j 1 0.4954 
09-May-2018_14:12:14 7306 21 male R 3 4 6 self moralOther H h 1 0.4796 
09-May-2018_14:12:16 7306 21 male R 3 4 7 self immoralOther H h 1 0.4416 
09-May-2018_14:12:18 7306 21 male R 3 4 8 self immoralSelf J j 1 0.5577 
09-May-2018_14:12:20 7306 21 male R 3 4 9 self immoralSelf J j 1 0.4019 
09-May-2018_14:12:22 7306 21 male R 3 4 10 self moralSelf J h 0 0.5019 
09-May-2018_14:12:23 7306 21 male R 3 4 11 self moralSelf J j 1 0.5222 
09-May-2018_14:12:25 7306 21 male R 3 4 12 self immoralOther H h 1 0.5722 
09-May-2018_14:12:27 7306 21 male R 3 4 13 self moralOther H h 1 0.7283 
09-May-2018_14:12:29 7306 21 male R 3 4 14 self immoralOther H h 1 0.5486 
09-May-2018_14:12:31 7306 21 male R 3 4 15 self immoralOther H h 1 0.4724 
09-May-2018_14:12:32 7306 21 male R 3 4 16 self moralOther H h 1 0.5346 
09-May-2018_14:12:34 7306 21 male R 3 4 17 self moralOther H h 1 0.3627 
09-May-2018_14:12:36 7306 21 male R 3 4 18 self immoralSelf J j 1 0.4428 
09-May-2018_14:12:37 7306 21 male R 3 4 19 self immoralSelf J j 1 0.4449 
09-May-2018_14:12:39 7306 21 male R 3 4 20 self immoralSelf J j 1 0.5850 
09-May-2018_14:12:41 7306 21 male R 3 4 21 self moralOther H h 1 0.4350 
09-May-2018_14:12:42 7306 21 male R 3 4 22 self moralSelf J j 1 0.6591 
09-May-2018_14:12:44 7306 21 male R 3 4 23 self moralSelf J j 1 0.5412 
09-May-2018_14:12:46 7306 21 male R 3 4 24 self moralOther H h 1 0.4413 
09-May-2018_14:12:55 7306 21 male R 3 5 1 self immoralSelf J j 1 0.4479 
09-May-2018_14:12:57 7306 21 male R 3 5 2 self moralOther H h 1 0.5040 
09-May-2018_14:12:59 7306 21 male R 3 5 3 self moralSelf J j 1 0.3601 
09-May-2018_14:13:01 7306 21 male R 3 5 4 self moralSelf J j 1 0.4222 
09-May-2018_14:13:02 7306 21 male R 3 5 5 self moralOther H h 1 0.4123 
09-May-2018_14:13:04 7306 21 male R 3 5 6 self moralSelf J h 0 0.6203 
09-May-2018_14:13:06 7306 21 male R 3 5 7 self immoralSelf J j 1 0.4584 
09-May-2018_14:13:08 7306 21 male R 3 5 8 self moralSelf J h 0 0.6165 
09-May-2018_14:13:10 7306 21 male R 3 5 9 self moralSelf J j 1 0.5187 
09-May-2018_14:13:12 7306 21 male R 3 5 10 self immoralSelf J j 1 0.5548 
09-May-2018_14:13:14 7306 21 male R 3 5 11 self moralOther H h 1 0.6150 
09-May-2018_14:13:15 7306 21 male R 3 5 12 self immoralOther H h 1 0.6190 
09-May-2018_14:13:18 7306 21 male R 3 5 13 self moralSelf J h 0 0.9891 
09-May-2018_14:13:19 7306 21 male R 3 5 14 self immoralSelf J j 1 0.5273 
09-May-2018_14:13:21 7306 21 male R 3 5 15 self moralOther H h 1 0.5994 
09-May-2018_14:13:23 7306 21 male R 3 5 16 self immoralOther H h 1 0.5274 
09-May-2018_14:13:24 7306 21 male R 3 5 17 self moralOther H h 1 0.4595 
09-May-2018_14:13:26 7306 21 male R 3 5 18 self immoralSelf J j 1 0.5556 
09-May-2018_14:13:28 7306 21 male R 3 5 19 self immoralOther H h 1 0.5298 
09-May-2018_14:13:30 7306 21 male R 3 5 20 self immoralOther H h 1 0.4280 
09-May-2018_14:13:31 7306 21 male R 3 5 21 self immoralOther H h 1 0.3978 
09-May-2018_14:13:33 7306 21 male R 3 5 22 self moralOther H h 1 0.5060 
09-May-2018_14:13:35 7306 21 male R 3 5 23 self immoralSelf J j 1 0.6021 
09-May-2018_14:13:37 7306 21 male R 3 5 24 self immoralOther H h 1 0.4823 
Date Sub Age Sex Hand Block Bin Trial Task Shape corrResp Resp ACC RT
09-May-2018_14:16:10 7306 21 male R 4 1 1 moral moralOther Y y 1 0.3729 
09-May-2018_14:16:12 7306 21 male R 4 1 2 moral moralSelf Y y 1 0.5690 
09-May-2018_14:16:14 7306 21 male R 4 1 3 moral moralOther Y y 1 0.7252 
09-May-2018_14:16:15 7306 21 male R 4 1 4 moral moralOther Y y 1 0.4692 
09-May-2018_14:16:17 7306 21 male R 4 1 5 moral immoralOther U u 1 0.7053 
09-May-2018_14:16:19 7306 21 male R 4 1 6 moral moralOther Y y 1 0.4055 
09-May-2018_14:16:21 7306 21 male R 4 1 7 moral immoralOther U u 1 0.5976 
09-May-2018_14:16:22 7306 21 male R 4 1 8 moral immoralOther U u 1 0.4677 
09-May-2018_14:16:24 7306 21 male R 4 1 9 moral immoralSelf U u 1 0.5578 
09-May-2018_14:16:26 7306 21 male R 4 1 10 moral immoralOther U u 1 0.5520 
09-May-2018_14:16:28 7306 21 male R 4 1 11 moral immoralSelf U u 1 0.6199 
09-May-2018_14:16:30 7306 21 male R 4 1 12 moral moralSelf Y y 1 0.6780 
09-May-2018_14:16:32 7306 21 male R 4 1 13 moral immoralOther U u 1 0.6162 
09-May-2018_14:16:34 7306 21 male R 4 1 14 moral moralSelf Y y 1 0.6883 
09-May-2018_14:16:36 7306 21 male R 4 1 15 moral immoralSelf U u 1 0.5044 
09-May-2018_14:16:37 7306 21 male R 4 1 16 moral immoralOther U y 0 0.7324 
09-May-2018_14:16:40 7306 21 male R 4 1 17 moral immoralSelf U u 1 0.8606 
09-May-2018_14:16:42 7306 21 male R 4 1 18 moral immoralSelf U u 1 0.7486 
09-May-2018_14:16:43 7306 21 male R 4 1 19 moral immoralSelf U u 1 0.5688 
09-May-2018_14:16:45 7306 21 male R 4 1 20 moral moralOther Y y 1 0.5849 
09-May-2018_14:16:47 7306 21 male R 4 1 21 moral moralSelf Y y 1 0.4051 
09-May-2018_14:16:49 7306 21 male R 4 1 22 moral moralSelf Y y 1 0.3792 
09-May-2018_14:16:50 7306 21 male R 4 1 23 moral moralSelf Y y 1 0.3192 
09-May-2018_14:16:52 7306 21 male R 4 1 24 moral moralOther Y y 1 0.5353 
09-May-2018_14:16:54 7306 21 male R 4 2 1 moral immoralSelf U u 1 0.5375 
09-May-2018_14:16:55 7306 21 male R 4 2 2 moral moralSelf Y y 1 0.6015 
09-May-2018_14:16:57 7306 21 male R 4 2 3 moral moralSelf Y y 1 0.4396 
09-May-2018_14:16:59 7306 21 male R 4 2 4 moral moralSelf Y y 1 0.4677 
09-May-2018_14:17:01 7306 21 male R 4 2 5 moral moralOther Y y 1 0.5838 
09-May-2018_14:17:03 7306 21 male R 4 2 6 moral immoralOther U u 1 0.7079 
09-May-2018_14:17:04 7306 21 male R 4 2 7 moral immoralOther U u 1 0.4261 
09-May-2018_14:17:06 7306 21 male R 4 2 8 moral moralSelf Y y 1 0.5302 
09-May-2018_14:17:08 7306 21 male R 4 2 9 moral immoralSelf U u 1 0.5922 
09-May-2018_14:17:10 7306 21 male R 4 2 10 moral immoralOther U y 0 0.5546 
09-May-2018_14:17:12 7306 21 male R 4 2 11 moral immoralSelf U u 1 0.9225 
09-May-2018_14:17:14 7306 21 male R 4 2 12 moral moralOther Y y 1 0.5766 
09-May-2018_14:17:16 7306 21 male R 4 2 13 moral moralOther Y y 1 0.5147 
09-May-2018_14:17:17 7306 21 male R 4 2 14 moral immoralSelf U u 1 0.5228 
09-May-2018_14:17:19 7306 21 male R 4 2 15 moral immoralSelf U u 1 0.3669 
09-May-2018_14:17:21 7306 21 male R 4 2 16 moral immoralOther U u 1 0.6629 
09-May-2018_14:17:23 7306 21 male R 4 2 17 moral immoralOther U u 1 0.4231 
09-May-2018_14:17:24 7306 21 male R 4 2 18 moral moralSelf Y y 1 0.5012 
09-May-2018_14:17:26 7306 21 male R 4 2 19 moral moralOther Y y 1 0.5053 
09-May-2018_14:17:28 7306 21 male R 4 2 20 moral moralOther Y NA -1 1.0850 
09-May-2018_14:17:30 7306 21 male R 4 2 21 moral moralOther Y y 1 0.3675 
09-May-2018_14:17:32 7306 21 male R 4 2 22 moral immoralOther U u 1 0.4916 
09-May-2018_14:17:34 7306 21 male R 4 2 23 moral immoralSelf U u 1 0.6337 
09-May-2018_14:17:36 7306 21 male R 4 2 24 moral moralSelf Y y 1 0.5558 
09-May-2018_14:17:47 7306 21 male R 4 3 1 moral moralOther Y y 1 0.4405 
09-May-2018_14:17:48 7306 21 male R 4 3 2 moral moralOther Y y 1 0.3445 
09-May-2018_14:17:50 7306 21 male R 4 3 3 moral immoralSelf U u 1 0.5447 
09-May-2018_14:17:52 7306 21 male R 4 3 4 moral immoralOther U u 1 0.5728 
09-May-2018_14:17:53 7306 21 male R 4 3 5 moral immoralOther U u 1 0.3688 
09-May-2018_14:17:55 7306 21 male R 4 3 6 moral immoralOther U u 1 0.3708 
09-May-2018_14:17:57 7306 21 male R 4 3 7 moral moralSelf Y y 1 0.4930 
09-May-2018_14:17:59 7306 21 male R 4 3 8 moral moralOther Y y 1 0.4491 
09-May-2018_14:18:00 7306 21 male R 4 3 9 moral moralSelf Y y 1 0.4293 
09-May-2018_14:18:02 7306 21 male R 4 3 10 moral moralSelf Y y 1 0.3533 
09-May-2018_14:18:04 7306 21 male R 4 3 11 moral moralOther Y y 1 0.5954 
09-May-2018_14:18:06 7306 21 male R 4 3 12 moral immoralSelf U u 1 0.4756 
09-May-2018_14:18:08 7306 21 male R 4 3 13 moral immoralOther U u 1 0.6316 
09-May-2018_14:18:09 7306 21 male R 4 3 14 moral immoralSelf U u 1 0.5717 
09-May-2018_14:18:11 7306 21 male R 4 3 15 moral immoralSelf U u 1 0.4578 
09-May-2018_14:18:13 7306 21 male R 4 3 16 moral moralOther Y y 1 0.4480 
09-May-2018_14:18:15 7306 21 male R 4 3 17 moral immoralSelf U u 1 0.5841 
09-May-2018_14:18:17 7306 21 male R 4 3 18 moral moralSelf Y y 1 0.4721 
09-May-2018_14:18:19 7306 21 male R 4 3 19 moral moralSelf Y y 1 0.5502 
09-May-2018_14:18:20 7306 21 male R 4 3 20 moral moralSelf Y y 1 0.5084 
09-May-2018_14:18:22 7306 21 male R 4 3 21 moral immoralSelf U u 1 0.5624 
09-May-2018_14:18:24 7306 21 male R 4 3 22 moral moralOther Y y 1 0.4366 
09-May-2018_14:18:25 7306 21 male R 4 3 23 moral immoralOther U y 0 0.6087 
09-May-2018_14:18:27 7306 21 male R 4 3 24 moral immoralOther U u 1 0.4968 
09-May-2018_14:18:29 7306 21 male R 4 4 1 moral moralSelf Y y 1 0.4509 
09-May-2018_14:18:31 7306 21 male R 4 4 2 moral immoralSelf U u 1 0.5490 
09-May-2018_14:18:32 7306 21 male R 4 4 3 moral immoralSelf U u 1 0.5190 
09-May-2018_14:18:34 7306 21 male R 4 4 4 moral immoralSelf U u 1 0.4911 
09-May-2018_14:18:36 7306 21 male R 4 4 5 moral moralSelf Y y 1 0.5712 
09-May-2018_14:18:38 7306 21 male R 4 4 6 moral immoralSelf U NA -1 1.0850 
09-May-2018_14:18:40 7306 21 male R 4 4 7 moral moralOther Y y 1 0.5696 
09-May-2018_14:18:42 7306 21 male R 4 4 8 moral immoralOther U u 1 0.4679 
09-May-2018_14:18:43 7306 21 male R 4 4 9 moral moralOther Y y 1 0.4637 
09-May-2018_14:18:46 7306 21 male R 4 4 10 moral moralSelf Y NA -1 1.0850 
09-May-2018_14:18:48 7306 21 male R 4 4 11 moral immoralSelf U u 1 0.5259 
09-May-2018_14:18:49 7306 21 male R 4 4 12 moral immoralOther U u 1 0.5421 
09-May-2018_14:18:51 7306 21 male R 4 4 13 moral moralSelf Y y 1 0.4441 
09-May-2018_14:18:52 7306 21 male R 4 4 14 moral immoralOther U u 1 0.4683 
09-May-2018_14:18:54 7306 21 male R 4 4 15 moral moralOther Y y 1 0.4743 
09-May-2018_14:18:56 7306 21 male R 4 4 16 moral immoralSelf U u 1 0.5103 
09-May-2018_14:18:57 7306 21 male R 4 4 17 moral moralOther Y y 1 0.5545 
09-May-2018_14:18:59 7306 21 male R 4 4 18 moral moralOther Y y 1 0.5265 
09-May-2018_14:19:01 7306 21 male R 4 4 19 moral moralSelf Y y 1 0.5487 
09-May-2018_14:19:03 7306 21 male R 4 4 20 moral immoralOther U u 1 0.6548 
09-May-2018_14:19:05 7306 21 male R 4 4 21 moral moralSelf Y y 1 0.6289 
09-May-2018_14:19:06 7306 21 male R 4 4 22 moral immoralOther U u 1 0.5589 
09-May-2018_14:19:08 7306 21 male R 4 4 23 moral immoralOther U y 0 0.5031 
09-May-2018_14:19:10 7306 21 male R 4 4 24 moral moralOther Y y 1 0.4431 
09-May-2018_14:19:26 7306 21 male R 4 5 1 moral immoralSelf U u 1 0.5061 
09-May-2018_14:19:28 7306 21 male R 4 5 2 moral moralOther Y y 1 0.4422 
09-May-2018_14:19:30 7306 21 male R 4 5 3 moral immoralSelf U u 1 0.4963 
09-May-2018_14:19:32 7306 21 male R 4 5 4 moral immoralSelf U u 1 0.4444 
09-May-2018_14:19:33 7306 21 male R 4 5 5 moral immoralSelf U u 1 0.4126 
09-May-2018_14:19:35 7306 21 male R 4 5 6 moral moralOther Y y 1 0.3826 
09-May-2018_14:19:37 7306 21 male R 4 5 7 moral moralOther Y y 1 0.3547 
09-May-2018_14:19:38 7306 21 male R 4 5 8 moral moralSelf Y y 1 0.5228 
09-May-2018_14:19:40 7306 21 male R 4 5 9 moral immoralSelf U u 1 0.5350 
09-May-2018_14:19:42 7306 21 male R 4 5 10 moral moralSelf Y y 1 0.4670 
09-May-2018_14:19:43 7306 21 male R 4 5 11 moral moralOther Y y 1 0.5211 
09-May-2018_14:19:45 7306 21 male R 4 5 12 moral moralSelf Y y 1 0.8571 
09-May-2018_14:19:47 7306 21 male R 4 5 13 moral moralSelf Y y 1 0.4053 
09-May-2018_14:19:49 7306 21 male R 4 5 14 moral moralOther Y y 1 0.4494 
09-May-2018_14:19:50 7306 21 male R 4 5 15 moral immoralOther U u 1 0.3856 
09-May-2018_14:19:52 7306 21 male R 4 5 16 moral immoralOther U u 1 0.3396 
09-May-2018_14:19:54 7306 21 male R 4 5 17 moral immoralOther U u 1 0.3416 
09-May-2018_14:19:55 7306 21 male R 4 5 18 moral immoralOther U u 1 0.3577 
09-May-2018_14:19:57 7306 21 male R 4 5 19 moral moralSelf Y y 1 0.3879 
09-May-2018_14:19:59 7306 21 male R 4 5 20 moral moralSelf Y y 1 0.4920 
09-May-2018_14:20:01 7306 21 male R 4 5 21 moral immoralSelf U u 1 0.4661 
09-May-2018_14:20:02 7306 21 male R 4 5 22 moral moralOther Y y 1 0.7122 
09-May-2018_14:20:04 7306 21 male R 4 5 23 moral immoralOther U u 1 0.5823 
09-May-2018_14:20:06 7306 21 male R 4 5 24 moral immoralOther U u 1 0.4443 
Date Sub Age Sex Hand Block Bin Trial Task Shape corrResp Resp ACC RT
09-May-2018_14:22:37 7306 21 male R 5 1 1 moral immoralOther U u 1 0.4909 
09-May-2018_14:22:38 7306 21 male R 5 1 2 moral immoralOther U u 1 0.3551 
09-May-2018_14:22:40 7306 21 male R 5 1 3 moral moralOther Y y 1 0.4111 
09-May-2018_14:22:41 7306 21 male R 5 1 4 moral moralOther Y y 1 0.3133 
09-May-2018_14:22:43 7306 21 male R 5 1 5 moral moralOther Y y 1 0.3113 
09-May-2018_14:22:45 7306 21 male R 5 1 6 moral immoralSelf U u 1 0.4214 
09-May-2018_14:22:47 7306 21 male R 5 1 7 moral moralSelf Y y 1 0.3535 
09-May-2018_14:22:48 7306 21 male R 5 1 8 moral immoralOther U u 1 0.4835 
09-May-2018_14:22:50 7306 21 male R 5 1 9 moral moralOther Y y 1 0.4797 
09-May-2018_14:22:52 7306 21 male R 5 1 10 moral moralOther Y y 1 0.3958 
09-May-2018_14:22:54 7306 21 male R 5 1 11 moral immoralOther U u 1 0.4799 
09-May-2018_14:22:56 7306 21 male R 5 1 12 moral immoralSelf U u 1 0.6480 
09-May-2018_14:22:57 7306 21 male R 5 1 13 moral moralSelf Y y 1 0.4101 
09-May-2018_14:22:59 7306 21 male R 5 1 14 moral moralSelf Y y 1 0.3943 
09-May-2018_14:23:01 7306 21 male R 5 1 15 moral moralSelf Y y 1 0.4683 
09-May-2018_14:23:03 7306 21 male R 5 1 16 moral immoralOther U u 1 0.7745 
09-May-2018_14:23:04 7306 21 male R 5 1 17 moral immoralSelf U u 1 0.6045 
09-May-2018_14:23:06 7306 21 male R 5 1 18 moral immoralSelf U u 1 0.5306 
09-May-2018_14:23:08 7306 21 male R 5 1 19 moral moralOther Y y 1 0.3427 
09-May-2018_14:23:10 7306 21 male R 5 1 20 moral immoralSelf U u 1 0.5168 
09-May-2018_14:23:12 7306 21 male R 5 1 21 moral immoralSelf U u 1 0.4729 
09-May-2018_14:23:14 7306 21 male R 5 1 22 moral moralSelf Y y 1 0.4911 
09-May-2018_14:23:16 7306 21 male R 5 1 23 moral moralSelf Y y 1 0.5732 
09-May-2018_14:23:17 7306 21 male R 5 1 24 moral immoralOther U u 1 0.5372 
09-May-2018_14:23:19 7306 21 male R 5 2 1 moral moralOther Y u 0 0.5394 
09-May-2018_14:23:21 7306 21 male R 5 2 2 moral moralSelf Y u 0 0.7335 
09-May-2018_14:23:23 7306 21 male R 5 2 3 moral moralSelf Y y 1 0.4995 
09-May-2018_14:23:25 7306 21 male R 5 2 4 moral immoralOther U u 1 0.7377 
09-May-2018_14:23:27 7306 21 male R 5 2 5 moral immoralSelf U u 1 0.5298 
09-May-2018_14:23:29 7306 21 male R 5 2 6 moral moralSelf Y y 1 0.7438 
09-May-2018_14:23:31 7306 21 male R 5 2 7 moral moralOther Y y 1 0.4920 
09-May-2018_14:23:32 7306 21 male R 5 2 8 moral moralOther Y y 1 0.4342 
09-May-2018_14:23:34 7306 21 male R 5 2 9 moral immoralOther U u 1 0.6162 
09-May-2018_14:23:36 7306 21 male R 5 2 10 moral immoralSelf U u 1 0.4923 
09-May-2018_14:23:38 7306 21 male R 5 2 11 moral moralSelf Y y 1 0.6585 
09-May-2018_14:23:39 7306 21 male R 5 2 12 moral immoralOther U y 0 0.4445 
09-May-2018_14:23:41 7306 21 male R 5 2 13 moral immoralOther U u 1 0.4445 
09-May-2018_14:23:43 7306 21 male R 5 2 14 moral moralSelf Y y 1 0.8666 
09-May-2018_14:23:45 7306 21 male R 5 2 15 moral moralOther Y y 1 0.7188 
09-May-2018_14:23:47 7306 21 male R 5 2 16 moral immoralOther U u 1 0.5269 
09-May-2018_14:23:49 7306 21 male R 5 2 17 moral moralOther Y y 1 0.4391 
09-May-2018_14:23:51 7306 21 male R 5 2 18 moral immoralSelf U u 1 0.4791 
09-May-2018_14:23:52 7306 21 male R 5 2 19 moral moralOther Y y 1 0.3993 
09-May-2018_14:23:54 7306 21 male R 5 2 20 moral immoralOther U u 1 0.3674 
09-May-2018_14:23:56 7306 21 male R 5 2 21 moral immoralSelf U u 1 0.5634 
09-May-2018_14:23:58 7306 21 male R 5 2 22 moral immoralSelf U u 1 0.5196 
09-May-2018_14:24:00 7306 21 male R 5 2 23 moral moralSelf Y y 1 0.6296 
09-May-2018_14:24:02 7306 21 male R 5 2 24 moral immoralSelf U u 1 0.5397 
09-May-2018_14:24:17 7306 21 male R 5 3 1 moral moralOther Y y 1 0.4726 
09-May-2018_14:24:19 7306 21 male R 5 3 2 moral moralOther Y y 1 0.4788 
09-May-2018_14:24:21 7306 21 male R 5 3 3 moral immoralOther U u 1 0.4909 
09-May-2018_14:24:23 7306 21 male R 5 3 4 moral immoralSelf U u 1 0.5110 
09-May-2018_14:24:24 7306 21 male R 5 3 5 moral immoralOther U u 1 0.4291 
09-May-2018_14:24:26 7306 21 male R 5 3 6 moral moralSelf Y y 1 0.6071 
09-May-2018_14:24:28 7306 21 male R 5 3 7 moral moralOther Y y 1 0.4572 
09-May-2018_14:24:30 7306 21 male R 5 3 8 moral moralSelf Y u 0 0.7793 
09-May-2018_14:24:32 7306 21 male R 5 3 9 moral moralSelf Y y 1 0.4215 
09-May-2018_14:24:33 7306 21 male R 5 3 10 moral immoralOther U u 1 0.4657 
09-May-2018_14:24:35 7306 21 male R 5 3 11 moral immoralSelf U u 1 0.5158 
09-May-2018_14:24:37 7306 21 male R 5 3 12 moral immoralSelf U u 1 0.5638 
09-May-2018_14:24:39 7306 21 male R 5 3 13 moral immoralOther U y 0 0.6398 
09-May-2018_14:24:41 7306 21 male R 5 3 14 moral immoralSelf U u 1 0.5380 
09-May-2018_14:24:43 7306 21 male R 5 3 15 moral immoralOther U u 1 0.5121 
09-May-2018_14:24:44 7306 21 male R 5 3 16 moral moralOther Y y 1 0.4282 
09-May-2018_14:24:46 7306 21 male R 5 3 17 moral immoralSelf U u 1 0.4703 
09-May-2018_14:24:48 7306 21 male R 5 3 18 moral moralSelf Y y 1 0.5204 
09-May-2018_14:24:50 7306 21 male R 5 3 19 moral moralSelf Y y 1 0.4145 
09-May-2018_14:24:51 7306 21 male R 5 3 20 moral moralOther Y u 0 0.4346 
09-May-2018_14:24:53 7306 21 male R 5 3 21 moral immoralSelf U u 1 0.6307 
09-May-2018_14:24:56 7306 21 male R 5 3 22 moral moralSelf Y y 1 0.9048 
09-May-2018_14:24:57 7306 21 male R 5 3 23 moral moralOther Y y 1 0.3949 
09-May-2018_14:24:59 7306 21 male R 5 3 24 moral immoralOther U u 1 0.6470 
09-May-2018_14:25:01 7306 21 male R 5 4 1 moral moralSelf Y y 1 0.3511 
09-May-2018_14:25:02 7306 21 male R 5 4 2 moral immoralSelf U u 1 0.5192 
09-May-2018_14:25:04 7306 21 male R 5 4 3 moral immoralOther U u 1 0.5954 
09-May-2018_14:25:06 7306 21 male R 5 4 4 moral moralOther Y y 1 0.4934 
09-May-2018_14:25:08 7306 21 male R 5 4 5 moral immoralOther U u 1 0.7156 
09-May-2018_14:25:10 7306 21 male R 5 4 6 moral moralOther Y y 1 0.7157 
09-May-2018_14:25:12 7306 21 male R 5 4 7 moral immoralSelf U u 1 0.8718 
09-May-2018_14:25:14 7306 21 male R 5 4 8 moral immoralOther U u 1 0.7819 
09-May-2018_14:25:16 7306 21 male R 5 4 9 moral moralSelf Y y 1 0.6459 
09-May-2018_14:25:18 7306 21 male R 5 4 10 moral moralSelf Y y 1 0.9881 
09-May-2018_14:25:20 7306 21 male R 5 4 11 moral moralOther Y y 1 0.7782 
09-May-2018_14:25:21 7306 21 male R 5 4 12 moral moralOther Y y 1 0.3883 
09-May-2018_14:25:23 7306 21 male R 5 4 13 moral moralSelf Y y 1 0.6003 
09-May-2018_14:25:25 7306 21 male R 5 4 14 moral moralSelf Y y 1 0.3405 
09-May-2018_14:25:26 7306 21 male R 5 4 15 moral immoralSelf U u 1 0.4585 
09-May-2018_14:25:28 7306 21 male R 5 4 16 moral moralOther Y y 1 0.4447 
09-May-2018_14:25:30 7306 21 male R 5 4 17 moral immoralOther U u 1 0.5628 
09-May-2018_14:25:31 7306 21 male R 5 4 18 moral moralSelf Y y 1 0.4349 
09-May-2018_14:25:33 7306 21 male R 5 4 19 moral immoralSelf U u 1 0.5750 
09-May-2018_14:25:35 7306 21 male R 5 4 20 moral immoralSelf U u 1 0.6011 
09-May-2018_14:25:37 7306 21 male R 5 4 21 moral immoralSelf U u 1 0.4832 
09-May-2018_14:25:38 7306 21 male R 5 4 22 moral immoralOther U u 1 0.6213 
09-May-2018_14:25:40 7306 21 male R 5 4 23 moral moralOther Y y 1 0.4614 
09-May-2018_14:25:42 7306 21 male R 5 4 24 moral immoralOther U y 0 0.5177 
09-May-2018_14:25:56 7306 21 male R 5 5 1 moral moralSelf Y u 0 0.8142 
09-May-2018_14:25:58 7306 21 male R 5 5 2 moral moralSelf Y y 1 0.4863 
09-May-2018_14:26:00 7306 21 male R 5 5 3 moral immoralOther U u 1 0.5405 
09-May-2018_14:26:02 7306 21 male R 5 5 4 moral moralSelf Y y 1 0.6406 
09-May-2018_14:26:04 7306 21 male R 5 5 5 moral moralOther Y y 1 0.5567 
09-May-2018_14:26:05 7306 21 male R 5 5 6 moral immoralSelf U u 1 0.4988 
09-May-2018_14:26:07 7306 21 male R 5 5 7 moral moralOther Y y 1 0.5609 
09-May-2018_14:26:09 7306 21 male R 5 5 8 moral immoralSelf U u 1 0.4990 
09-May-2018_14:26:11 7306 21 male R 5 5 9 moral moralSelf Y y 1 0.6271 
09-May-2018_14:26:13 7306 21 male R 5 5 10 moral immoralSelf U u 1 0.5073 
09-May-2018_14:26:16 7306 21 male R 5 5 11 moral immoralOther U NA -1 1.0850 
09-May-2018_14:26:18 7306 21 male R 5 5 12 moral immoralOther U u 1 0.4156 
09-May-2018_14:26:20 7306 21 male R 5 5 13 moral immoralSelf U y 0 0.7397 
09-May-2018_14:26:22 7306 21 male R 5 5 14 moral moralOther Y y 1 0.6857 
09-May-2018_14:26:24 7306 21 male R 5 5 15 moral immoralOther U u 1 0.9018 
09-May-2018_14:26:26 7306 21 male R 5 5 16 moral moralSelf Y y 1 0.6640 
09-May-2018_14:26:27 7306 21 male R 5 5 17 moral moralOther Y y 1 0.5360 
09-May-2018_14:26:29 7306 21 male R 5 5 18 moral moralOther Y y 1 0.4502 
09-May-2018_14:26:31 7306 21 male R 5 5 19 moral immoralOther U u 1 0.6222 
09-May-2018_14:26:33 7306 21 male R 5 5 20 moral moralSelf Y y 1 0.5224 
09-May-2018_14:26:34 7306 21 male R 5 5 21 moral immoralSelf U u 1 0.6344 
09-May-2018_14:26:36 7306 21 male R 5 5 22 moral immoralSelf U u 1 0.6446 
09-May-2018_14:26:38 7306 21 male R 5 5 23 moral moralOther Y y 1 0.4807 
09-May-2018_14:26:40 7306 21 male R 5 5 24 moral immoralOther U u 1 0.5908 
Date Sub Age Sex Hand Block Bin Trial Task Shape corrResp Resp ACC RT
09-May-2018_14:29:15 7306 21 male R 6 1 1 self immoralOther H j 0 0.9595 
09-May-2018_14:29:16 7306 21 male R 6 1 2 self immoralOther H h 1 0.5237 
09-May-2018_14:29:18 7306 21 male R 6 1 3 self immoralSelf J j 1 0.7717 
09-May-2018_14:29:20 7306 21 male R 6 1 4 self immoralOther H h 1 0.5900 
09-May-2018_14:29:22 7306 21 male R 6 1 5 self moralOther H h 1 0.6020 
09-May-2018_14:29:24 7306 21 male R 6 1 6 self immoralSelf J j 1 0.5501 
09-May-2018_14:29:26 7306 21 male R 6 1 7 self moralSelf J j 1 0.6362 
09-May-2018_14:29:28 7306 21 male R 6 1 8 self moralOther H h 1 0.5643 
09-May-2018_14:29:30 7306 21 male R 6 1 9 self immoralSelf J j 1 0.4624 
09-May-2018_14:29:31 7306 21 male R 6 1 10 self moralOther H h 1 0.3985 
09-May-2018_14:29:33 7306 21 male R 6 1 11 self immoralSelf J j 1 0.4825 
09-May-2018_14:29:34 7306 21 male R 6 1 12 self moralOther H h 1 0.3947 
09-May-2018_14:29:36 7306 21 male R 6 1 13 self moralSelf J j 1 0.4868 
09-May-2018_14:29:38 7306 21 male R 6 1 14 self moralOther H h 1 0.4350 
09-May-2018_14:29:39 7306 21 male R 6 1 15 self moralSelf J j 1 0.5010 
09-May-2018_14:29:41 7306 21 male R 6 1 16 self immoralSelf J j 1 0.5390 
09-May-2018_14:29:43 7306 21 male R 6 1 17 self immoralSelf J j 1 0.5932 
09-May-2018_14:29:45 7306 21 male R 6 1 18 self moralSelf J j 1 0.8693 
09-May-2018_14:29:47 7306 21 male R 6 1 19 self immoralOther H h 1 0.5354 
09-May-2018_14:29:49 7306 21 male R 6 1 20 self moralSelf J j 1 0.6355 
09-May-2018_14:29:50 7306 21 male R 6 1 21 self immoralOther H h 1 0.3416 
09-May-2018_14:29:52 7306 21 male R 6 1 22 self immoralOther H h 1 0.4638 
09-May-2018_14:29:53 7306 21 male R 6 1 23 self moralSelf J j 1 0.5258 
09-May-2018_14:29:55 7306 21 male R 6 1 24 self moralOther H h 1 0.6278 
09-May-2018_14:29:57 7306 21 male R 6 2 1 self immoralSelf J j 1 0.5240 
09-May-2018_14:29:59 7306 21 male R 6 2 2 self moralOther H h 1 0.5101 
09-May-2018_14:30:01 7306 21 male R 6 2 3 self moralSelf J h 0 0.5862 
09-May-2018_14:30:02 7306 21 male R 6 2 4 self immoralOther H j 0 0.5603 
09-May-2018_14:30:04 7306 21 male R 6 2 5 self immoralSelf J j 1 0.5464 
09-May-2018_14:30:06 7306 21 male R 6 2 6 self immoralOther H h 1 0.5865 
09-May-2018_14:30:08 7306 21 male R 6 2 7 self immoralSelf J j 1 0.5246 
09-May-2018_14:30:10 7306 21 male R 6 2 8 self moralOther H h 1 0.7308 
09-May-2018_14:30:11 7306 21 male R 6 2 9 self moralOther H h 1 0.5028 
09-May-2018_14:30:14 7306 21 male R 6 2 10 self immoralOther H h 1 0.9609 
09-May-2018_14:30:16 7306 21 male R 6 2 11 self immoralOther H h 1 0.5070 
09-May-2018_14:30:17 7306 21 male R 6 2 12 self immoralSelf J j 1 0.4772 
09-May-2018_14:30:19 7306 21 male R 6 2 13 self moralOther H h 1 0.5852 
09-May-2018_14:30:21 7306 21 male R 6 2 14 self immoralSelf J j 1 0.4773 
09-May-2018_14:30:23 7306 21 male R 6 2 15 self immoralSelf J j 1 0.6075 
09-May-2018_14:30:25 7306 21 male R 6 2 16 self moralSelf J j 1 0.7136 
09-May-2018_14:30:26 7306 21 male R 6 2 17 self moralSelf J j 1 0.4497 
09-May-2018_14:30:28 7306 21 male R 6 2 18 self moralSelf J j 1 0.3798 
09-May-2018_14:30:30 7306 21 male R 6 2 19 self moralSelf J j 1 0.3438 
09-May-2018_14:30:32 7306 21 male R 6 2 20 self immoralOther H h 1 0.7440 
09-May-2018_14:30:33 7306 21 male R 6 2 21 self moralOther H h 1 0.3940 
09-May-2018_14:30:35 7306 21 male R 6 2 22 self moralOther H h 1 0.3783 
09-May-2018_14:30:37 7306 21 male R 6 2 23 self moralSelf J j 1 0.4683 
09-May-2018_14:30:39 7306 21 male R 6 2 24 self immoralOther H h 1 0.6563 
09-May-2018_14:30:53 7306 21 male R 6 3 1 self immoralOther H h 1 0.5732 
09-May-2018_14:30:55 7306 21 male R 6 3 2 self moralSelf J j 1 0.4433 
09-May-2018_14:30:57 7306 21 male R 6 3 3 self immoralSelf J j 1 0.7134 
09-May-2018_14:30:59 7306 21 male R 6 3 4 self immoralOther H h 1 0.8096 
09-May-2018_14:31:01 7306 21 male R 6 3 5 self moralSelf J j 1 0.5257 
09-May-2018_14:31:03 7306 21 male R 6 3 6 self moralOther H h 1 0.5417 
09-May-2018_14:31:05 7306 21 male R 6 3 7 self moralSelf J j 1 0.6099 
09-May-2018_14:31:06 7306 21 male R 6 3 8 self immoralOther H h 1 0.4700 
09-May-2018_14:31:08 7306 21 male R 6 3 9 self immoralSelf J j 1 0.4700 
09-May-2018_14:31:10 7306 21 male R 6 3 10 self immoralOther H j 0 0.4422 
09-May-2018_14:31:12 7306 21 male R 6 3 11 self immoralOther H h 1 0.6122 
09-May-2018_14:31:13 7306 21 male R 6 3 12 self immoralSelf J j 1 0.4524 
09-May-2018_14:31:16 7306 21 male R 6 3 13 self immoralSelf J j 1 0.8184 
09-May-2018_14:31:18 7306 21 male R 6 3 14 self immoralSelf J j 1 0.4505 
09-May-2018_14:31:19 7306 21 male R 6 3 15 self moralOther H h 1 0.4847 
09-May-2018_14:31:21 7306 21 male R 6 3 16 self immoralOther H j 0 0.8447 
09-May-2018_14:31:23 7306 21 male R 6 3 17 self moralSelf J j 1 0.6808 
09-May-2018_14:31:25 7306 21 male R 6 3 18 self moralOther H h 1 0.4230 
09-May-2018_14:31:27 7306 21 male R 6 3 19 self moralSelf J j 1 0.8412 
09-May-2018_14:31:29 7306 21 male R 6 3 20 self immoralSelf J j 1 0.5692 
09-May-2018_14:31:31 7306 21 male R 6 3 21 self moralOther H h 1 0.5013 
09-May-2018_14:31:32 7306 21 male R 6 3 22 self moralSelf J j 1 0.5115 
09-May-2018_14:31:34 7306 21 male R 6 3 23 self moralOther H h 1 0.5175 
09-May-2018_14:31:36 7306 21 male R 6 3 24 self moralOther H h 1 0.3917 
09-May-2018_14:31:37 7306 21 male R 6 4 1 self moralOther H h 1 0.3637 
09-May-2018_14:31:39 7306 21 male R 6 4 2 self moralSelf J j 1 0.9378 
09-May-2018_14:31:41 7306 21 male R 6 4 3 self moralOther H h 1 0.4059 
09-May-2018_14:31:43 7306 21 male R 6 4 4 self immoralSelf J j 1 0.4940 
09-May-2018_14:31:44 7306 21 male R 6 4 5 self moralSelf J h 0 0.3921 
09-May-2018_14:31:46 7306 21 male R 6 4 6 self moralOther H h 1 0.4862 
09-May-2018_14:31:48 7306 21 male R 6 4 7 self moralSelf J j 1 0.4283 
09-May-2018_14:31:49 7306 21 male R 6 4 8 self moralOther H h 1 0.4224 
09-May-2018_14:31:52 7306 21 male R 6 4 9 self immoralOther H h 1 0.6565 
09-May-2018_14:31:53 7306 21 male R 6 4 10 self immoralSelf J j 1 0.4506 
09-May-2018_14:31:55 7306 21 male R 6 4 11 self moralOther H h 1 0.5347 
09-May-2018_14:31:57 7306 21 male R 6 4 12 self moralSelf J j 1 0.9468 
09-May-2018_14:31:59 7306 21 male R 6 4 13 self immoralSelf J j 1 0.5629 
09-May-2018_14:32:01 7306 21 male R 6 4 14 self moralSelf J j 1 0.5110 
09-May-2018_14:32:02 7306 21 male R 6 4 15 self immoralOther H h 1 0.4392 
09-May-2018_14:32:04 7306 21 male R 6 4 16 self immoralSelf J j 1 0.4773 
09-May-2018_14:32:06 7306 21 male R 6 4 17 self immoralOther H h 1 0.5833 
09-May-2018_14:32:08 7306 21 male R 6 4 18 self immoralOther H h 1 0.3674 
09-May-2018_14:32:09 7306 21 male R 6 4 19 self moralSelf J j 1 0.4095 
09-May-2018_14:32:11 7306 21 male R 6 4 20 self immoralSelf J j 1 0.5316 
09-May-2018_14:32:12 7306 21 male R 6 4 21 self immoralOther H j 0 0.3857 
09-May-2018_14:32:14 7306 21 male R 6 4 22 self immoralOther H h 1 0.4298 
09-May-2018_14:32:16 7306 21 male R 6 4 23 self moralOther H h 1 0.5579 
09-May-2018_14:32:18 7306 21 male R 6 4 24 self immoralSelf J j 1 0.5180 
09-May-2018_14:32:30 7306 21 male R 6 5 1 self moralSelf J j 1 0.6828 
09-May-2018_14:32:32 7306 21 male R 6 5 2 self moralOther H h 1 0.6688 
09-May-2018_14:32:33 7306 21 male R 6 5 3 self moralOther H h 1 0.4569 
09-May-2018_14:32:35 7306 21 male R 6 5 4 self immoralOther H h 1 0.4290 
09-May-2018_14:32:37 7306 21 male R 6 5 5 self immoralSelf J j 1 0.4310 
09-May-2018_14:32:38 7306 21 male R 6 5 6 self moralSelf J h 0 0.4432 
09-May-2018_14:32:40 7306 21 male R 6 5 7 self immoralOther H h 1 0.4473 
09-May-2018_14:32:42 7306 21 male R 6 5 8 self moralSelf J j 1 0.3994 
09-May-2018_14:32:44 7306 21 male R 6 5 9 self immoralOther H h 1 0.3736 
09-May-2018_14:32:45 7306 21 male R 6 5 10 self immoralOther H h 1 0.3275 
09-May-2018_14:32:47 7306 21 male R 6 5 11 self moralOther H h 1 0.5897 
09-May-2018_14:32:49 7306 21 male R 6 5 12 self moralOther H h 1 0.4598 
09-May-2018_14:32:50 7306 21 male R 6 5 13 self moralSelf J j 1 0.4859 
09-May-2018_14:32:52 7306 21 male R 6 5 14 self immoralSelf J j 1 0.5620 
09-May-2018_14:32:54 7306 21 male R 6 5 15 self moralSelf J j 1 0.6041 
09-May-2018_14:32:56 7306 21 male R 6 5 16 self immoralSelf J j 1 0.5762 
09-May-2018_14:32:58 7306 21 male R 6 5 17 self immoralSelf J j 1 0.4803 
09-May-2018_14:33:00 7306 21 male R 6 5 18 self immoralOther H h 1 0.6444 
09-May-2018_14:33:02 7306 21 male R 6 5 19 self immoralSelf J j 1 0.5685 
09-May-2018_14:33:03 7306 21 male R 6 5 20 self immoralSelf J j 1 0.4006 
09-May-2018_14:33:05 7306 21 male R 6 5 21 self moralSelf J j 1 0.5247 
09-May-2018_14:33:07 7306 21 male R 6 5 22 self moralOther H h 1 0.4988 
09-May-2018_14:33:08 7306 21 male R 6 5 23 self moralOther H h 1 0.3709 
09-May-2018_14:33:10 7306 21 male R 6 5 24 self immoralOther H h 1 0.9570 
