Date Sub Age Sex Hand Block Bin Trial Task Shape corrResp Resp ACC RT
13-May-2018_16:20:36 7313 20 female R 1 1 1 self moralSelf J NA -1 1.0731 
13-May-2018_16:20:37 7313 20 female R 1 1 2 self moralSelf J j 1 0.2813 
13-May-2018_16:20:39 7313 20 female R 1 1 3 self moralOther H j 0 0.4112 
13-May-2018_16:20:41 7313 20 female R 1 1 4 self immoralOther H NA -1 1.0731 
13-May-2018_16:20:44 7313 20 female R 1 1 5 self moralSelf J NA -1 1.0728 
13-May-2018_16:20:46 7313 20 female R 1 1 6 self moralOther H NA -1 1.0731 
13-May-2018_16:20:48 7313 20 female R 1 1 7 self moralOther H NA -1 1.0731 
13-May-2018_16:20:50 7313 20 female R 1 1 8 self immoralSelf J NA -1 1.0731 
13-May-2018_16:20:52 7313 20 female R 1 1 9 self moralOther H j 0 0.4126 
13-May-2018_16:20:54 7313 20 female R 1 1 10 self moralOther H j 0 0.5380 
13-May-2018_16:20:55 7313 20 female R 1 1 11 self immoralOther H h 1 0.2927 
13-May-2018_16:20:57 7313 20 female R 1 1 12 self moralSelf J h 0 0.4613 
13-May-2018_16:20:59 7313 20 female R 1 1 13 self immoralSelf J j 1 0.7799 
13-May-2018_16:21:01 7313 20 female R 1 1 14 self immoralOther H h 1 0.6521 
13-May-2018_16:21:03 7313 20 female R 1 1 15 self immoralSelf J j 1 0.3072 
13-May-2018_16:21:04 7313 20 female R 1 1 16 self immoralSelf J h 0 0.1821 
13-May-2018_16:21:06 7313 20 female R 1 1 17 self immoralOther H h 1 0.7539 
13-May-2018_16:21:07 7313 20 female R 1 1 18 self moralSelf J h 0 0.2575 
13-May-2018_16:21:09 7313 20 female R 1 1 19 self immoralSelf J j 1 0.8312 
13-May-2018_16:21:12 7313 20 female R 1 1 20 self moralSelf J j 1 0.9724 
13-May-2018_16:21:13 7313 20 female R 1 1 21 self immoralOther H h 1 0.8379 
13-May-2018_16:21:16 7313 20 female R 1 1 22 self immoralSelf J NA -1 1.0731 
13-May-2018_16:21:18 7313 20 female R 1 1 23 self immoralOther H h 1 0.5920 
13-May-2018_16:21:19 7313 20 female R 1 1 24 self moralOther H h 1 0.4872 
13-May-2018_16:21:21 7313 20 female R 1 2 1 self immoralSelf J j 1 0.2570 
13-May-2018_16:21:22 7313 20 female R 1 2 2 self moralSelf J j 1 0.2821 
13-May-2018_16:21:25 7313 20 female R 1 2 3 self moralOther H NA -1 1.0731 
13-May-2018_16:21:27 7313 20 female R 1 2 4 self immoralSelf J NA -1 1.0731 
13-May-2018_16:21:30 7313 20 female R 1 2 5 self immoralOther H NA -1 1.0731 
13-May-2018_16:21:32 7313 20 female R 1 2 6 self immoralOther H NA -1 1.0731 
13-May-2018_16:21:34 7313 20 female R 1 2 7 self immoralOther H NA -1 1.0731 
13-May-2018_16:21:36 7313 20 female R 1 2 8 self moralOther H NA -1 1.0731 
13-May-2018_16:21:38 7313 20 female R 1 2 9 self immoralSelf J j 1 0.6451 
13-May-2018_16:21:40 7313 20 female R 1 2 10 self immoralSelf J j 1 0.4846 
13-May-2018_16:21:41 7313 20 female R 1 2 11 self moralSelf J j 1 0.2164 
13-May-2018_16:21:42 7313 20 female R 1 2 12 self moralOther H h 1 0.3417 
13-May-2018_16:21:44 7313 20 female R 1 2 13 self immoralOther H j 0 0.6697 
13-May-2018_16:21:46 7313 20 female R 1 2 14 self moralSelf J j 1 0.2693 
13-May-2018_16:21:48 7313 20 female R 1 2 15 self moralOther H NA -1 1.0731 
13-May-2018_16:21:49 7313 20 female R 1 2 16 self immoralOther H h 1 0.5402 
13-May-2018_16:21:51 7313 20 female R 1 2 17 self moralSelf J j 1 0.4611 
13-May-2018_16:21:53 7313 20 female R 1 2 18 self immoralOther H j 0 0.3703 
13-May-2018_16:21:54 7313 20 female R 1 2 19 self moralSelf J h 0 0.2499 
13-May-2018_16:21:56 7313 20 female R 1 2 20 self moralOther H h 1 0.5347 
13-May-2018_16:21:57 7313 20 female R 1 2 21 self immoralSelf J j 1 0.4407 
13-May-2018_16:21:59 7313 20 female R 1 2 22 self moralOther H h 1 0.5503 
13-May-2018_16:22:01 7313 20 female R 1 2 23 self moralSelf J j 1 0.2690 
13-May-2018_16:22:03 7313 20 female R 1 2 24 self immoralSelf J space 2 0.6940 
13-May-2018_16:22:13 7313 20 female R 1 3 1 self moralOther H h 1 0.6917 
13-May-2018_16:22:15 7313 20 female R 1 3 2 self moralOther H h 1 0.5025 
13-May-2018_16:22:17 7313 20 female R 1 3 3 self immoralOther H h 1 0.5482 
13-May-2018_16:22:18 7313 20 female R 1 3 4 self immoralSelf J j 1 0.2608 
13-May-2018_16:22:20 7313 20 female R 1 3 5 self immoralOther H h 1 0.4547 
13-May-2018_16:22:22 7313 20 female R 1 3 6 self immoralSelf J j 1 0.3884 
13-May-2018_16:22:24 7313 20 female R 1 3 7 self immoralSelf J j 1 0.6619 
13-May-2018_16:22:26 7313 20 female R 1 3 8 self immoralOther H h 1 0.3613 
13-May-2018_16:22:27 7313 20 female R 1 3 9 self immoralSelf J j 1 0.5689 
13-May-2018_16:22:29 7313 20 female R 1 3 10 self immoralOther H h 1 0.4371 
13-May-2018_16:22:30 7313 20 female R 1 3 11 self moralOther H h 1 0.4613 
13-May-2018_16:22:32 7313 20 female R 1 3 12 self immoralSelf J j 1 0.3809 
13-May-2018_16:22:34 7313 20 female R 1 3 13 self moralSelf J j 1 0.4708 
13-May-2018_16:22:36 7313 20 female R 1 3 14 self moralSelf J j 1 0.6045 
13-May-2018_16:22:37 7313 20 female R 1 3 15 self moralSelf J j 1 0.3689 
13-May-2018_16:22:39 7313 20 female R 1 3 16 self moralSelf J j 1 0.2555 
13-May-2018_16:22:40 7313 20 female R 1 3 17 self moralSelf J j 1 0.3111 
13-May-2018_16:22:42 7313 20 female R 1 3 18 self immoralSelf J j 1 0.3982 
13-May-2018_16:22:44 7313 20 female R 1 3 19 self moralSelf J j 1 0.4175 
13-May-2018_16:22:45 7313 20 female R 1 3 20 self moralOther H j 0 0.4021 
13-May-2018_16:22:47 7313 20 female R 1 3 21 self moralOther H h 1 0.4882 
13-May-2018_16:22:49 7313 20 female R 1 3 22 self moralOther H h 1 0.3576 
13-May-2018_16:22:50 7313 20 female R 1 3 23 self immoralOther H h 1 0.5411 
13-May-2018_16:22:52 7313 20 female R 1 3 24 self immoralOther H h 1 0.3101 
13-May-2018_16:22:54 7313 20 female R 1 4 1 self immoralSelf J h 0 0.2834 
13-May-2018_16:22:56 7313 20 female R 1 4 2 self immoralOther H h 1 0.4462 
13-May-2018_16:22:57 7313 20 female R 1 4 3 self immoralSelf J j 1 0.4355 
13-May-2018_16:22:59 7313 20 female R 1 4 4 self moralOther H h 1 0.4242 
13-May-2018_16:23:01 7313 20 female R 1 4 5 self moralSelf J j 1 0.4921 
13-May-2018_16:23:03 7313 20 female R 1 4 6 self immoralOther H h 1 0.6710 
13-May-2018_16:23:04 7313 20 female R 1 4 7 self moralOther H j 0 0.5360 
13-May-2018_16:23:06 7313 20 female R 1 4 8 self immoralSelf J j 1 0.4274 
13-May-2018_16:23:08 7313 20 female R 1 4 9 self moralOther H h 1 0.3178 
13-May-2018_16:23:10 7313 20 female R 1 4 10 self moralSelf J j 1 0.6802 
13-May-2018_16:23:11 7313 20 female R 1 4 11 self immoralOther H h 1 0.4600 
13-May-2018_16:23:13 7313 20 female R 1 4 12 self moralSelf J j 1 0.6131 
13-May-2018_16:23:15 7313 20 female R 1 4 13 self moralOther H j 0 0.9854 
13-May-2018_16:23:17 7313 20 female R 1 4 14 self immoralSelf J j 1 0.3802 
13-May-2018_16:23:18 7313 20 female R 1 4 15 self immoralSelf J j 1 0.4820 
13-May-2018_16:23:20 7313 20 female R 1 4 16 self moralSelf J j 1 0.2726 
13-May-2018_16:23:21 7313 20 female R 1 4 17 self moralSelf J j 1 0.4237 
13-May-2018_16:23:23 7313 20 female R 1 4 18 self immoralOther H h 1 0.6948 
13-May-2018_16:23:25 7313 20 female R 1 4 19 self immoralOther H h 1 0.3857 
13-May-2018_16:23:27 7313 20 female R 1 4 20 self moralOther H h 1 0.5138 
13-May-2018_16:23:28 7313 20 female R 1 4 21 self moralSelf J j 1 0.4909 
13-May-2018_16:23:30 7313 20 female R 1 4 22 self moralOther H h 1 0.4764 
13-May-2018_16:23:32 7313 20 female R 1 4 23 self immoralSelf J j 1 0.3992 
13-May-2018_16:23:34 7313 20 female R 1 4 24 self immoralOther H j 0 0.5245 
13-May-2018_16:23:45 7313 20 female R 1 5 1 self immoralOther H NA -1 1.0731 
13-May-2018_16:23:46 7313 20 female R 1 5 2 self moralOther H h 1 0.5818 
13-May-2018_16:23:48 7313 20 female R 1 5 3 self immoralOther H j 0 0.5518 
13-May-2018_16:23:50 7313 20 female R 1 5 4 self moralOther H h 1 0.5646 
13-May-2018_16:23:52 7313 20 female R 1 5 5 self immoralOther H h 1 0.4033 
13-May-2018_16:23:53 7313 20 female R 1 5 6 self immoralOther H h 1 0.3055 
13-May-2018_16:23:55 7313 20 female R 1 5 7 self immoralSelf J j 1 0.4919 
13-May-2018_16:23:57 7313 20 female R 1 5 8 self moralOther H h 1 0.7414 
13-May-2018_16:23:59 7313 20 female R 1 5 9 self immoralSelf J j 1 0.5414 
13-May-2018_16:24:00 7313 20 female R 1 5 10 self immoralSelf J j 1 0.4291 
13-May-2018_16:24:02 7313 20 female R 1 5 11 self moralSelf J j 1 0.8043 
13-May-2018_16:24:04 7313 20 female R 1 5 12 self moralSelf J j 1 0.3718 
13-May-2018_16:24:06 7313 20 female R 1 5 13 self moralOther H h 1 0.5384 
13-May-2018_16:24:07 7313 20 female R 1 5 14 self immoralSelf J j 1 0.5041 
13-May-2018_16:24:09 7313 20 female R 1 5 15 self moralSelf J j 1 0.5984 
13-May-2018_16:24:11 7313 20 female R 1 5 16 self immoralOther H h 1 0.4215 
13-May-2018_16:24:13 7313 20 female R 1 5 17 self moralOther H h 1 0.5722 
13-May-2018_16:24:15 7313 20 female R 1 5 18 self moralSelf J j 1 0.5924 
13-May-2018_16:24:16 7313 20 female R 1 5 19 self moralOther H h 1 0.6381 
13-May-2018_16:24:18 7313 20 female R 1 5 20 self immoralSelf J j 1 0.5832 
13-May-2018_16:24:20 7313 20 female R 1 5 21 self immoralOther H j 0 0.5460 
13-May-2018_16:24:21 7313 20 female R 1 5 22 self moralSelf J j 1 0.4609 
13-May-2018_16:24:23 7313 20 female R 1 5 23 self immoralSelf J h 0 0.6101 
13-May-2018_16:24:25 7313 20 female R 1 5 24 self moralSelf J j 1 0.5740 
Date Sub Age Sex Hand Block Bin Trial Task Shape corrResp Resp ACC RT
13-May-2018_16:27:04 7313 20 female R 2 1 1 moral moralOther U u 1 0.4574 
13-May-2018_16:27:06 7313 20 female R 2 1 2 moral immoralSelf Y y 1 0.9004 
13-May-2018_16:27:08 7313 20 female R 2 1 3 moral immoralSelf Y y 1 0.5602 
13-May-2018_16:27:10 7313 20 female R 2 1 4 moral immoralOther Y NA -1 1.0731 
13-May-2018_16:27:12 7313 20 female R 2 1 5 moral immoralOther Y u 0 0.5449 
13-May-2018_16:27:14 7313 20 female R 2 1 6 moral moralSelf U u 1 0.9312 
13-May-2018_16:27:16 7313 20 female R 2 1 7 moral immoralSelf Y y 1 0.6222 
13-May-2018_16:27:18 7313 20 female R 2 1 8 moral moralOther U y 0 0.4514 
13-May-2018_16:27:20 7313 20 female R 2 1 9 moral moralOther U u 1 0.4956 
13-May-2018_16:27:21 7313 20 female R 2 1 10 moral immoralOther Y y 1 0.5810 
13-May-2018_16:27:23 7313 20 female R 2 1 11 moral moralSelf U u 1 0.4935 
13-May-2018_16:27:25 7313 20 female R 2 1 12 moral moralOther U u 1 0.4531 
13-May-2018_16:27:26 7313 20 female R 2 1 13 moral immoralOther Y y 1 0.4965 
13-May-2018_16:27:28 7313 20 female R 2 1 14 moral moralOther U u 1 0.4067 
13-May-2018_16:27:30 7313 20 female R 2 1 15 moral immoralSelf Y y 1 0.3875 
13-May-2018_16:27:32 7313 20 female R 2 1 16 moral immoralSelf Y y 1 0.6035 
13-May-2018_16:27:33 7313 20 female R 2 1 17 moral moralSelf U u 1 0.8775 
13-May-2018_16:27:35 7313 20 female R 2 1 18 moral moralSelf U u 1 0.5166 
13-May-2018_16:27:37 7313 20 female R 2 1 19 moral immoralOther Y y 1 0.4348 
13-May-2018_16:27:38 7313 20 female R 2 1 20 moral moralOther U u 1 0.3558 
13-May-2018_16:27:40 7313 20 female R 2 1 21 moral immoralOther Y y 1 0.4198 
13-May-2018_16:27:42 7313 20 female R 2 1 22 moral moralSelf U u 1 0.3978 
13-May-2018_16:27:43 7313 20 female R 2 1 23 moral moralSelf U u 1 0.3757 
13-May-2018_16:27:45 7313 20 female R 2 1 24 moral immoralSelf Y y 1 0.5683 
13-May-2018_16:27:46 7313 20 female R 2 2 1 moral moralOther U u 1 0.3660 
13-May-2018_16:27:48 7313 20 female R 2 2 2 moral moralOther U u 1 0.3585 
13-May-2018_16:27:49 7313 20 female R 2 2 3 moral moralSelf U u 1 0.5572 
13-May-2018_16:27:51 7313 20 female R 2 2 4 moral immoralOther Y y 1 0.4758 
13-May-2018_16:27:52 7313 20 female R 2 2 5 moral moralOther U u 1 0.3000 
13-May-2018_16:27:54 7313 20 female R 2 2 6 moral moralSelf U u 1 0.5224 
13-May-2018_16:27:56 7313 20 female R 2 2 7 moral moralOther U u 1 0.3607 
13-May-2018_16:27:57 7313 20 female R 2 2 8 moral immoralSelf Y y 1 0.4328 
13-May-2018_16:27:59 7313 20 female R 2 2 9 moral immoralSelf Y y 1 0.5768 
13-May-2018_16:28:01 7313 20 female R 2 2 10 moral moralSelf U u 1 0.3999 
13-May-2018_16:28:03 7313 20 female R 2 2 11 moral moralOther U u 1 0.4047 
13-May-2018_16:28:04 7313 20 female R 2 2 12 moral immoralOther Y y 1 0.4213 
13-May-2018_16:28:06 7313 20 female R 2 2 13 moral immoralOther Y y 1 0.6581 
13-May-2018_16:28:08 7313 20 female R 2 2 14 moral immoralSelf Y y 1 0.6521 
13-May-2018_16:28:10 7313 20 female R 2 2 15 moral immoralSelf Y y 1 0.4653 
13-May-2018_16:28:12 7313 20 female R 2 2 16 moral moralOther U u 1 0.3943 
13-May-2018_16:28:13 7313 20 female R 2 2 17 moral moralSelf U u 1 0.3294 
13-May-2018_16:28:15 7313 20 female R 2 2 18 moral immoralSelf Y y 1 0.7027 
13-May-2018_16:28:17 7313 20 female R 2 2 19 moral moralSelf U u 1 0.5144 
13-May-2018_16:28:18 7313 20 female R 2 2 20 moral immoralOther Y y 1 0.5004 
13-May-2018_16:28:20 7313 20 female R 2 2 21 moral moralSelf U u 1 0.3933 
13-May-2018_16:28:21 7313 20 female R 2 2 22 moral immoralOther Y y 1 0.4620 
13-May-2018_16:28:23 7313 20 female R 2 2 23 moral immoralOther Y y 1 0.4427 
13-May-2018_16:28:25 7313 20 female R 2 2 24 moral immoralSelf Y y 1 0.4484 
13-May-2018_16:28:34 7313 20 female R 2 3 1 moral moralOther U u 1 0.6285 
13-May-2018_16:28:36 7313 20 female R 2 3 2 moral immoralOther Y y 1 0.4140 
13-May-2018_16:28:37 7313 20 female R 2 3 3 moral immoralOther Y y 1 0.3807 
13-May-2018_16:28:39 7313 20 female R 2 3 4 moral immoralSelf Y y 1 0.5016 
13-May-2018_16:28:41 7313 20 female R 2 3 5 moral immoralSelf Y y 1 0.5126 
13-May-2018_16:28:43 7313 20 female R 2 3 6 moral immoralOther Y y 1 0.5310 
13-May-2018_16:28:45 7313 20 female R 2 3 7 moral moralOther U u 1 0.6107 
13-May-2018_16:28:46 7313 20 female R 2 3 8 moral immoralOther Y y 1 0.4178 
13-May-2018_16:28:48 7313 20 female R 2 3 9 moral immoralSelf Y y 1 0.4503 
13-May-2018_16:28:50 7313 20 female R 2 3 10 moral immoralSelf Y y 1 0.4231 
13-May-2018_16:28:51 7313 20 female R 2 3 11 moral moralOther U u 1 0.6683 
13-May-2018_16:28:53 7313 20 female R 2 3 12 moral moralSelf U u 1 0.4430 
13-May-2018_16:28:54 7313 20 female R 2 3 13 moral immoralSelf Y y 1 0.5287 
13-May-2018_16:28:56 7313 20 female R 2 3 14 moral immoralSelf Y y 1 0.4069 
13-May-2018_16:28:58 7313 20 female R 2 3 15 moral moralSelf U u 1 0.4582 
13-May-2018_16:28:59 7313 20 female R 2 3 16 moral immoralOther Y y 1 0.4606 
13-May-2018_16:29:01 7313 20 female R 2 3 17 moral moralSelf U u 1 0.3552 
13-May-2018_16:29:03 7313 20 female R 2 3 18 moral moralSelf U u 1 0.3469 
13-May-2018_16:29:04 7313 20 female R 2 3 19 moral moralOther U u 1 0.5564 
13-May-2018_16:29:06 7313 20 female R 2 3 20 moral moralSelf U u 1 0.3979 
13-May-2018_16:29:07 7313 20 female R 2 3 21 moral immoralOther Y y 1 0.4021 
13-May-2018_16:29:09 7313 20 female R 2 3 22 moral moralSelf U u 1 0.3801 
13-May-2018_16:29:11 7313 20 female R 2 3 23 moral moralOther U u 1 0.5064 
13-May-2018_16:29:12 7313 20 female R 2 3 24 moral moralOther U u 1 0.3290 
13-May-2018_16:29:14 7313 20 female R 2 4 1 moral immoralOther Y y 1 0.4184 
13-May-2018_16:29:16 7313 20 female R 2 4 2 moral moralOther U u 1 0.3808 
13-May-2018_16:29:17 7313 20 female R 2 4 3 moral moralOther U u 1 0.3969 
13-May-2018_16:29:19 7313 20 female R 2 4 4 moral immoralOther Y y 1 0.5095 
13-May-2018_16:29:21 7313 20 female R 2 4 5 moral immoralSelf Y y 1 0.5880 
13-May-2018_16:29:22 7313 20 female R 2 4 6 moral immoralSelf Y y 1 0.4451 
13-May-2018_16:29:24 7313 20 female R 2 4 7 moral moralSelf U u 1 0.4570 
13-May-2018_16:29:26 7313 20 female R 2 4 8 moral moralSelf U u 1 0.4198 
13-May-2018_16:29:27 7313 20 female R 2 4 9 moral immoralOther Y y 1 0.4674 
13-May-2018_16:29:29 7313 20 female R 2 4 10 moral immoralOther Y y 1 0.3841 
13-May-2018_16:29:30 7313 20 female R 2 4 11 moral immoralOther Y y 1 0.3084 
13-May-2018_16:29:32 7313 20 female R 2 4 12 moral immoralSelf Y u 0 0.4511 
13-May-2018_16:29:33 7313 20 female R 2 4 13 moral immoralOther Y y 1 0.4540 
13-May-2018_16:29:35 7313 20 female R 2 4 14 moral moralOther U u 1 0.4907 
13-May-2018_16:29:37 7313 20 female R 2 4 15 moral moralSelf U u 1 0.3082 
13-May-2018_16:29:38 7313 20 female R 2 4 16 moral immoralSelf Y y 1 0.4941 
13-May-2018_16:29:40 7313 20 female R 2 4 17 moral moralOther U u 1 0.4387 
13-May-2018_16:29:42 7313 20 female R 2 4 18 moral moralOther U u 1 0.3786 
13-May-2018_16:29:43 7313 20 female R 2 4 19 moral moralSelf U u 1 0.3391 
13-May-2018_16:29:45 7313 20 female R 2 4 20 moral moralSelf U u 1 0.3312 
13-May-2018_16:29:47 7313 20 female R 2 4 21 moral moralOther U u 1 0.3449 
13-May-2018_16:29:49 7313 20 female R 2 4 22 moral immoralSelf Y y 1 0.5543 
13-May-2018_16:29:50 7313 20 female R 2 4 23 moral moralSelf U u 1 0.4194 
13-May-2018_16:29:52 7313 20 female R 2 4 24 moral immoralSelf Y y 1 0.4815 
13-May-2018_16:29:59 7313 20 female R 2 5 1 moral immoralSelf Y NA -1 1.0731 
13-May-2018_16:30:00 7313 20 female R 2 5 2 moral immoralOther Y y 1 0.3948 
13-May-2018_16:30:02 7313 20 female R 2 5 3 moral immoralSelf Y y 1 0.4307 
13-May-2018_16:30:04 7313 20 female R 2 5 4 moral immoralSelf Y y 1 0.3295 
13-May-2018_16:30:05 7313 20 female R 2 5 5 moral moralOther U u 1 0.4477 
13-May-2018_16:30:06 7313 20 female R 2 5 6 moral moralSelf U u 1 0.3847 
13-May-2018_16:30:08 7313 20 female R 2 5 7 moral moralOther U u 1 0.4912 
13-May-2018_16:30:10 7313 20 female R 2 5 8 moral immoralSelf Y y 1 0.4737 
13-May-2018_16:30:11 7313 20 female R 2 5 9 moral moralOther U u 1 0.3562 
13-May-2018_16:30:12 7313 20 female R 2 5 10 moral immoralOther Y u 0 0.2834 
13-May-2018_16:30:14 7313 20 female R 2 5 11 moral moralSelf U u 1 0.3234 
13-May-2018_16:30:16 7313 20 female R 2 5 12 moral immoralOther Y y 1 0.5380 
13-May-2018_16:30:17 7313 20 female R 2 5 13 moral moralSelf U u 1 0.5103 
13-May-2018_16:30:19 7313 20 female R 2 5 14 moral moralSelf U u 1 0.3537 
13-May-2018_16:30:21 7313 20 female R 2 5 15 moral moralOther U u 1 0.4987 
13-May-2018_16:30:22 7313 20 female R 2 5 16 moral moralSelf U u 1 0.4008 
13-May-2018_16:30:24 7313 20 female R 2 5 17 moral moralOther U u 1 0.3670 
13-May-2018_16:30:26 7313 20 female R 2 5 18 moral immoralOther Y y 1 0.5459 
13-May-2018_16:30:28 7313 20 female R 2 5 19 moral moralSelf U u 1 0.4203 
13-May-2018_16:30:29 7313 20 female R 2 5 20 moral immoralSelf Y y 1 0.4176 
13-May-2018_16:30:31 7313 20 female R 2 5 21 moral immoralSelf Y y 1 0.4492 
13-May-2018_16:30:32 7313 20 female R 2 5 22 moral immoralOther Y y 1 0.4398 
13-May-2018_16:30:34 7313 20 female R 2 5 23 moral moralOther U u 1 0.5278 
13-May-2018_16:30:35 7313 20 female R 2 5 24 moral immoralOther Y y 1 0.3910 
Date Sub Age Sex Hand Block Bin Trial Task Shape corrResp Resp ACC RT
13-May-2018_16:32:59 7313 20 female R 3 1 1 moral moralOther U u 1 0.7476 
13-May-2018_16:33:01 7313 20 female R 3 1 2 moral immoralOther Y y 1 0.5177 
13-May-2018_16:33:02 7313 20 female R 3 1 3 moral moralOther U u 1 0.4274 
13-May-2018_16:33:04 7313 20 female R 3 1 4 moral immoralSelf Y y 1 0.5197 
13-May-2018_16:33:05 7313 20 female R 3 1 5 moral moralSelf U u 1 0.3508 
13-May-2018_16:33:07 7313 20 female R 3 1 6 moral immoralSelf Y y 1 0.4087 
13-May-2018_16:33:09 7313 20 female R 3 1 7 moral moralSelf U u 1 0.3500 
13-May-2018_16:33:10 7313 20 female R 3 1 8 moral moralOther U u 1 0.4150 
13-May-2018_16:33:12 7313 20 female R 3 1 9 moral moralOther U u 1 0.4547 
13-May-2018_16:33:14 7313 20 female R 3 1 10 moral moralSelf U u 1 0.4170 
13-May-2018_16:33:16 7313 20 female R 3 1 11 moral moralSelf U u 1 0.3253 
13-May-2018_16:33:17 7313 20 female R 3 1 12 moral moralSelf U u 1 0.3442 
13-May-2018_16:33:19 7313 20 female R 3 1 13 moral immoralOther Y y 1 0.4134 
13-May-2018_16:33:20 7313 20 female R 3 1 14 moral immoralSelf Y y 1 0.4484 
13-May-2018_16:33:22 7313 20 female R 3 1 15 moral moralOther U u 1 0.4282 
13-May-2018_16:33:23 7313 20 female R 3 1 16 moral immoralOther Y y 1 0.5149 
13-May-2018_16:33:25 7313 20 female R 3 1 17 moral immoralOther Y y 1 0.4462 
13-May-2018_16:33:27 7313 20 female R 3 1 18 moral immoralSelf Y y 1 0.4251 
13-May-2018_16:33:29 7313 20 female R 3 1 19 moral moralOther U u 1 0.4943 
13-May-2018_16:33:30 7313 20 female R 3 1 20 moral immoralSelf Y y 1 0.3598 
13-May-2018_16:33:32 7313 20 female R 3 1 21 moral moralSelf U u 1 0.5528 
13-May-2018_16:33:33 7313 20 female R 3 1 22 moral immoralOther Y y 1 0.3411 
13-May-2018_16:33:35 7313 20 female R 3 1 23 moral immoralSelf Y u 0 0.4795 
13-May-2018_16:33:37 7313 20 female R 3 1 24 moral immoralOther Y u 0 0.3253 
13-May-2018_16:33:38 7313 20 female R 3 2 1 moral moralOther U u 1 0.3869 
13-May-2018_16:33:40 7313 20 female R 3 2 2 moral moralOther U u 1 0.3141 
13-May-2018_16:33:41 7313 20 female R 3 2 3 moral moralOther U u 1 0.3612 
13-May-2018_16:33:43 7313 20 female R 3 2 4 moral moralSelf U u 1 0.3274 
13-May-2018_16:33:45 7313 20 female R 3 2 5 moral immoralOther Y y 1 0.6536 
13-May-2018_16:33:46 7313 20 female R 3 2 6 moral immoralSelf Y y 1 0.4089 
13-May-2018_16:33:48 7313 20 female R 3 2 7 moral moralSelf U u 1 0.4118 
13-May-2018_16:33:50 7313 20 female R 3 2 8 moral immoralSelf Y y 1 0.5352 
13-May-2018_16:33:51 7313 20 female R 3 2 9 moral moralSelf U u 1 0.3343 
13-May-2018_16:33:53 7313 20 female R 3 2 10 moral immoralOther Y y 1 0.5428 
13-May-2018_16:33:55 7313 20 female R 3 2 11 moral immoralOther Y u 0 0.2483 
13-May-2018_16:33:56 7313 20 female R 3 2 12 moral moralOther U u 1 0.3382 
13-May-2018_16:33:58 7313 20 female R 3 2 13 moral immoralSelf Y y 1 0.3576 
13-May-2018_16:33:59 7313 20 female R 3 2 14 moral immoralSelf Y y 1 0.4104 
13-May-2018_16:34:01 7313 20 female R 3 2 15 moral immoralOther Y y 1 0.4189 
13-May-2018_16:34:02 7313 20 female R 3 2 16 moral moralOther U u 1 0.2631 
13-May-2018_16:34:04 7313 20 female R 3 2 17 moral moralSelf U u 1 0.4515 
13-May-2018_16:34:06 7313 20 female R 3 2 18 moral moralSelf U u 1 0.3401 
13-May-2018_16:34:07 7313 20 female R 3 2 19 moral immoralOther Y y 1 0.4017 
13-May-2018_16:34:10 7313 20 female R 3 2 20 moral immoralSelf Y y 1 0.6127 
13-May-2018_16:34:11 7313 20 female R 3 2 21 moral immoralSelf Y y 1 0.3379 
13-May-2018_16:34:13 7313 20 female R 3 2 22 moral moralOther U u 1 0.4726 
13-May-2018_16:34:15 7313 20 female R 3 2 23 moral moralSelf U u 1 0.4374 
13-May-2018_16:34:16 7313 20 female R 3 2 24 moral immoralOther Y y 1 0.3616 
13-May-2018_16:34:21 7313 20 female R 3 3 1 moral moralSelf U NA -1 1.0731 
13-May-2018_16:34:23 7313 20 female R 3 3 2 moral immoralOther Y y 1 0.4498 
13-May-2018_16:34:24 7313 20 female R 3 3 3 moral moralSelf U y 0 0.4264 
13-May-2018_16:34:26 7313 20 female R 3 3 4 moral immoralSelf Y y 1 0.4528 
13-May-2018_16:34:28 7313 20 female R 3 3 5 moral immoralOther Y y 1 0.4849 
13-May-2018_16:34:30 7313 20 female R 3 3 6 moral moralOther U u 1 0.4526 
13-May-2018_16:34:31 7313 20 female R 3 3 7 moral moralOther U u 1 0.3184 
13-May-2018_16:34:32 7313 20 female R 3 3 8 moral immoralOther Y y 1 0.4945 
13-May-2018_16:34:34 7313 20 female R 3 3 9 moral moralSelf U u 1 0.3477 
13-May-2018_16:34:35 7313 20 female R 3 3 10 moral immoralOther Y y 1 0.3737 
13-May-2018_16:34:37 7313 20 female R 3 3 11 moral moralOther U u 1 0.3648 
13-May-2018_16:34:38 7313 20 female R 3 3 12 moral moralSelf U u 1 0.3875 
13-May-2018_16:34:40 7313 20 female R 3 3 13 moral moralSelf U u 1 0.3452 
13-May-2018_16:34:41 7313 20 female R 3 3 14 moral immoralOther Y y 1 0.3335 
13-May-2018_16:34:43 7313 20 female R 3 3 15 moral moralOther U u 1 0.2940 
13-May-2018_16:34:45 7313 20 female R 3 3 16 moral immoralSelf Y y 1 0.4164 
13-May-2018_16:34:46 7313 20 female R 3 3 17 moral immoralSelf Y y 1 0.4720 
13-May-2018_16:34:48 7313 20 female R 3 3 18 moral moralOther U u 1 0.3563 
13-May-2018_16:34:50 7313 20 female R 3 3 19 moral moralOther U u 1 0.3747 
13-May-2018_16:34:52 7313 20 female R 3 3 20 moral moralSelf U u 1 0.3028 
13-May-2018_16:34:53 7313 20 female R 3 3 21 moral immoralSelf Y y 1 0.3259 
13-May-2018_16:34:55 7313 20 female R 3 3 22 moral immoralSelf Y y 1 0.6248 
13-May-2018_16:34:57 7313 20 female R 3 3 23 moral immoralSelf Y y 1 0.3619 
13-May-2018_16:34:58 7313 20 female R 3 3 24 moral immoralOther Y y 1 0.4927 
13-May-2018_16:35:00 7313 20 female R 3 4 1 moral immoralSelf Y y 1 0.4763 
13-May-2018_16:35:02 7313 20 female R 3 4 2 moral moralSelf U u 1 0.3719 
13-May-2018_16:35:03 7313 20 female R 3 4 3 moral moralOther U u 1 0.3950 
13-May-2018_16:35:05 7313 20 female R 3 4 4 moral moralSelf U u 1 0.4186 
13-May-2018_16:35:07 7313 20 female R 3 4 5 moral immoralSelf Y y 1 0.3782 
13-May-2018_16:35:09 7313 20 female R 3 4 6 moral immoralOther Y y 1 0.4414 
13-May-2018_16:35:10 7313 20 female R 3 4 7 moral moralOther U u 1 0.4729 
13-May-2018_16:35:12 7313 20 female R 3 4 8 moral immoralOther Y y 1 0.3018 
13-May-2018_16:35:14 7313 20 female R 3 4 9 moral moralOther U u 1 0.4518 
13-May-2018_16:35:15 7313 20 female R 3 4 10 moral immoralSelf Y y 1 0.4138 
13-May-2018_16:35:17 7313 20 female R 3 4 11 moral immoralOther Y y 1 0.7998 
13-May-2018_16:35:19 7313 20 female R 3 4 12 moral immoralOther Y y 1 0.4921 
13-May-2018_16:35:21 7313 20 female R 3 4 13 moral moralOther U u 1 0.5759 
13-May-2018_16:35:22 7313 20 female R 3 4 14 moral immoralSelf Y y 1 0.4569 
13-May-2018_16:35:24 7313 20 female R 3 4 15 moral moralSelf U u 1 0.5206 
13-May-2018_16:35:26 7313 20 female R 3 4 16 moral moralOther U u 1 0.5300 
13-May-2018_16:35:27 7313 20 female R 3 4 17 moral moralOther U u 1 0.3865 
13-May-2018_16:35:28 7313 20 female R 3 4 18 moral immoralOther Y y 1 0.3782 
13-May-2018_16:35:30 7313 20 female R 3 4 19 moral moralSelf U u 1 0.4201 
13-May-2018_16:35:32 7313 20 female R 3 4 20 moral immoralSelf Y y 1 0.5053 
13-May-2018_16:35:34 7313 20 female R 3 4 21 moral immoralSelf Y y 1 0.4005 
13-May-2018_16:35:36 7313 20 female R 3 4 22 moral immoralOther Y y 1 0.4066 
13-May-2018_16:35:37 7313 20 female R 3 4 23 moral moralSelf U u 1 0.3413 
13-May-2018_16:35:39 7313 20 female R 3 4 24 moral moralSelf U u 1 0.3531 
13-May-2018_16:35:43 7313 20 female R 3 5 1 moral moralOther U u 1 0.5236 
13-May-2018_16:35:45 7313 20 female R 3 5 2 moral immoralSelf Y y 1 0.5133 
13-May-2018_16:35:47 7313 20 female R 3 5 3 moral moralOther U u 1 0.3995 
13-May-2018_16:35:49 7313 20 female R 3 5 4 moral moralSelf U u 1 0.6109 
13-May-2018_16:35:51 7313 20 female R 3 5 5 moral immoralSelf Y y 1 0.4482 
13-May-2018_16:35:52 7313 20 female R 3 5 6 moral immoralSelf Y y 1 0.4304 
13-May-2018_16:35:54 7313 20 female R 3 5 7 moral moralSelf U u 1 0.3556 
13-May-2018_16:35:55 7313 20 female R 3 5 8 moral immoralOther Y y 1 0.3184 
13-May-2018_16:35:56 7313 20 female R 3 5 9 moral moralOther U u 1 0.3186 
13-May-2018_16:35:58 7313 20 female R 3 5 10 moral moralSelf U u 1 0.4645 
13-May-2018_16:36:00 7313 20 female R 3 5 11 moral moralSelf U u 1 0.4358 
13-May-2018_16:36:02 7313 20 female R 3 5 12 moral moralOther U u 1 0.5691 
13-May-2018_16:36:03 7313 20 female R 3 5 13 moral immoralOther Y y 1 0.3894 
13-May-2018_16:36:05 7313 20 female R 3 5 14 moral immoralOther Y y 1 0.4261 
13-May-2018_16:36:07 7313 20 female R 3 5 15 moral immoralSelf Y y 1 0.6470 
13-May-2018_16:36:08 7313 20 female R 3 5 16 moral immoralOther Y y 1 0.4008 
13-May-2018_16:36:10 7313 20 female R 3 5 17 moral moralOther U u 1 0.4222 
13-May-2018_16:36:12 7313 20 female R 3 5 18 moral immoralSelf Y y 1 0.4212 
13-May-2018_16:36:13 7313 20 female R 3 5 19 moral moralSelf U u 1 0.3163 
13-May-2018_16:36:15 7313 20 female R 3 5 20 moral immoralOther Y y 1 0.5437 
13-May-2018_16:36:17 7313 20 female R 3 5 21 moral immoralOther Y y 1 0.5993 
13-May-2018_16:36:18 7313 20 female R 3 5 22 moral immoralSelf Y u 0 0.3105 
13-May-2018_16:36:20 7313 20 female R 3 5 23 moral moralOther U u 1 0.3199 
13-May-2018_16:36:21 7313 20 female R 3 5 24 moral moralSelf U u 1 0.3355 
Date Sub Age Sex Hand Block Bin Trial Task Shape corrResp Resp ACC RT
13-May-2018_16:38:50 7313 20 female R 4 1 1 self immoralSelf J NA -1 1.0731 
13-May-2018_16:38:52 7313 20 female R 4 1 2 self moralOther H h 1 0.1899 
13-May-2018_16:38:53 7313 20 female R 4 1 3 self immoralOther H j 0 0.5175 
13-May-2018_16:38:55 7313 20 female R 4 1 4 self immoralSelf J h 0 0.5839 
13-May-2018_16:38:57 7313 20 female R 4 1 5 self moralSelf J j 1 0.5035 
13-May-2018_16:38:59 7313 20 female R 4 1 6 self immoralSelf J h 0 0.8809 
13-May-2018_16:39:01 7313 20 female R 4 1 7 self moralSelf J j 1 0.5903 
13-May-2018_16:39:02 7313 20 female R 4 1 8 self immoralSelf J h 0 0.5433 
13-May-2018_16:39:04 7313 20 female R 4 1 9 self moralOther H h 1 0.3618 
13-May-2018_16:39:05 7313 20 female R 4 1 10 self moralOther H h 1 0.3891 
13-May-2018_16:39:07 7313 20 female R 4 1 11 self immoralSelf J j 1 0.4296 
13-May-2018_16:39:08 7313 20 female R 4 1 12 self immoralOther H j 0 0.4630 
13-May-2018_16:39:10 7313 20 female R 4 1 13 self immoralOther H j 0 0.4659 
13-May-2018_16:39:11 7313 20 female R 4 1 14 self moralOther H h 1 0.4147 
13-May-2018_16:39:13 7313 20 female R 4 1 15 self moralOther H h 1 0.3551 
13-May-2018_16:39:14 7313 20 female R 4 1 16 self moralOther H h 1 0.3202 
13-May-2018_16:39:16 7313 20 female R 4 1 17 self moralSelf J h 0 0.5231 
13-May-2018_16:39:17 7313 20 female R 4 1 18 self immoralSelf J h 0 0.3631 
13-May-2018_16:39:19 7313 20 female R 4 1 19 self moralSelf J h 0 0.3887 
13-May-2018_16:39:20 7313 20 female R 4 1 20 self moralSelf J j 1 0.4095 
13-May-2018_16:39:22 7313 20 female R 4 1 21 self moralSelf J j 1 0.3563 
13-May-2018_16:39:24 7313 20 female R 4 1 22 self immoralOther H j 0 0.5027 
13-May-2018_16:39:25 7313 20 female R 4 1 23 self immoralOther H j 0 0.3710 
13-May-2018_16:39:27 7313 20 female R 4 1 24 self immoralOther H j 0 0.3414 
13-May-2018_16:39:29 7313 20 female R 4 2 1 self moralOther H h 1 0.4172 
13-May-2018_16:39:31 7313 20 female R 4 2 2 self immoralSelf J j 1 0.6625 
13-May-2018_16:39:33 7313 20 female R 4 2 3 self moralOther H h 1 0.7595 
13-May-2018_16:39:34 7313 20 female R 4 2 4 self immoralSelf J h 0 0.3060 
13-May-2018_16:39:36 7313 20 female R 4 2 5 self immoralSelf J h 0 0.3898 
13-May-2018_16:39:37 7313 20 female R 4 2 6 self immoralOther H j 0 0.4764 
13-May-2018_16:39:39 7313 20 female R 4 2 7 self immoralOther H j 0 0.3743 
13-May-2018_16:39:41 7313 20 female R 4 2 8 self immoralSelf J h 0 0.4987 
13-May-2018_16:39:42 7313 20 female R 4 2 9 self moralOther H h 1 0.3641 
13-May-2018_16:39:44 7313 20 female R 4 2 10 self moralSelf J j 1 0.5599 
13-May-2018_16:39:46 7313 20 female R 4 2 11 self immoralOther H j 0 0.4513 
13-May-2018_16:39:47 7313 20 female R 4 2 12 self moralOther H h 1 0.3771 
13-May-2018_16:39:48 7313 20 female R 4 2 13 self moralOther H h 1 0.2924 
13-May-2018_16:39:50 7313 20 female R 4 2 14 self immoralOther H j 0 0.3423 
13-May-2018_16:39:52 7313 20 female R 4 2 15 self moralSelf J j 1 0.6803 
13-May-2018_16:39:53 7313 20 female R 4 2 16 self moralSelf J j 1 0.4286 
13-May-2018_16:39:55 7313 20 female R 4 2 17 self moralSelf J j 1 0.3934 
13-May-2018_16:39:57 7313 20 female R 4 2 18 self moralSelf J j 1 0.3511 
13-May-2018_16:39:58 7313 20 female R 4 2 19 self moralOther H h 1 0.6006 
13-May-2018_16:40:00 7313 20 female R 4 2 20 self immoralSelf J h 0 0.5300 
13-May-2018_16:40:02 7313 20 female R 4 2 21 self immoralSelf J j 1 0.6736 
13-May-2018_16:40:03 7313 20 female R 4 2 22 self immoralOther H j 0 0.3668 
13-May-2018_16:40:05 7313 20 female R 4 2 23 self moralSelf J j 1 0.3458 
13-May-2018_16:40:06 7313 20 female R 4 2 24 self immoralOther H j 0 0.3228 
13-May-2018_16:40:10 7313 20 female R 4 3 1 self immoralOther H j 0 0.6405 
13-May-2018_16:40:12 7313 20 female R 4 3 2 self moralSelf J j 1 0.8956 
13-May-2018_16:40:14 7313 20 female R 4 3 3 self moralSelf J j 1 0.4130 
13-May-2018_16:40:15 7313 20 female R 4 3 4 self moralSelf J j 1 0.3287 
13-May-2018_16:40:17 7313 20 female R 4 3 5 self immoralOther H j 0 0.5277 
13-May-2018_16:40:19 7313 20 female R 4 3 6 self immoralSelf J h 0 0.5953 
13-May-2018_16:40:20 7313 20 female R 4 3 7 self immoralSelf J h 0 0.4028 
13-May-2018_16:40:22 7313 20 female R 4 3 8 self immoralSelf J h 0 0.4716 
13-May-2018_16:40:24 7313 20 female R 4 3 9 self immoralOther H j 0 0.4613 
13-May-2018_16:40:25 7313 20 female R 4 3 10 self immoralOther H j 0 0.4017 
13-May-2018_16:40:27 7313 20 female R 4 3 11 self moralOther H j 0 0.3824 
13-May-2018_16:40:29 7313 20 female R 4 3 12 self moralSelf J j 1 0.6384 
13-May-2018_16:40:30 7313 20 female R 4 3 13 self moralSelf J j 1 0.4677 
13-May-2018_16:40:32 7313 20 female R 4 3 14 self moralOther H h 1 0.5148 
13-May-2018_16:40:34 7313 20 female R 4 3 15 self immoralSelf J h 0 0.4218 
13-May-2018_16:40:35 7313 20 female R 4 3 16 self moralOther H h 1 0.4199 
13-May-2018_16:40:37 7313 20 female R 4 3 17 self immoralOther H j 0 0.4238 
13-May-2018_16:40:39 7313 20 female R 4 3 18 self immoralSelf J h 0 0.6948 
13-May-2018_16:40:40 7313 20 female R 4 3 19 self immoralSelf J h 0 0.4173 
13-May-2018_16:40:42 7313 20 female R 4 3 20 self moralOther H h 1 0.7872 
13-May-2018_16:40:44 7313 20 female R 4 3 21 self moralOther H h 1 0.3430 
13-May-2018_16:40:45 7313 20 female R 4 3 22 self immoralOther H j 0 0.4400 
13-May-2018_16:40:47 7313 20 female R 4 3 23 self moralOther H h 1 0.5009 
13-May-2018_16:40:49 7313 20 female R 4 3 24 self moralSelf J j 1 0.6651 
13-May-2018_16:40:51 7313 20 female R 4 4 1 self moralSelf J j 1 0.4228 
13-May-2018_16:40:52 7313 20 female R 4 4 2 self moralSelf J j 1 0.3972 
13-May-2018_16:40:54 7313 20 female R 4 4 3 self moralSelf J j 1 0.3034 
13-May-2018_16:40:56 7313 20 female R 4 4 4 self immoralOther H j 0 0.6159 
13-May-2018_16:40:57 7313 20 female R 4 4 5 self moralOther H h 1 0.3262 
13-May-2018_16:40:59 7313 20 female R 4 4 6 self immoralOther H j 0 0.7013 
13-May-2018_16:41:01 7313 20 female R 4 4 7 self moralOther H h 1 0.4369 
13-May-2018_16:41:03 7313 20 female R 4 4 8 self immoralSelf J h 0 0.7259 
13-May-2018_16:41:04 7313 20 female R 4 4 9 self immoralSelf J h 0 0.4140 
13-May-2018_16:41:06 7313 20 female R 4 4 10 self immoralOther H j 0 0.3834 
13-May-2018_16:41:08 7313 20 female R 4 4 11 self moralOther H h 1 0.4141 
13-May-2018_16:41:10 7313 20 female R 4 4 12 self immoralSelf J h 0 0.7144 
13-May-2018_16:41:11 7313 20 female R 4 4 13 self immoralOther H j 0 0.3714 
13-May-2018_16:41:13 7313 20 female R 4 4 14 self immoralOther H j 0 0.4034 
13-May-2018_16:41:14 7313 20 female R 4 4 15 self moralSelf J h 0 0.6506 
13-May-2018_16:41:16 7313 20 female R 4 4 16 self moralSelf J j 1 0.4663 
13-May-2018_16:41:18 7313 20 female R 4 4 17 self moralOther H h 1 0.4413 
13-May-2018_16:41:19 7313 20 female R 4 4 18 self immoralSelf J j 1 0.5995 
13-May-2018_16:41:21 7313 20 female R 4 4 19 self immoralSelf J h 0 0.2956 
13-May-2018_16:41:22 7313 20 female R 4 4 20 self moralOther H h 1 0.4665 
13-May-2018_16:41:24 7313 20 female R 4 4 21 self immoralOther H j 0 0.5630 
13-May-2018_16:41:26 7313 20 female R 4 4 22 self moralOther H h 1 0.3852 
13-May-2018_16:41:27 7313 20 female R 4 4 23 self immoralSelf J h 0 0.4093 
13-May-2018_16:41:29 7313 20 female R 4 4 24 self moralSelf J j 1 0.5566 
13-May-2018_16:41:35 7313 20 female R 4 5 1 self immoralOther H j 0 0.6688 
13-May-2018_16:41:36 7313 20 female R 4 5 2 self moralOther H h 1 0.5691 
13-May-2018_16:41:38 7313 20 female R 4 5 3 self moralOther H h 1 0.4807 
13-May-2018_16:41:40 7313 20 female R 4 5 4 self moralOther H h 1 0.3166 
13-May-2018_16:41:41 7313 20 female R 4 5 5 self immoralSelf J h 0 0.3693 
13-May-2018_16:41:43 7313 20 female R 4 5 6 self immoralOther H j 0 0.4847 
13-May-2018_16:41:45 7313 20 female R 4 5 7 self moralSelf J h 0 0.4575 
13-May-2018_16:41:46 7313 20 female R 4 5 8 self immoralOther H j 0 0.3568 
13-May-2018_16:41:48 7313 20 female R 4 5 9 self immoralSelf J h 0 0.5159 
13-May-2018_16:41:49 7313 20 female R 4 5 10 self moralSelf J j 1 0.3941 
13-May-2018_16:41:51 7313 20 female R 4 5 11 self moralOther H h 1 0.3748 
13-May-2018_16:41:52 7313 20 female R 4 5 12 self immoralSelf J j 1 0.4498 
13-May-2018_16:41:54 7313 20 female R 4 5 13 self moralOther H h 1 0.4992 
13-May-2018_16:41:56 7313 20 female R 4 5 14 self moralSelf J j 1 0.3976 
13-May-2018_16:41:57 7313 20 female R 4 5 15 self moralSelf J j 1 0.4781 
13-May-2018_16:41:59 7313 20 female R 4 5 16 self immoralSelf J h 0 0.4679 
13-May-2018_16:42:01 7313 20 female R 4 5 17 self immoralOther H j 0 0.5706 
13-May-2018_16:42:03 7313 20 female R 4 5 18 self moralOther H h 1 0.5702 
13-May-2018_16:42:05 7313 20 female R 4 5 19 self moralSelf J j 1 0.5359 
13-May-2018_16:42:07 7313 20 female R 4 5 20 self immoralSelf J NA -1 1.0731 
13-May-2018_16:42:09 7313 20 female R 4 5 21 self moralSelf J j 1 0.5167 
13-May-2018_16:42:10 7313 20 female R 4 5 22 self immoralOther H j 0 0.4952 
13-May-2018_16:42:12 7313 20 female R 4 5 23 self immoralOther H j 0 0.4274 
13-May-2018_16:42:13 7313 20 female R 4 5 24 self immoralSelf J h 0 0.6567 
Date Sub Age Sex Hand Block Bin Trial Task Shape corrResp Resp ACC RT
13-May-2018_16:44:22 7313 20 female R 5 1 1 self immoralOther H j 0 0.4315 
13-May-2018_16:44:24 7313 20 female R 5 1 2 self immoralSelf J h 0 0.4439 
13-May-2018_16:44:25 7313 20 female R 5 1 3 self moralSelf J j 1 0.5071 
13-May-2018_16:44:27 7313 20 female R 5 1 4 self immoralOther H j 0 0.3300 
13-May-2018_16:44:29 7313 20 female R 5 1 5 self immoralOther H j 0 0.3421 
13-May-2018_16:44:30 7313 20 female R 5 1 6 self moralOther H h 1 0.3784 
13-May-2018_16:44:32 7313 20 female R 5 1 7 self immoralSelf J h 0 0.5450 
13-May-2018_16:44:34 7313 20 female R 5 1 8 self immoralOther H j 0 0.3559 
13-May-2018_16:44:35 7313 20 female R 5 1 9 self immoralSelf J h 0 0.7108 
13-May-2018_16:44:37 7313 20 female R 5 1 10 self moralOther H h 1 0.5401 
13-May-2018_16:44:39 7313 20 female R 5 1 11 self immoralSelf J h 0 0.4662 
13-May-2018_16:44:40 7313 20 female R 5 1 12 self moralOther H h 1 0.3980 
13-May-2018_16:44:42 7313 20 female R 5 1 13 self immoralSelf J h 0 0.4230 
13-May-2018_16:44:44 7313 20 female R 5 1 14 self moralOther H h 1 0.6100 
13-May-2018_16:44:45 7313 20 female R 5 1 15 self immoralOther H j 0 0.3573 
13-May-2018_16:44:47 7313 20 female R 5 1 16 self moralSelf J j 1 0.5832 
13-May-2018_16:44:49 7313 20 female R 5 1 17 self immoralOther H j 0 0.3564 
13-May-2018_16:44:51 7313 20 female R 5 1 18 self moralSelf J j 1 0.5895 
13-May-2018_16:44:52 7313 20 female R 5 1 19 self moralOther H h 1 0.3665 
13-May-2018_16:44:54 7313 20 female R 5 1 20 self moralOther H h 1 0.3986 
13-May-2018_16:44:56 7313 20 female R 5 1 21 self moralSelf J j 1 0.4575 
13-May-2018_16:44:57 7313 20 female R 5 1 22 self moralSelf J j 1 0.4118 
13-May-2018_16:44:59 7313 20 female R 5 1 23 self immoralSelf J h 0 0.4806 
13-May-2018_16:45:01 7313 20 female R 5 1 24 self moralSelf J j 1 0.5165 
13-May-2018_16:45:02 7313 20 female R 5 2 1 self moralOther H h 1 0.4879 
13-May-2018_16:45:04 7313 20 female R 5 2 2 self immoralSelf J h 0 0.6319 
13-May-2018_16:45:06 7313 20 female R 5 2 3 self immoralSelf J h 0 0.4541 
13-May-2018_16:45:07 7313 20 female R 5 2 4 self moralSelf J h 0 0.4965 
13-May-2018_16:45:09 7313 20 female R 5 2 5 self immoralSelf J h 0 0.5375 
13-May-2018_16:45:11 7313 20 female R 5 2 6 self moralSelf J h 0 0.5094 
13-May-2018_16:45:12 7313 20 female R 5 2 7 self moralSelf J j 1 0.4177 
13-May-2018_16:45:14 7313 20 female R 5 2 8 self immoralOther H j 0 0.5316 
13-May-2018_16:45:16 7313 20 female R 5 2 9 self moralOther H h 1 0.4936 
13-May-2018_16:45:18 7313 20 female R 5 2 10 self moralSelf J j 1 0.9840 
13-May-2018_16:45:20 7313 20 female R 5 2 11 self moralSelf J j 1 0.4702 
13-May-2018_16:45:21 7313 20 female R 5 2 12 self moralOther H h 1 0.4815 
13-May-2018_16:45:24 7313 20 female R 5 2 13 self immoralSelf J h 0 0.6392 
13-May-2018_16:45:25 7313 20 female R 5 2 14 self immoralOther H j 0 0.5449 
13-May-2018_16:45:27 7313 20 female R 5 2 15 self immoralSelf J h 0 0.8318 
13-May-2018_16:45:29 7313 20 female R 5 2 16 self immoralSelf J h 0 0.3618 
13-May-2018_16:45:30 7313 20 female R 5 2 17 self immoralOther H j 0 0.3948 
13-May-2018_16:45:32 7313 20 female R 5 2 18 self moralOther H h 1 0.4264 
13-May-2018_16:45:34 7313 20 female R 5 2 19 self moralOther H h 1 0.5601 
13-May-2018_16:45:35 7313 20 female R 5 2 20 self moralOther H h 1 0.3790 
13-May-2018_16:45:37 7313 20 female R 5 2 21 self moralSelf J j 1 0.3556 
13-May-2018_16:45:38 7313 20 female R 5 2 22 self immoralOther H j 0 0.3585 
13-May-2018_16:45:40 7313 20 female R 5 2 23 self immoralOther H j 0 0.3270 
13-May-2018_16:45:41 7313 20 female R 5 2 24 self immoralOther H j 0 0.3153 
13-May-2018_16:45:56 7313 20 female R 5 3 1 self moralSelf J j 1 0.6909 
13-May-2018_16:45:58 7313 20 female R 5 3 2 self moralSelf J j 1 0.4576 
13-May-2018_16:45:59 7313 20 female R 5 3 3 self moralOther H h 1 0.4365 
13-May-2018_16:46:01 7313 20 female R 5 3 4 self moralOther H h 1 0.3471 
13-May-2018_16:46:02 7313 20 female R 5 3 5 self moralSelf J j 1 0.3270 
13-May-2018_16:46:04 7313 20 female R 5 3 6 self immoralSelf J h 0 0.8352 
13-May-2018_16:46:06 7313 20 female R 5 3 7 self immoralSelf J h 0 0.7982 
13-May-2018_16:46:08 7313 20 female R 5 3 8 self moralOther H h 1 0.6871 
13-May-2018_16:46:10 7313 20 female R 5 3 9 self immoralSelf J h 0 0.5357 
13-May-2018_16:46:11 7313 20 female R 5 3 10 self immoralOther H j 0 0.2807 
13-May-2018_16:46:12 7313 20 female R 5 3 11 self immoralOther H j 0 0.3137 
13-May-2018_16:46:14 7313 20 female R 5 3 12 self moralSelf J j 1 0.4822 
13-May-2018_16:46:16 7313 20 female R 5 3 13 self immoralOther H j 0 0.3228 
13-May-2018_16:46:17 7313 20 female R 5 3 14 self immoralOther H j 0 0.2880 
13-May-2018_16:46:19 7313 20 female R 5 3 15 self moralOther H h 1 0.5021 
13-May-2018_16:46:20 7313 20 female R 5 3 16 self moralOther H h 1 0.4096 
13-May-2018_16:46:22 7313 20 female R 5 3 17 self immoralSelf J h 0 0.6086 
13-May-2018_16:46:24 7313 20 female R 5 3 18 self moralOther H h 1 0.3800 
13-May-2018_16:46:25 7313 20 female R 5 3 19 self immoralOther H h 1 0.5236 
13-May-2018_16:46:27 7313 20 female R 5 3 20 self immoralSelf J h 0 0.4941 
13-May-2018_16:46:29 7313 20 female R 5 3 21 self moralSelf J j 1 0.6640 
13-May-2018_16:46:31 7313 20 female R 5 3 22 self moralSelf J j 1 0.5012 
13-May-2018_16:46:32 7313 20 female R 5 3 23 self immoralOther H j 0 0.4316 
13-May-2018_16:46:34 7313 20 female R 5 3 24 self immoralSelf J h 0 0.5103 
13-May-2018_16:46:36 7313 20 female R 5 4 1 self moralOther H h 1 0.3980 
13-May-2018_16:46:37 7313 20 female R 5 4 2 self immoralSelf J j 1 0.4789 
13-May-2018_16:46:39 7313 20 female R 5 4 3 self immoralOther H j 0 0.2611 
13-May-2018_16:46:41 7313 20 female R 5 4 4 self immoralOther H j 0 0.4103 
13-May-2018_16:46:43 7313 20 female R 5 4 5 self immoralSelf J NA -1 1.0731 
13-May-2018_16:46:44 7313 20 female R 5 4 6 self moralOther H h 1 0.3912 
13-May-2018_16:46:46 7313 20 female R 5 4 7 self moralOther H h 1 0.4575 
13-May-2018_16:46:47 7313 20 female R 5 4 8 self immoralSelf J h 0 0.5212 
13-May-2018_16:46:49 7313 20 female R 5 4 9 self moralSelf J j 1 0.5754 
13-May-2018_16:46:51 7313 20 female R 5 4 10 self immoralSelf J h 0 0.7077 
13-May-2018_16:46:53 7313 20 female R 5 4 11 self immoralSelf J h 0 0.5797 
13-May-2018_16:46:55 7313 20 female R 5 4 12 self moralSelf J j 1 0.4828 
13-May-2018_16:46:57 7313 20 female R 5 4 13 self moralSelf J j 1 0.5573 
13-May-2018_16:46:59 7313 20 female R 5 4 14 self moralSelf J j 1 0.9569 
13-May-2018_16:47:01 7313 20 female R 5 4 15 self immoralOther H j 0 0.8206 
13-May-2018_16:47:02 7313 20 female R 5 4 16 self immoralSelf J h 0 0.6342 
13-May-2018_16:47:04 7313 20 female R 5 4 17 self moralOther H h 1 0.4258 
13-May-2018_16:47:06 7313 20 female R 5 4 18 self moralSelf J j 1 0.5530 
13-May-2018_16:47:08 7313 20 female R 5 4 19 self moralOther H h 1 0.6486 
13-May-2018_16:47:09 7313 20 female R 5 4 20 self immoralOther H j 0 0.4515 
13-May-2018_16:47:11 7313 20 female R 5 4 21 self immoralOther H h 1 0.3688 
13-May-2018_16:47:13 7313 20 female R 5 4 22 self immoralOther H j 0 0.4281 
13-May-2018_16:47:14 7313 20 female R 5 4 23 self moralOther H h 1 0.4993 
13-May-2018_16:47:16 7313 20 female R 5 4 24 self moralSelf J j 1 0.5025 
13-May-2018_16:47:24 7313 20 female R 5 5 1 self moralOther H h 1 0.4902 
13-May-2018_16:47:25 7313 20 female R 5 5 2 self immoralOther H j 0 0.3928 
13-May-2018_16:47:27 7313 20 female R 5 5 3 self moralOther H h 1 0.4503 
13-May-2018_16:47:28 7313 20 female R 5 5 4 self moralSelf J j 1 0.5397 
13-May-2018_16:47:30 7313 20 female R 5 5 5 self moralOther H h 1 0.5982 
13-May-2018_16:47:32 7313 20 female R 5 5 6 self moralSelf J j 1 0.8542 
13-May-2018_16:47:34 7313 20 female R 5 5 7 self moralSelf J j 1 0.3819 
13-May-2018_16:47:35 7313 20 female R 5 5 8 self immoralOther H j 0 0.5885 
13-May-2018_16:47:37 7313 20 female R 5 5 9 self moralOther H h 1 0.8230 
13-May-2018_16:47:39 7313 20 female R 5 5 10 self immoralSelf J j 1 0.5609 
13-May-2018_16:47:41 7313 20 female R 5 5 11 self immoralOther H j 0 0.4852 
13-May-2018_16:47:43 7313 20 female R 5 5 12 self moralSelf J j 1 0.7807 
13-May-2018_16:47:45 7313 20 female R 5 5 13 self immoralOther H j 0 0.4091 
13-May-2018_16:47:47 7313 20 female R 5 5 14 self moralOther H h 1 0.4671 
13-May-2018_16:47:48 7313 20 female R 5 5 15 self immoralOther H j 0 0.4350 
13-May-2018_16:47:50 7313 20 female R 5 5 16 self moralOther H h 1 0.7081 
13-May-2018_16:47:52 7313 20 female R 5 5 17 self immoralSelf J h 0 0.7064 
13-May-2018_16:47:54 7313 20 female R 5 5 18 self immoralSelf J h 0 0.6499 
13-May-2018_16:47:56 7313 20 female R 5 5 19 self immoralSelf J h 0 0.4048 
13-May-2018_16:47:58 7313 20 female R 5 5 20 self immoralSelf J h 0 0.4533 
13-May-2018_16:47:59 7313 20 female R 5 5 21 self immoralSelf J h 0 0.4101 
13-May-2018_16:48:01 7313 20 female R 5 5 22 self moralSelf J h 0 0.2926 
13-May-2018_16:48:02 7313 20 female R 5 5 23 self moralSelf J j 1 0.3802 
13-May-2018_16:48:04 7313 20 female R 5 5 24 self immoralOther H j 0 0.4301 
Date Sub Age Sex Hand Block Bin Trial Task Shape corrResp Resp ACC RT
13-May-2018_16:50:22 7313 20 female R 6 1 1 moral moralOther U u 1 0.4528 
13-May-2018_16:50:24 7313 20 female R 6 1 2 moral moralSelf U u 1 0.3566 
13-May-2018_16:50:26 7313 20 female R 6 1 3 moral immoralSelf Y y 1 0.5114 
13-May-2018_16:50:27 7313 20 female R 6 1 4 moral immoralOther Y y 1 0.4099 
13-May-2018_16:50:29 7313 20 female R 6 1 5 moral immoralOther Y y 1 0.4099 
13-May-2018_16:50:31 7313 20 female R 6 1 6 moral moralSelf U u 1 0.4212 
13-May-2018_16:50:32 7313 20 female R 6 1 7 moral moralSelf U u 1 0.4774 
13-May-2018_16:50:34 7313 20 female R 6 1 8 moral immoralSelf Y y 1 0.7650 
13-May-2018_16:50:36 7313 20 female R 6 1 9 moral immoralSelf Y y 1 0.7109 
13-May-2018_16:50:38 7313 20 female R 6 1 10 moral immoralSelf Y y 1 0.3961 
13-May-2018_16:50:39 7313 20 female R 6 1 11 moral moralOther U u 1 0.4353 
13-May-2018_16:50:41 7313 20 female R 6 1 12 moral immoralOther Y y 1 0.4678 
13-May-2018_16:50:43 7313 20 female R 6 1 13 moral moralSelf U u 1 0.7479 
13-May-2018_16:50:45 7313 20 female R 6 1 14 moral moralOther U u 1 0.5028 
13-May-2018_16:50:46 7313 20 female R 6 1 15 moral moralOther U u 1 0.5151 
13-May-2018_16:50:48 7313 20 female R 6 1 16 moral moralOther U u 1 0.3114 
13-May-2018_16:50:50 7313 20 female R 6 1 17 moral immoralSelf Y NA -1 1.0731 
13-May-2018_16:50:52 7313 20 female R 6 1 18 moral immoralSelf Y y 1 0.5064 
13-May-2018_16:50:54 7313 20 female R 6 1 19 moral immoralOther Y y 1 0.5362 
13-May-2018_16:50:55 7313 20 female R 6 1 20 moral moralOther U u 1 0.5041 
13-May-2018_16:50:57 7313 20 female R 6 1 21 moral moralSelf U u 1 0.4078 
13-May-2018_16:50:58 7313 20 female R 6 1 22 moral immoralOther Y y 1 0.4309 
13-May-2018_16:51:00 7313 20 female R 6 1 23 moral moralSelf U u 1 0.4389 
13-May-2018_16:51:02 7313 20 female R 6 1 24 moral immoralOther Y y 1 0.4277 
13-May-2018_16:51:04 7313 20 female R 6 2 1 moral moralSelf U u 1 0.4936 
13-May-2018_16:51:06 7313 20 female R 6 2 2 moral immoralOther Y y 1 0.9243 
13-May-2018_16:51:08 7313 20 female R 6 2 3 moral immoralSelf Y y 1 0.5272 
13-May-2018_16:51:10 7313 20 female R 6 2 4 moral moralOther U u 1 0.5194 
13-May-2018_16:51:12 7313 20 female R 6 2 5 moral moralOther U u 1 0.9344 
13-May-2018_16:51:13 7313 20 female R 6 2 6 moral moralSelf U u 1 0.3816 
13-May-2018_16:51:15 7313 20 female R 6 2 7 moral moralOther U u 1 0.5281 
13-May-2018_16:51:17 7313 20 female R 6 2 8 moral immoralOther Y y 1 0.5225 
13-May-2018_16:51:19 7313 20 female R 6 2 9 moral immoralSelf Y y 1 0.6015 
13-May-2018_16:51:20 7313 20 female R 6 2 10 moral moralOther U u 1 0.6481 
13-May-2018_16:51:22 7313 20 female R 6 2 11 moral immoralSelf Y u 0 0.3745 
13-May-2018_16:51:23 7313 20 female R 6 2 12 moral immoralSelf Y u 0 0.4135 
13-May-2018_16:51:25 7313 20 female R 6 2 13 moral moralOther U u 1 0.8700 
13-May-2018_16:51:27 7313 20 female R 6 2 14 moral immoralOther Y y 1 0.4978 
13-May-2018_16:51:29 7313 20 female R 6 2 15 moral moralSelf U NA -1 1.0731 
13-May-2018_16:51:31 7313 20 female R 6 2 16 moral moralSelf U u 1 0.3131 
13-May-2018_16:51:33 7313 20 female R 6 2 17 moral immoralOther Y y 1 0.7823 
13-May-2018_16:51:36 7313 20 female R 6 2 18 moral immoralOther Y NA -1 1.0731 
13-May-2018_16:51:37 7313 20 female R 6 2 19 moral moralSelf U u 1 0.4414 
13-May-2018_16:51:38 7313 20 female R 6 2 20 moral moralOther U u 1 0.3340 
13-May-2018_16:51:40 7313 20 female R 6 2 21 moral moralSelf U u 1 0.3459 
13-May-2018_16:51:42 7313 20 female R 6 2 22 moral immoralSelf Y y 1 0.5244 
13-May-2018_16:51:44 7313 20 female R 6 2 23 moral immoralSelf Y y 1 0.6256 
13-May-2018_16:51:45 7313 20 female R 6 2 24 moral immoralOther Y y 1 0.5184 
13-May-2018_16:51:53 7313 20 female R 6 3 1 moral moralSelf U NA -1 1.0731 
13-May-2018_16:51:55 7313 20 female R 6 3 2 moral immoralSelf Y y 1 0.6900 
13-May-2018_16:51:56 7313 20 female R 6 3 3 moral immoralOther Y y 1 0.4289 
13-May-2018_16:51:58 7313 20 female R 6 3 4 moral immoralOther Y y 1 0.4379 
13-May-2018_16:52:00 7313 20 female R 6 3 5 moral moralOther U u 1 0.7185 
13-May-2018_16:52:01 7313 20 female R 6 3 6 moral immoralSelf Y y 1 0.6249 
13-May-2018_16:52:03 7313 20 female R 6 3 7 moral moralOther U u 1 0.6000 
13-May-2018_16:52:05 7313 20 female R 6 3 8 moral immoralSelf Y y 1 0.5978 
13-May-2018_16:52:07 7313 20 female R 6 3 9 moral moralSelf U u 1 0.4741 
13-May-2018_16:52:09 7313 20 female R 6 3 10 moral moralSelf U u 1 0.4816 
13-May-2018_16:52:11 7313 20 female R 6 3 11 moral immoralOther Y y 1 0.5174 
13-May-2018_16:52:12 7313 20 female R 6 3 12 moral immoralOther Y y 1 0.5463 
13-May-2018_16:52:14 7313 20 female R 6 3 13 moral moralSelf U u 1 0.5684 
13-May-2018_16:52:16 7313 20 female R 6 3 14 moral immoralOther Y y 1 0.3497 
13-May-2018_16:52:17 7313 20 female R 6 3 15 moral immoralOther Y y 1 0.4091 
13-May-2018_16:52:19 7313 20 female R 6 3 16 moral moralOther U u 1 0.3640 
13-May-2018_16:52:21 7313 20 female R 6 3 17 moral moralOther U u 1 0.5000 
13-May-2018_16:52:23 7313 20 female R 6 3 18 moral immoralSelf Y y 1 0.5999 
13-May-2018_16:52:24 7313 20 female R 6 3 19 moral moralOther U u 1 0.3204 
13-May-2018_16:52:26 7313 20 female R 6 3 20 moral moralSelf U u 1 0.8136 
13-May-2018_16:52:28 7313 20 female R 6 3 21 moral immoralSelf Y y 1 0.5078 
13-May-2018_16:52:30 7313 20 female R 6 3 22 moral moralSelf U u 1 0.3977 
13-May-2018_16:52:32 7313 20 female R 6 3 23 moral immoralSelf Y u 0 0.8185 
13-May-2018_16:52:33 7313 20 female R 6 3 24 moral moralOther U u 1 0.3433 
13-May-2018_16:52:35 7313 20 female R 6 4 1 moral moralSelf U y 0 0.5650 
13-May-2018_16:52:37 7313 20 female R 6 4 2 moral immoralOther Y y 1 0.5341 
13-May-2018_16:52:39 7313 20 female R 6 4 3 moral immoralSelf Y y 1 0.7901 
13-May-2018_16:52:41 7313 20 female R 6 4 4 moral moralOther U u 1 0.5836 
13-May-2018_16:52:43 7313 20 female R 6 4 5 moral immoralSelf Y y 1 0.8341 
13-May-2018_16:52:44 7313 20 female R 6 4 6 moral moralOther U u 1 0.5066 
13-May-2018_16:52:46 7313 20 female R 6 4 7 moral moralSelf U u 1 0.5043 
13-May-2018_16:52:48 7313 20 female R 6 4 8 moral immoralOther Y y 1 0.5118 
13-May-2018_16:52:49 7313 20 female R 6 4 9 moral moralSelf U u 1 0.5260 
13-May-2018_16:52:51 7313 20 female R 6 4 10 moral moralOther U u 1 0.8715 
13-May-2018_16:52:53 7313 20 female R 6 4 11 moral moralOther U u 1 0.5159 
13-May-2018_16:52:55 7313 20 female R 6 4 12 moral moralSelf U u 1 0.4704 
13-May-2018_16:52:56 7313 20 female R 6 4 13 moral immoralOther Y y 1 0.3866 
13-May-2018_16:52:58 7313 20 female R 6 4 14 moral immoralOther Y y 1 0.4497 
13-May-2018_16:53:00 7313 20 female R 6 4 15 moral moralOther U u 1 0.3768 
13-May-2018_16:53:01 7313 20 female R 6 4 16 moral immoralSelf Y y 1 0.7453 
13-May-2018_16:53:03 7313 20 female R 6 4 17 moral moralOther U u 1 0.1062 
13-May-2018_16:53:04 7313 20 female R 6 4 18 moral moralSelf U u 1 0.3526 
13-May-2018_16:53:07 7313 20 female R 6 4 19 moral moralSelf U u 1 0.7847 
13-May-2018_16:53:08 7313 20 female R 6 4 20 moral immoralOther Y y 1 0.6289 
13-May-2018_16:53:11 7313 20 female R 6 4 21 moral immoralSelf Y y 1 0.9165 
13-May-2018_16:53:12 7313 20 female R 6 4 22 moral immoralOther Y u 0 0.1924 
13-May-2018_16:53:14 7313 20 female R 6 4 23 moral immoralSelf Y y 1 0.5411 
13-May-2018_16:53:16 7313 20 female R 6 4 24 moral immoralSelf Y y 1 0.5276 
13-May-2018_16:53:49 7313 20 female R 6 5 1 moral moralSelf U u 1 0.5895 
13-May-2018_16:53:50 7313 20 female R 6 5 2 moral moralOther U u 1 0.4137 
13-May-2018_16:53:52 7313 20 female R 6 5 3 moral moralSelf U u 1 0.3314 
13-May-2018_16:53:53 7313 20 female R 6 5 4 moral moralOther U u 1 0.3342 
13-May-2018_16:53:55 7313 20 female R 6 5 5 moral immoralOther Y y 1 0.4293 
13-May-2018_16:53:56 7313 20 female R 6 5 6 moral immoralOther Y y 1 0.4426 
13-May-2018_16:53:57 7313 20 female R 6 5 7 moral immoralOther Y y 1 0.3514 
13-May-2018_16:53:59 7313 20 female R 6 5 8 moral moralOther U u 1 0.4587 
13-May-2018_16:54:01 7313 20 female R 6 5 9 moral immoralOther Y y 1 0.3896 
13-May-2018_16:54:02 7313 20 female R 6 5 10 moral immoralSelf Y y 1 0.5130 
13-May-2018_16:54:04 7313 20 female R 6 5 11 moral immoralSelf Y y 1 0.4608 
13-May-2018_16:54:06 7313 20 female R 6 5 12 moral immoralSelf Y y 1 0.6900 
13-May-2018_16:54:08 7313 20 female R 6 5 13 moral moralOther U u 1 0.3989 
13-May-2018_16:54:10 7313 20 female R 6 5 14 moral immoralOther Y y 1 0.4200 
13-May-2018_16:54:12 7313 20 female R 6 5 15 moral moralOther U u 1 0.5275 
13-May-2018_16:54:14 7313 20 female R 6 5 16 moral moralSelf U u 1 0.4668 
13-May-2018_16:54:15 7313 20 female R 6 5 17 moral immoralSelf Y y 1 0.4189 
13-May-2018_16:54:17 7313 20 female R 6 5 18 moral moralSelf U u 1 0.3771 
13-May-2018_16:54:19 7313 20 female R 6 5 19 moral moralOther U u 1 0.4953 
13-May-2018_16:54:21 7313 20 female R 6 5 20 moral immoralSelf Y y 1 0.5155 
13-May-2018_16:54:22 7313 20 female R 6 5 21 moral immoralOther Y u 0 0.2130 
13-May-2018_16:54:24 7313 20 female R 6 5 22 moral moralSelf U u 1 0.2601 
13-May-2018_16:54:26 7313 20 female R 6 5 23 moral moralSelf U u 1 0.8079 
13-May-2018_16:54:28 7313 20 female R 6 5 24 moral immoralSelf Y NA -1 1.0731 
