Date Sub Age Sex Hand Block Bin Trial Task Shape corrResp Resp ACC RT
06-Jun-2018_15:55:45 7341 24 male R 1 1 1 moral immoralOther Y NA -1 1.0841 
06-Jun-2018_15:55:47 7341 24 male R 1 1 2 moral immoralOther Y u 0 0.6809 
06-Jun-2018_15:55:49 7341 24 male R 1 1 3 moral immoralSelf Y y 1 0.9793 
06-Jun-2018_15:55:50 7341 24 male R 1 1 4 moral moralSelf U y 0 0.2011 
06-Jun-2018_15:55:53 7341 24 male R 1 1 5 moral moralOther U NA -1 1.0841 
06-Jun-2018_15:55:54 7341 24 male R 1 1 6 moral immoralSelf Y y 1 0.3132 
06-Jun-2018_15:55:56 7341 24 male R 1 1 7 moral moralOther U u 1 0.3401 
06-Jun-2018_15:55:58 7341 24 male R 1 1 8 moral moralOther U u 1 0.3289 
06-Jun-2018_15:55:59 7341 24 male R 1 1 9 moral immoralSelf Y y 1 0.4556 
06-Jun-2018_15:56:01 7341 24 male R 1 1 10 moral moralSelf U u 1 0.2613 
06-Jun-2018_15:56:02 7341 24 male R 1 1 11 moral moralSelf U u 1 0.1695 
06-Jun-2018_15:56:04 7341 24 male R 1 1 12 moral immoralOther Y y 1 0.1762 
06-Jun-2018_15:56:06 7341 24 male R 1 1 13 moral immoralSelf Y y 1 0.6026 
06-Jun-2018_15:56:07 7341 24 male R 1 1 14 moral moralSelf U u 1 0.4446 
06-Jun-2018_15:56:09 7341 24 male R 1 1 15 moral moralOther U y 0 0.4922 
06-Jun-2018_15:56:10 7341 24 male R 1 1 16 moral moralSelf U u 1 0.1822 
06-Jun-2018_15:56:12 7341 24 male R 1 1 17 moral immoralOther Y y 1 0.4283 
06-Jun-2018_15:56:14 7341 24 male R 1 1 18 moral moralOther U u 1 0.3648 
06-Jun-2018_15:56:16 7341 24 male R 1 1 19 moral immoralOther Y y 1 0.3254 
06-Jun-2018_15:56:18 7341 24 male R 1 1 20 moral immoralSelf Y u 0 0.6648 
06-Jun-2018_15:56:19 7341 24 male R 1 1 21 moral moralSelf U u 1 0.5222 
06-Jun-2018_15:56:21 7341 24 male R 1 1 22 moral immoralSelf Y y 1 0.8282 
06-Jun-2018_15:56:23 7341 24 male R 1 1 23 moral moralOther U u 1 0.3351 
06-Jun-2018_15:56:25 7341 24 male R 1 1 24 moral immoralOther Y y 1 0.4551 
06-Jun-2018_15:56:27 7341 24 male R 1 2 1 moral moralSelf U u 1 0.5136 
06-Jun-2018_15:56:29 7341 24 male R 1 2 2 moral immoralSelf Y y 1 0.6138 
06-Jun-2018_15:56:30 7341 24 male R 1 2 3 moral moralSelf U u 1 0.3943 
06-Jun-2018_15:56:32 7341 24 male R 1 2 4 moral moralSelf U u 1 0.5321 
06-Jun-2018_15:56:33 7341 24 male R 1 2 5 moral immoralSelf Y y 1 0.5510 
06-Jun-2018_15:56:35 7341 24 male R 1 2 6 moral moralSelf U u 1 0.5497 
06-Jun-2018_15:56:37 7341 24 male R 1 2 7 moral immoralSelf Y y 1 0.3921 
06-Jun-2018_15:56:39 7341 24 male R 1 2 8 moral immoralSelf Y y 1 0.4985 
06-Jun-2018_15:56:40 7341 24 male R 1 2 9 moral immoralOther Y u 0 0.4501 
06-Jun-2018_15:56:42 7341 24 male R 1 2 10 moral moralOther U u 1 0.4879 
06-Jun-2018_15:56:44 7341 24 male R 1 2 11 moral moralSelf U u 1 0.4969 
06-Jun-2018_15:56:46 7341 24 male R 1 2 12 moral moralSelf U u 1 0.4362 
06-Jun-2018_15:56:47 7341 24 male R 1 2 13 moral immoralOther Y y 1 0.3370 
06-Jun-2018_15:56:49 7341 24 male R 1 2 14 moral moralOther U u 1 0.5677 
06-Jun-2018_15:56:51 7341 24 male R 1 2 15 moral immoralSelf Y y 1 0.5612 
06-Jun-2018_15:56:53 7341 24 male R 1 2 16 moral immoralOther Y y 1 0.4200 
06-Jun-2018_15:56:54 7341 24 male R 1 2 17 moral immoralOther Y y 1 0.4511 
06-Jun-2018_15:56:56 7341 24 male R 1 2 18 moral immoralSelf Y y 1 0.6258 
06-Jun-2018_15:56:58 7341 24 male R 1 2 19 moral moralOther U u 1 0.4838 
06-Jun-2018_15:57:00 7341 24 male R 1 2 20 moral moralOther U u 1 0.4373 
06-Jun-2018_15:57:01 7341 24 male R 1 2 21 moral immoralOther Y y 1 0.4712 
06-Jun-2018_15:57:03 7341 24 male R 1 2 22 moral moralOther U u 1 0.4346 
06-Jun-2018_15:57:04 7341 24 male R 1 2 23 moral immoralOther Y y 1 0.3856 
06-Jun-2018_15:57:06 7341 24 male R 1 2 24 moral moralOther U u 1 0.8686 
06-Jun-2018_15:57:46 7341 24 male R 1 3 1 moral moralSelf U u 1 0.5671 
06-Jun-2018_15:57:48 7341 24 male R 1 3 2 moral immoralSelf Y y 1 0.6735 
06-Jun-2018_15:57:50 7341 24 male R 1 3 3 moral moralSelf U u 1 0.3974 
06-Jun-2018_15:57:52 7341 24 male R 1 3 4 moral moralOther U u 1 0.5514 
06-Jun-2018_15:57:53 7341 24 male R 1 3 5 moral moralOther U u 1 0.3485 
06-Jun-2018_15:57:55 7341 24 male R 1 3 6 moral immoralSelf Y y 1 0.4498 
06-Jun-2018_15:57:57 7341 24 male R 1 3 7 moral moralSelf U u 1 0.4225 
06-Jun-2018_15:57:58 7341 24 male R 1 3 8 moral moralSelf U u 1 0.3488 
06-Jun-2018_15:58:00 7341 24 male R 1 3 9 moral immoralSelf Y y 1 0.3559 
06-Jun-2018_15:58:02 7341 24 male R 1 3 10 moral moralOther U u 1 0.6261 
06-Jun-2018_15:58:03 7341 24 male R 1 3 11 moral immoralOther Y y 1 0.4765 
06-Jun-2018_15:58:05 7341 24 male R 1 3 12 moral moralOther U u 1 0.3942 
06-Jun-2018_15:58:06 7341 24 male R 1 3 13 moral moralOther U u 1 0.3820 
06-Jun-2018_15:58:08 7341 24 male R 1 3 14 moral immoralSelf Y y 1 0.4672 
06-Jun-2018_15:58:10 7341 24 male R 1 3 15 moral moralSelf U u 1 0.3973 
06-Jun-2018_15:58:12 7341 24 male R 1 3 16 moral immoralOther Y y 1 0.6345 
06-Jun-2018_15:58:13 7341 24 male R 1 3 17 moral immoralSelf Y y 1 0.4416 
06-Jun-2018_15:58:15 7341 24 male R 1 3 18 moral immoralSelf Y y 1 0.4787 
06-Jun-2018_15:58:16 7341 24 male R 1 3 19 moral moralOther U u 1 0.3344 
06-Jun-2018_15:58:18 7341 24 male R 1 3 20 moral immoralOther Y y 1 0.3853 
06-Jun-2018_15:58:20 7341 24 male R 1 3 21 moral immoralOther Y y 1 0.3797 
06-Jun-2018_15:58:21 7341 24 male R 1 3 22 moral moralSelf U u 1 0.4000 
06-Jun-2018_15:58:23 7341 24 male R 1 3 23 moral immoralOther Y y 1 0.3742 
06-Jun-2018_15:58:24 7341 24 male R 1 3 24 moral immoralOther Y y 1 0.3587 
06-Jun-2018_15:58:26 7341 24 male R 1 4 1 moral moralSelf U u 1 0.4073 
06-Jun-2018_15:58:27 7341 24 male R 1 4 2 moral moralOther U u 1 0.3645 
06-Jun-2018_15:58:29 7341 24 male R 1 4 3 moral immoralSelf Y y 1 0.4554 
06-Jun-2018_15:58:30 7341 24 male R 1 4 4 moral moralOther U u 1 0.3458 
06-Jun-2018_15:58:32 7341 24 male R 1 4 5 moral moralOther U u 1 0.4137 
06-Jun-2018_15:58:34 7341 24 male R 1 4 6 moral moralSelf U u 1 0.4655 
06-Jun-2018_15:58:36 7341 24 male R 1 4 7 moral moralOther U u 1 0.2726 
06-Jun-2018_15:58:37 7341 24 male R 1 4 8 moral immoralOther Y y 1 0.4318 
06-Jun-2018_15:58:39 7341 24 male R 1 4 9 moral moralSelf U u 1 0.4049 
06-Jun-2018_15:58:41 7341 24 male R 1 4 10 moral immoralSelf Y y 1 0.5020 
06-Jun-2018_15:58:43 7341 24 male R 1 4 11 moral immoralOther Y u 0 0.3642 
06-Jun-2018_15:58:44 7341 24 male R 1 4 12 moral moralOther U u 1 0.3271 
06-Jun-2018_15:58:46 7341 24 male R 1 4 13 moral immoralSelf Y y 1 0.4626 
06-Jun-2018_15:58:48 7341 24 male R 1 4 14 moral moralSelf U u 1 0.3997 
06-Jun-2018_15:58:49 7341 24 male R 1 4 15 moral immoralSelf Y y 1 0.5051 
06-Jun-2018_15:58:51 7341 24 male R 1 4 16 moral immoralOther Y y 1 0.4967 
06-Jun-2018_15:58:53 7341 24 male R 1 4 17 moral moralSelf U u 1 0.4337 
06-Jun-2018_15:58:54 7341 24 male R 1 4 18 moral immoralSelf Y y 1 0.3562 
06-Jun-2018_15:58:56 7341 24 male R 1 4 19 moral moralOther U u 1 0.4574 
06-Jun-2018_15:58:58 7341 24 male R 1 4 20 moral immoralOther Y y 1 0.3662 
06-Jun-2018_15:58:59 7341 24 male R 1 4 21 moral immoralSelf Y y 1 0.5291 
06-Jun-2018_15:59:01 7341 24 male R 1 4 22 moral moralSelf U u 1 0.3710 
06-Jun-2018_15:59:03 7341 24 male R 1 4 23 moral immoralOther Y y 1 0.4153 
06-Jun-2018_15:59:05 7341 24 male R 1 4 24 moral immoralOther Y y 1 0.4050 
06-Jun-2018_15:59:12 7341 24 male R 1 5 1 moral immoralOther Y y 1 0.4336 
06-Jun-2018_15:59:14 7341 24 male R 1 5 2 moral immoralSelf Y y 1 0.6110 
06-Jun-2018_15:59:15 7341 24 male R 1 5 3 moral immoralSelf Y y 1 0.3603 
06-Jun-2018_15:59:17 7341 24 male R 1 5 4 moral moralSelf U u 1 0.4399 
06-Jun-2018_15:59:19 7341 24 male R 1 5 5 moral immoralOther Y y 1 0.3816 
06-Jun-2018_15:59:20 7341 24 male R 1 5 6 moral moralSelf U u 1 0.3695 
06-Jun-2018_15:59:22 7341 24 male R 1 5 7 moral immoralOther Y y 1 0.4650 
06-Jun-2018_15:59:24 7341 24 male R 1 5 8 moral moralSelf U u 1 0.3582 
06-Jun-2018_15:59:25 7341 24 male R 1 5 9 moral moralSelf U u 1 0.3950 
06-Jun-2018_15:59:27 7341 24 male R 1 5 10 moral immoralSelf Y y 1 0.3504 
06-Jun-2018_15:59:29 7341 24 male R 1 5 11 moral immoralOther Y y 1 0.4945 
06-Jun-2018_15:59:31 7341 24 male R 1 5 12 moral moralOther U u 1 0.4159 
06-Jun-2018_15:59:33 7341 24 male R 1 5 13 moral immoralOther Y y 1 0.3911 
06-Jun-2018_15:59:34 7341 24 male R 1 5 14 moral moralOther U u 1 0.4570 
06-Jun-2018_15:59:36 7341 24 male R 1 5 15 moral moralOther U u 1 0.3075 
06-Jun-2018_15:59:37 7341 24 male R 1 5 16 moral immoralSelf Y y 1 0.3358 
06-Jun-2018_15:59:39 7341 24 male R 1 5 17 moral moralOther U u 1 0.3429 
06-Jun-2018_15:59:40 7341 24 male R 1 5 18 moral immoralSelf Y u 0 0.4573 
06-Jun-2018_15:59:42 7341 24 male R 1 5 19 moral moralOther U u 1 0.3896 
06-Jun-2018_15:59:44 7341 24 male R 1 5 20 moral moralSelf U u 1 0.5294 
06-Jun-2018_15:59:46 7341 24 male R 1 5 21 moral immoralOther Y y 1 0.3864 
06-Jun-2018_15:59:48 7341 24 male R 1 5 22 moral moralSelf U u 1 0.4603 
06-Jun-2018_15:59:49 7341 24 male R 1 5 23 moral moralOther U u 1 0.3899 
06-Jun-2018_15:59:51 7341 24 male R 1 5 24 moral immoralSelf Y y 1 0.3240 
Date Sub Age Sex Hand Block Bin Trial Task Shape corrResp Resp ACC RT
06-Jun-2018_16:02:46 7341 24 male R 2 1 1 self immoralOther J j 1 0.6476 
06-Jun-2018_16:02:47 7341 24 male R 2 1 2 self moralSelf H h 1 0.5456 
06-Jun-2018_16:02:49 7341 24 male R 2 1 3 self immoralSelf H h 1 0.6332 
06-Jun-2018_16:02:51 7341 24 male R 2 1 4 self moralSelf H h 1 0.5613 
06-Jun-2018_16:02:53 7341 24 male R 2 1 5 self immoralSelf H j 0 0.5106 
06-Jun-2018_16:02:54 7341 24 male R 2 1 6 self moralSelf H h 1 0.4598 
06-Jun-2018_16:02:56 7341 24 male R 2 1 7 self immoralOther J j 1 0.5987 
06-Jun-2018_16:02:58 7341 24 male R 2 1 8 self moralOther J j 1 0.4101 
06-Jun-2018_16:03:01 7341 24 male R 2 1 9 self immoralOther J NA -1 1.0841 
06-Jun-2018_16:03:03 7341 24 male R 2 1 10 self moralOther J j 1 0.8559 
06-Jun-2018_16:03:05 7341 24 male R 2 1 11 self immoralOther J j 1 0.6227 
06-Jun-2018_16:03:07 7341 24 male R 2 1 12 self moralOther J j 1 0.4494 
06-Jun-2018_16:03:08 7341 24 male R 2 1 13 self moralSelf H h 1 0.5822 
06-Jun-2018_16:03:10 7341 24 male R 2 1 14 self immoralOther J j 1 0.9056 
06-Jun-2018_16:03:12 7341 24 male R 2 1 15 self immoralSelf H h 1 0.5843 
06-Jun-2018_16:03:14 7341 24 male R 2 1 16 self moralOther J j 1 0.4657 
06-Jun-2018_16:03:16 7341 24 male R 2 1 17 self immoralOther J j 1 0.8395 
06-Jun-2018_16:03:18 7341 24 male R 2 1 18 self moralOther J j 1 0.4429 
06-Jun-2018_16:03:20 7341 24 male R 2 1 19 self moralSelf H h 1 0.5554 
06-Jun-2018_16:03:21 7341 24 male R 2 1 20 self immoralSelf H h 1 0.4910 
06-Jun-2018_16:03:24 7341 24 male R 2 1 21 self moralSelf H h 1 0.5419 
06-Jun-2018_16:03:25 7341 24 male R 2 1 22 self immoralSelf H h 1 0.4266 
06-Jun-2018_16:03:27 7341 24 male R 2 1 23 self moralOther J j 1 0.4846 
06-Jun-2018_16:03:29 7341 24 male R 2 1 24 self immoralSelf H h 1 0.7501 
06-Jun-2018_16:03:31 7341 24 male R 2 2 1 self moralOther J j 1 0.4890 
06-Jun-2018_16:03:32 7341 24 male R 2 2 2 self moralSelf H h 1 0.4886 
06-Jun-2018_16:03:34 7341 24 male R 2 2 3 self immoralOther J j 1 0.6684 
06-Jun-2018_16:03:36 7341 24 male R 2 2 4 self moralSelf H h 1 0.4511 
06-Jun-2018_16:03:38 7341 24 male R 2 2 5 self immoralOther J j 1 0.5796 
06-Jun-2018_16:03:39 7341 24 male R 2 2 6 self immoralOther J j 1 0.5553 
06-Jun-2018_16:03:41 7341 24 male R 2 2 7 self moralOther J j 1 0.4730 
06-Jun-2018_16:03:43 7341 24 male R 2 2 8 self moralSelf H h 1 0.4541 
06-Jun-2018_16:03:45 7341 24 male R 2 2 9 self immoralSelf H h 1 0.4425 
06-Jun-2018_16:03:47 7341 24 male R 2 2 10 self moralSelf H h 1 0.3597 
06-Jun-2018_16:03:48 7341 24 male R 2 2 11 self moralSelf H h 1 0.4275 
06-Jun-2018_16:03:50 7341 24 male R 2 2 12 self immoralSelf H h 1 0.3594 
06-Jun-2018_16:03:52 7341 24 male R 2 2 13 self moralOther J j 1 0.4819 
06-Jun-2018_16:03:53 7341 24 male R 2 2 14 self immoralSelf H j 0 0.5172 
06-Jun-2018_16:03:55 7341 24 male R 2 2 15 self immoralSelf H h 1 0.6312 
06-Jun-2018_16:03:57 7341 24 male R 2 2 16 self immoralOther J j 1 0.6044 
06-Jun-2018_16:03:59 7341 24 male R 2 2 17 self moralOther J j 1 0.5249 
06-Jun-2018_16:04:01 7341 24 male R 2 2 18 self moralOther J j 1 0.3772 
06-Jun-2018_16:04:03 7341 24 male R 2 2 19 self immoralSelf H h 1 0.6399 
06-Jun-2018_16:04:04 7341 24 male R 2 2 20 self moralOther J j 1 0.5157 
06-Jun-2018_16:04:06 7341 24 male R 2 2 21 self moralSelf H h 1 0.4288 
06-Jun-2018_16:04:08 7341 24 male R 2 2 22 self immoralSelf H h 1 0.5342 
06-Jun-2018_16:04:10 7341 24 male R 2 2 23 self immoralOther J j 1 0.5931 
06-Jun-2018_16:04:12 7341 24 male R 2 2 24 self immoralOther J j 1 0.3787 
06-Jun-2018_16:04:20 7341 24 male R 2 3 1 self moralSelf H h 1 0.3855 
06-Jun-2018_16:04:22 7341 24 male R 2 3 2 self moralOther J j 1 0.5225 
06-Jun-2018_16:04:23 7341 24 male R 2 3 3 self immoralSelf H h 1 0.4648 
06-Jun-2018_16:04:25 7341 24 male R 2 3 4 self immoralSelf H h 1 0.3678 
06-Jun-2018_16:04:27 7341 24 male R 2 3 5 self immoralSelf H h 1 0.2710 
06-Jun-2018_16:04:28 7341 24 male R 2 3 6 self immoralSelf H h 1 0.3111 
06-Jun-2018_16:04:30 7341 24 male R 2 3 7 self immoralSelf H h 1 0.2975 
06-Jun-2018_16:04:32 7341 24 male R 2 3 8 self immoralOther J j 1 0.4392 
06-Jun-2018_16:04:33 7341 24 male R 2 3 9 self immoralOther J j 1 0.2896 
06-Jun-2018_16:04:35 7341 24 male R 2 3 10 self moralSelf H h 1 0.4157 
06-Jun-2018_16:04:36 7341 24 male R 2 3 11 self moralSelf H h 1 0.3406 
06-Jun-2018_16:04:38 7341 24 male R 2 3 12 self moralSelf H h 1 0.3039 
06-Jun-2018_16:04:40 7341 24 male R 2 3 13 self moralOther J j 1 0.3656 
06-Jun-2018_16:04:41 7341 24 male R 2 3 14 self immoralOther J j 1 0.5412 
06-Jun-2018_16:04:43 7341 24 male R 2 3 15 self moralSelf H h 1 0.4801 
06-Jun-2018_16:04:45 7341 24 male R 2 3 16 self moralOther J j 1 0.4336 
06-Jun-2018_16:04:47 7341 24 male R 2 3 17 self moralOther J j 1 0.3155 
06-Jun-2018_16:04:48 7341 24 male R 2 3 18 self moralOther J j 1 0.2488 
06-Jun-2018_16:04:49 7341 24 male R 2 3 19 self immoralOther J j 1 0.3754 
06-Jun-2018_16:04:51 7341 24 male R 2 3 20 self immoralOther J j 1 0.4777 
06-Jun-2018_16:04:53 7341 24 male R 2 3 21 self immoralOther J j 1 0.3469 
06-Jun-2018_16:04:55 7341 24 male R 2 3 22 self moralOther J j 1 0.3931 
06-Jun-2018_16:04:56 7341 24 male R 2 3 23 self moralSelf H h 1 0.3145 
06-Jun-2018_16:04:57 7341 24 male R 2 3 24 self immoralSelf H h 1 0.2778 
06-Jun-2018_16:04:59 7341 24 male R 2 4 1 self moralOther J h 0 0.2257 
06-Jun-2018_16:05:01 7341 24 male R 2 4 2 self moralOther J j 1 0.2705 
06-Jun-2018_16:05:02 7341 24 male R 2 4 3 self immoralOther J j 1 0.2315 
06-Jun-2018_16:05:03 7341 24 male R 2 4 4 self immoralOther J j 1 0.3506 
06-Jun-2018_16:05:05 7341 24 male R 2 4 5 self immoralOther J j 1 0.2932 
06-Jun-2018_16:05:07 7341 24 male R 2 4 6 self moralSelf H h 1 0.3092 
06-Jun-2018_16:05:08 7341 24 male R 2 4 7 self immoralSelf H h 1 0.3361 
06-Jun-2018_16:05:10 7341 24 male R 2 4 8 self moralSelf H h 1 0.4421 
06-Jun-2018_16:05:12 7341 24 male R 2 4 9 self immoralSelf H h 1 0.3151 
06-Jun-2018_16:05:13 7341 24 male R 2 4 10 self immoralOther J j 1 0.3985 
06-Jun-2018_16:05:15 7341 24 male R 2 4 11 self immoralSelf H j 0 0.3449 
06-Jun-2018_16:05:17 7341 24 male R 2 4 12 self moralSelf H h 1 0.4499 
06-Jun-2018_16:05:19 7341 24 male R 2 4 13 self moralOther J j 1 0.3493 
06-Jun-2018_16:05:20 7341 24 male R 2 4 14 self moralOther J j 1 0.3569 
06-Jun-2018_16:05:22 7341 24 male R 2 4 15 self moralOther J j 1 0.4990 
06-Jun-2018_16:05:24 7341 24 male R 2 4 16 self immoralSelf H h 1 0.3598 
06-Jun-2018_16:05:25 7341 24 male R 2 4 17 self moralSelf H h 1 0.4281 
06-Jun-2018_16:05:27 7341 24 male R 2 4 18 self immoralSelf H h 1 0.5689 
06-Jun-2018_16:05:29 7341 24 male R 2 4 19 self moralSelf H h 1 0.3746 
06-Jun-2018_16:05:30 7341 24 male R 2 4 20 self moralOther J j 1 0.4664 
06-Jun-2018_16:05:32 7341 24 male R 2 4 21 self immoralOther J h 0 0.4011 
06-Jun-2018_16:05:34 7341 24 male R 2 4 22 self immoralOther J j 1 0.2737 
06-Jun-2018_16:05:36 7341 24 male R 2 4 23 self immoralSelf H h 1 0.4718 
06-Jun-2018_16:05:37 7341 24 male R 2 4 24 self moralSelf H h 1 0.4770 
06-Jun-2018_16:05:46 7341 24 male R 2 5 1 self moralOther J j 1 0.4652 
06-Jun-2018_16:05:48 7341 24 male R 2 5 2 self immoralOther J j 1 0.4751 
06-Jun-2018_16:05:49 7341 24 male R 2 5 3 self moralSelf H j 0 0.2333 
06-Jun-2018_16:05:51 7341 24 male R 2 5 4 self immoralSelf H h 1 0.4484 
06-Jun-2018_16:05:52 7341 24 male R 2 5 5 self immoralSelf H h 1 0.2928 
06-Jun-2018_16:05:54 7341 24 male R 2 5 6 self moralOther J j 1 0.4119 
06-Jun-2018_16:05:56 7341 24 male R 2 5 7 self moralOther J j 1 0.4120 
06-Jun-2018_16:05:58 7341 24 male R 2 5 8 self immoralOther J h 0 0.3645 
06-Jun-2018_16:05:59 7341 24 male R 2 5 9 self immoralOther J j 1 0.4379 
06-Jun-2018_16:06:01 7341 24 male R 2 5 10 self moralSelf H h 1 0.5806 
06-Jun-2018_16:06:03 7341 24 male R 2 5 11 self moralOther J j 1 0.6428 
06-Jun-2018_16:06:05 7341 24 male R 2 5 12 self moralSelf H h 1 0.5228 
06-Jun-2018_16:06:07 7341 24 male R 2 5 13 self immoralOther J j 1 0.4853 
06-Jun-2018_16:06:09 7341 24 male R 2 5 14 self moralSelf H h 1 0.4651 
06-Jun-2018_16:06:10 7341 24 male R 2 5 15 self moralSelf H h 1 0.3565 
06-Jun-2018_16:06:12 7341 24 male R 2 5 16 self immoralSelf H h 1 0.5344 
06-Jun-2018_16:06:14 7341 24 male R 2 5 17 self immoralSelf H h 1 0.3741 
06-Jun-2018_16:06:16 7341 24 male R 2 5 18 self immoralSelf H h 1 0.4019 
06-Jun-2018_16:06:18 7341 24 male R 2 5 19 self moralSelf H h 1 0.4006 
06-Jun-2018_16:06:19 7341 24 male R 2 5 20 self immoralOther J j 1 0.4147 
06-Jun-2018_16:06:21 7341 24 male R 2 5 21 self moralOther J j 1 0.5009 
06-Jun-2018_16:06:23 7341 24 male R 2 5 22 self moralOther J j 1 0.3565 
06-Jun-2018_16:06:25 7341 24 male R 2 5 23 self immoralSelf H h 1 0.4752 
06-Jun-2018_16:06:27 7341 24 male R 2 5 24 self immoralOther J j 1 0.5538 
Date Sub Age Sex Hand Block Bin Trial Task Shape corrResp Resp ACC RT
06-Jun-2018_16:08:36 7341 24 male R 3 1 1 self moralOther J j 1 0.3702 
06-Jun-2018_16:08:38 7341 24 male R 3 1 2 self immoralSelf H h 1 0.3995 
06-Jun-2018_16:08:39 7341 24 male R 3 1 3 self immoralOther J j 1 0.4457 
06-Jun-2018_16:08:41 7341 24 male R 3 1 4 self moralSelf H h 1 0.4636 
06-Jun-2018_16:08:43 7341 24 male R 3 1 5 self immoralSelf H h 1 0.4534 
06-Jun-2018_16:08:45 7341 24 male R 3 1 6 self moralSelf H h 1 0.4618 
06-Jun-2018_16:08:47 7341 24 male R 3 1 7 self moralSelf H h 1 0.3207 
06-Jun-2018_16:08:48 7341 24 male R 3 1 8 self immoralSelf H h 1 0.3843 
06-Jun-2018_16:08:50 7341 24 male R 3 1 9 self immoralOther J h 0 0.3788 
06-Jun-2018_16:08:52 7341 24 male R 3 1 10 self moralSelf H h 1 0.3356 
06-Jun-2018_16:08:53 7341 24 male R 3 1 11 self immoralOther J h 0 0.3878 
06-Jun-2018_16:08:55 7341 24 male R 3 1 12 self immoralSelf H h 1 0.5107 
06-Jun-2018_16:08:57 7341 24 male R 3 1 13 self moralOther J j 1 0.3310 
06-Jun-2018_16:08:58 7341 24 male R 3 1 14 self immoralOther J j 1 0.4384 
06-Jun-2018_16:09:00 7341 24 male R 3 1 15 self moralOther J j 1 0.4507 
06-Jun-2018_16:09:02 7341 24 male R 3 1 16 self moralOther J j 1 0.3939 
06-Jun-2018_16:09:03 7341 24 male R 3 1 17 self moralOther J j 1 0.3417 
06-Jun-2018_16:09:05 7341 24 male R 3 1 18 self immoralOther J j 1 0.4598 
06-Jun-2018_16:09:07 7341 24 male R 3 1 19 self immoralSelf H h 1 0.4985 
06-Jun-2018_16:09:08 7341 24 male R 3 1 20 self moralSelf H h 1 0.5258 
06-Jun-2018_16:09:10 7341 24 male R 3 1 21 self immoralOther J j 1 0.6140 
06-Jun-2018_16:09:12 7341 24 male R 3 1 22 self immoralSelf H h 1 0.4417 
06-Jun-2018_16:09:14 7341 24 male R 3 1 23 self moralSelf H h 1 0.4479 
06-Jun-2018_16:09:16 7341 24 male R 3 1 24 self moralOther J j 1 0.4424 
06-Jun-2018_16:09:17 7341 24 male R 3 2 1 self moralOther J j 1 0.3738 
06-Jun-2018_16:09:19 7341 24 male R 3 2 2 self moralOther J j 1 0.3159 
06-Jun-2018_16:09:20 7341 24 male R 3 2 3 self immoralSelf H h 1 0.4091 
06-Jun-2018_16:09:22 7341 24 male R 3 2 4 self moralSelf H h 1 0.4389 
06-Jun-2018_16:09:24 7341 24 male R 3 2 5 self moralOther J j 1 0.4925 
06-Jun-2018_16:09:26 7341 24 male R 3 2 6 self immoralSelf H h 1 0.4259 
06-Jun-2018_16:09:27 7341 24 male R 3 2 7 self immoralOther J j 1 0.3901 
06-Jun-2018_16:09:29 7341 24 male R 3 2 8 self moralOther J j 1 0.5169 
06-Jun-2018_16:09:31 7341 24 male R 3 2 9 self moralOther J j 1 0.3287 
06-Jun-2018_16:09:32 7341 24 male R 3 2 10 self immoralSelf H h 1 0.3829 
06-Jun-2018_16:09:34 7341 24 male R 3 2 11 self immoralOther J j 1 0.4334 
06-Jun-2018_16:09:35 7341 24 male R 3 2 12 self immoralOther J j 1 0.3594 
06-Jun-2018_16:09:37 7341 24 male R 3 2 13 self moralSelf H h 1 0.5123 
06-Jun-2018_16:09:39 7341 24 male R 3 2 14 self moralSelf H h 1 0.3271 
06-Jun-2018_16:09:40 7341 24 male R 3 2 15 self immoralSelf H h 1 0.2876 
06-Jun-2018_16:09:42 7341 24 male R 3 2 16 self immoralOther J h 0 0.3394 
06-Jun-2018_16:09:43 7341 24 male R 3 2 17 self moralSelf H h 1 0.4279 
06-Jun-2018_16:09:45 7341 24 male R 3 2 18 self moralSelf H h 1 0.3094 
06-Jun-2018_16:09:47 7341 24 male R 3 2 19 self moralSelf H h 1 0.3265 
06-Jun-2018_16:09:48 7341 24 male R 3 2 20 self moralOther J j 1 0.4003 
06-Jun-2018_16:09:50 7341 24 male R 3 2 21 self immoralSelf H h 1 0.3962 
06-Jun-2018_16:09:52 7341 24 male R 3 2 22 self immoralSelf H h 1 0.4259 
06-Jun-2018_16:09:53 7341 24 male R 3 2 23 self immoralOther J j 1 0.4910 
06-Jun-2018_16:09:55 7341 24 male R 3 2 24 self immoralOther J j 1 0.6039 
06-Jun-2018_16:10:01 7341 24 male R 3 3 1 self moralSelf H h 1 0.4108 
06-Jun-2018_16:10:02 7341 24 male R 3 3 2 self moralSelf H h 1 0.2644 
06-Jun-2018_16:10:04 7341 24 male R 3 3 3 self moralSelf H h 1 0.3192 
06-Jun-2018_16:10:06 7341 24 male R 3 3 4 self moralOther J j 1 0.3766 
06-Jun-2018_16:10:08 7341 24 male R 3 3 5 self immoralSelf H h 1 0.5070 
06-Jun-2018_16:10:09 7341 24 male R 3 3 6 self immoralOther J j 1 0.4426 
06-Jun-2018_16:10:11 7341 24 male R 3 3 7 self immoralOther J j 1 0.3368 
06-Jun-2018_16:10:13 7341 24 male R 3 3 8 self moralOther J j 1 0.4376 
06-Jun-2018_16:10:14 7341 24 male R 3 3 9 self moralSelf H h 1 0.4607 
06-Jun-2018_16:10:16 7341 24 male R 3 3 10 self immoralSelf H h 1 0.5554 
06-Jun-2018_16:10:18 7341 24 male R 3 3 11 self moralSelf H h 1 0.4458 
06-Jun-2018_16:10:19 7341 24 male R 3 3 12 self immoralOther J j 1 0.5150 
06-Jun-2018_16:10:21 7341 24 male R 3 3 13 self moralSelf H h 1 0.4700 
06-Jun-2018_16:10:23 7341 24 male R 3 3 14 self moralOther J j 1 0.4309 
06-Jun-2018_16:10:24 7341 24 male R 3 3 15 self moralOther J j 1 0.3228 
06-Jun-2018_16:10:26 7341 24 male R 3 3 16 self moralOther J j 1 0.3383 
06-Jun-2018_16:10:27 7341 24 male R 3 3 17 self immoralSelf H h 1 0.3374 
06-Jun-2018_16:10:29 7341 24 male R 3 3 18 self immoralOther J j 1 0.5234 
06-Jun-2018_16:10:30 7341 24 male R 3 3 19 self immoralSelf H h 1 0.4490 
06-Jun-2018_16:10:32 7341 24 male R 3 3 20 self immoralOther J j 1 0.4755 
06-Jun-2018_16:10:34 7341 24 male R 3 3 21 self immoralSelf H h 1 0.3834 
06-Jun-2018_16:10:35 7341 24 male R 3 3 22 self immoralSelf H h 1 0.3261 
06-Jun-2018_16:10:37 7341 24 male R 3 3 23 self moralOther J j 1 0.5986 
06-Jun-2018_16:10:38 7341 24 male R 3 3 24 self immoralOther J j 1 0.4589 
06-Jun-2018_16:10:40 7341 24 male R 3 4 1 self immoralSelf H h 1 0.5592 
06-Jun-2018_16:10:42 7341 24 male R 3 4 2 self moralSelf H h 1 0.4995 
06-Jun-2018_16:10:43 7341 24 male R 3 4 3 self immoralSelf H h 1 0.4228 
06-Jun-2018_16:10:45 7341 24 male R 3 4 4 self immoralSelf H h 1 0.4633 
06-Jun-2018_16:10:47 7341 24 male R 3 4 5 self moralOther J j 1 0.4323 
06-Jun-2018_16:10:49 7341 24 male R 3 4 6 self immoralOther J j 1 0.6267 
06-Jun-2018_16:10:51 7341 24 male R 3 4 7 self immoralSelf H h 1 0.4038 
06-Jun-2018_16:10:52 7341 24 male R 3 4 8 self moralOther J j 1 0.3483 
06-Jun-2018_16:10:54 7341 24 male R 3 4 9 self immoralOther J j 1 0.6613 
06-Jun-2018_16:10:56 7341 24 male R 3 4 10 self immoralOther J j 1 0.5522 
06-Jun-2018_16:10:58 7341 24 male R 3 4 11 self moralSelf H h 1 0.4398 
06-Jun-2018_16:10:59 7341 24 male R 3 4 12 self moralSelf H h 1 0.6271 
06-Jun-2018_16:11:01 7341 24 male R 3 4 13 self moralOther J j 1 0.5242 
06-Jun-2018_16:11:03 7341 24 male R 3 4 14 self immoralOther J h 0 0.3638 
06-Jun-2018_16:11:05 7341 24 male R 3 4 15 self immoralSelf H h 1 0.5206 
06-Jun-2018_16:11:07 7341 24 male R 3 4 16 self moralSelf H h 1 0.5046 
06-Jun-2018_16:11:08 7341 24 male R 3 4 17 self immoralOther J j 1 0.5052 
06-Jun-2018_16:11:10 7341 24 male R 3 4 18 self moralOther J j 1 0.4474 
06-Jun-2018_16:11:12 7341 24 male R 3 4 19 self moralSelf H h 1 0.4413 
06-Jun-2018_16:11:14 7341 24 male R 3 4 20 self immoralSelf H j 0 0.6423 
06-Jun-2018_16:11:16 7341 24 male R 3 4 21 self moralSelf H h 1 0.4683 
06-Jun-2018_16:11:17 7341 24 male R 3 4 22 self moralOther J j 1 0.4255 
06-Jun-2018_16:11:19 7341 24 male R 3 4 23 self moralOther J j 1 0.4016 
06-Jun-2018_16:11:21 7341 24 male R 3 4 24 self immoralOther J j 1 0.5104 
06-Jun-2018_16:11:32 7341 24 male R 3 5 1 self immoralOther J j 1 0.5456 
06-Jun-2018_16:11:34 7341 24 male R 3 5 2 self immoralSelf H h 1 0.5613 
06-Jun-2018_16:11:36 7341 24 male R 3 5 3 self moralOther J j 1 0.4282 
06-Jun-2018_16:11:37 7341 24 male R 3 5 4 self immoralSelf H h 1 0.5199 
06-Jun-2018_16:11:39 7341 24 male R 3 5 5 self moralSelf H h 1 0.4448 
06-Jun-2018_16:11:41 7341 24 male R 3 5 6 self moralSelf H h 1 0.3328 
06-Jun-2018_16:11:43 7341 24 male R 3 5 7 self moralOther J j 1 0.4373 
06-Jun-2018_16:11:45 7341 24 male R 3 5 8 self immoralSelf H h 1 0.6228 
06-Jun-2018_16:11:46 7341 24 male R 3 5 9 self moralOther J j 1 0.3932 
06-Jun-2018_16:11:48 7341 24 male R 3 5 10 self immoralOther J j 1 0.4545 
06-Jun-2018_16:11:50 7341 24 male R 3 5 11 self immoralOther J j 1 0.3760 
06-Jun-2018_16:11:51 7341 24 male R 3 5 12 self moralOther J j 1 0.3677 
06-Jun-2018_16:11:53 7341 24 male R 3 5 13 self moralSelf H h 1 0.4081 
06-Jun-2018_16:11:55 7341 24 male R 3 5 14 self immoralSelf H h 1 0.8509 
06-Jun-2018_16:11:57 7341 24 male R 3 5 15 self moralSelf H h 1 0.4817 
06-Jun-2018_16:11:58 7341 24 male R 3 5 16 self moralOther J j 1 0.3844 
06-Jun-2018_16:12:00 7341 24 male R 3 5 17 self moralOther J j 1 0.3787 
06-Jun-2018_16:12:02 7341 24 male R 3 5 18 self immoralOther J j 1 0.4951 
06-Jun-2018_16:12:04 7341 24 male R 3 5 19 self moralSelf H h 1 0.3963 
06-Jun-2018_16:12:05 7341 24 male R 3 5 20 self immoralSelf H j 0 0.3404 
06-Jun-2018_16:12:07 7341 24 male R 3 5 21 self immoralOther J j 1 0.5973 
06-Jun-2018_16:12:09 7341 24 male R 3 5 22 self moralSelf H h 1 0.4064 
06-Jun-2018_16:12:10 7341 24 male R 3 5 23 self immoralSelf H h 1 0.4686 
06-Jun-2018_16:12:12 7341 24 male R 3 5 24 self immoralOther J h 0 0.3980 
Date Sub Age Sex Hand Block Bin Trial Task Shape corrResp Resp ACC RT
06-Jun-2018_16:14:26 7341 24 male R 4 1 1 moral moralOther U u 1 0.5048 
06-Jun-2018_16:14:27 7341 24 male R 4 1 2 moral moralOther U u 1 0.3859 
06-Jun-2018_16:14:29 7341 24 male R 4 1 3 moral moralSelf U y 0 0.5630 
06-Jun-2018_16:14:31 7341 24 male R 4 1 4 moral moralSelf U u 1 0.3965 
06-Jun-2018_16:14:33 7341 24 male R 4 1 5 moral moralSelf U u 1 0.3321 
06-Jun-2018_16:14:35 7341 24 male R 4 1 6 moral immoralOther Y y 1 0.5208 
06-Jun-2018_16:14:36 7341 24 male R 4 1 7 moral immoralSelf Y y 1 0.5585 
06-Jun-2018_16:14:38 7341 24 male R 4 1 8 moral immoralSelf Y y 1 0.5364 
06-Jun-2018_16:14:40 7341 24 male R 4 1 9 moral immoralSelf Y y 1 0.3403 
06-Jun-2018_16:14:42 7341 24 male R 4 1 10 moral immoralOther Y y 1 0.5640 
06-Jun-2018_16:14:43 7341 24 male R 4 1 11 moral immoralOther Y y 1 0.3198 
06-Jun-2018_16:14:45 7341 24 male R 4 1 12 moral moralSelf U u 1 0.4836 
06-Jun-2018_16:14:47 7341 24 male R 4 1 13 moral immoralOther Y y 1 0.4502 
06-Jun-2018_16:14:48 7341 24 male R 4 1 14 moral moralSelf U u 1 0.3679 
06-Jun-2018_16:14:50 7341 24 male R 4 1 15 moral moralOther U u 1 0.3567 
06-Jun-2018_16:14:52 7341 24 male R 4 1 16 moral immoralSelf Y y 1 0.4373 
06-Jun-2018_16:14:54 7341 24 male R 4 1 17 moral moralOther U u 1 0.5037 
06-Jun-2018_16:14:55 7341 24 male R 4 1 18 moral immoralOther Y y 1 0.4793 
06-Jun-2018_16:14:57 7341 24 male R 4 1 19 moral moralOther U u 1 0.4271 
06-Jun-2018_16:14:59 7341 24 male R 4 1 20 moral immoralOther Y y 1 0.4629 
06-Jun-2018_16:15:00 7341 24 male R 4 1 21 moral moralSelf U u 1 0.4009 
06-Jun-2018_16:15:02 7341 24 male R 4 1 22 moral immoralSelf Y y 1 0.5976 
06-Jun-2018_16:15:04 7341 24 male R 4 1 23 moral immoralSelf Y y 1 0.4138 
06-Jun-2018_16:15:06 7341 24 male R 4 1 24 moral moralOther U u 1 0.4519 
06-Jun-2018_16:15:07 7341 24 male R 4 2 1 moral immoralOther Y u 0 0.4007 
06-Jun-2018_16:15:09 7341 24 male R 4 2 2 moral immoralOther Y y 1 0.3358 
06-Jun-2018_16:15:11 7341 24 male R 4 2 3 moral moralOther U u 1 0.4724 
06-Jun-2018_16:15:13 7341 24 male R 4 2 4 moral immoralOther Y y 1 0.4038 
06-Jun-2018_16:15:15 7341 24 male R 4 2 5 moral moralOther U u 1 0.5633 
06-Jun-2018_16:15:17 7341 24 male R 4 2 6 moral moralSelf U u 1 0.5178 
06-Jun-2018_16:15:19 7341 24 male R 4 2 7 moral immoralSelf Y y 1 0.4901 
06-Jun-2018_16:15:20 7341 24 male R 4 2 8 moral immoralSelf Y y 1 0.3599 
06-Jun-2018_16:15:22 7341 24 male R 4 2 9 moral immoralSelf Y y 1 0.5852 
06-Jun-2018_16:15:24 7341 24 male R 4 2 10 moral moralSelf U u 1 0.5030 
06-Jun-2018_16:15:25 7341 24 male R 4 2 11 moral moralSelf U u 1 0.4622 
06-Jun-2018_16:15:27 7341 24 male R 4 2 12 moral immoralOther Y y 1 0.4344 
06-Jun-2018_16:15:29 7341 24 male R 4 2 13 moral moralOther U u 1 0.4373 
06-Jun-2018_16:15:31 7341 24 male R 4 2 14 moral immoralSelf Y y 1 0.5381 
06-Jun-2018_16:15:33 7341 24 male R 4 2 15 moral moralOther U u 1 0.4582 
06-Jun-2018_16:15:34 7341 24 male R 4 2 16 moral moralSelf U y 0 0.4064 
06-Jun-2018_16:15:36 7341 24 male R 4 2 17 moral immoralSelf Y y 1 0.4630 
06-Jun-2018_16:15:38 7341 24 male R 4 2 18 moral immoralSelf Y y 1 0.4565 
06-Jun-2018_16:15:39 7341 24 male R 4 2 19 moral moralSelf U u 1 0.4642 
06-Jun-2018_16:15:41 7341 24 male R 4 2 20 moral immoralOther Y y 1 0.5376 
06-Jun-2018_16:15:43 7341 24 male R 4 2 21 moral moralOther U u 1 0.5410 
06-Jun-2018_16:15:44 7341 24 male R 4 2 22 moral immoralOther Y y 1 0.5127 
06-Jun-2018_16:15:46 7341 24 male R 4 2 23 moral moralSelf U u 1 0.3787 
06-Jun-2018_16:15:48 7341 24 male R 4 2 24 moral moralOther U u 1 0.4325 
06-Jun-2018_16:16:05 7341 24 male R 4 3 1 moral immoralSelf Y y 1 0.4688 
06-Jun-2018_16:16:06 7341 24 male R 4 3 2 moral immoralSelf Y y 1 0.3470 
06-Jun-2018_16:16:08 7341 24 male R 4 3 3 moral moralOther U u 1 0.4050 
06-Jun-2018_16:16:10 7341 24 male R 4 3 4 moral moralSelf U u 1 0.3472 
06-Jun-2018_16:16:12 7341 24 male R 4 3 5 moral immoralOther Y y 1 0.4484 
06-Jun-2018_16:16:13 7341 24 male R 4 3 6 moral immoralSelf Y y 1 0.5082 
06-Jun-2018_16:16:15 7341 24 male R 4 3 7 moral moralSelf U u 1 0.3681 
06-Jun-2018_16:16:17 7341 24 male R 4 3 8 moral moralOther U u 1 0.4133 
06-Jun-2018_16:16:19 7341 24 male R 4 3 9 moral immoralOther Y y 1 0.3983 
06-Jun-2018_16:16:20 7341 24 male R 4 3 10 moral moralOther U u 1 0.3311 
06-Jun-2018_16:16:22 7341 24 male R 4 3 11 moral immoralOther Y y 1 0.3905 
06-Jun-2018_16:16:24 7341 24 male R 4 3 12 moral immoralSelf Y u 0 0.3726 
06-Jun-2018_16:16:25 7341 24 male R 4 3 13 moral moralSelf U u 1 0.3576 
06-Jun-2018_16:16:27 7341 24 male R 4 3 14 moral moralSelf U u 1 0.3060 
06-Jun-2018_16:16:28 7341 24 male R 4 3 15 moral moralSelf U u 1 0.3616 
06-Jun-2018_16:16:30 7341 24 male R 4 3 16 moral immoralOther Y y 1 0.3899 
06-Jun-2018_16:16:32 7341 24 male R 4 3 17 moral moralSelf U u 1 0.4511 
06-Jun-2018_16:16:33 7341 24 male R 4 3 18 moral immoralOther Y y 1 0.4266 
06-Jun-2018_16:16:35 7341 24 male R 4 3 19 moral immoralOther Y y 1 0.5124 
06-Jun-2018_16:16:37 7341 24 male R 4 3 20 moral moralOther U u 1 0.4198 
06-Jun-2018_16:16:39 7341 24 male R 4 3 21 moral immoralSelf Y u 0 0.5408 
06-Jun-2018_16:16:41 7341 24 male R 4 3 22 moral immoralSelf Y y 1 0.5286 
06-Jun-2018_16:16:42 7341 24 male R 4 3 23 moral moralOther U u 1 0.4557 
06-Jun-2018_16:16:44 7341 24 male R 4 3 24 moral moralOther U u 1 0.3104 
06-Jun-2018_16:16:45 7341 24 male R 4 4 1 moral moralOther U u 1 0.3382 
06-Jun-2018_16:16:47 7341 24 male R 4 4 2 moral moralSelf U u 1 0.4244 
06-Jun-2018_16:16:49 7341 24 male R 4 4 3 moral moralOther U u 1 0.3408 
06-Jun-2018_16:16:50 7341 24 male R 4 4 4 moral moralSelf U u 1 0.3530 
06-Jun-2018_16:16:52 7341 24 male R 4 4 5 moral immoralOther Y y 1 0.3931 
06-Jun-2018_16:16:53 7341 24 male R 4 4 6 moral moralSelf U u 1 0.4166 
06-Jun-2018_16:16:55 7341 24 male R 4 4 7 moral moralOther U u 1 0.4215 
06-Jun-2018_16:16:57 7341 24 male R 4 4 8 moral immoralOther Y y 1 0.3706 
06-Jun-2018_16:16:59 7341 24 male R 4 4 9 moral moralOther U u 1 0.4154 
06-Jun-2018_16:17:00 7341 24 male R 4 4 10 moral moralSelf U u 1 0.3797 
06-Jun-2018_16:17:02 7341 24 male R 4 4 11 moral moralSelf U u 1 0.4340 
06-Jun-2018_16:17:03 7341 24 male R 4 4 12 moral immoralSelf Y y 1 0.2923 
06-Jun-2018_16:17:05 7341 24 male R 4 4 13 moral moralSelf U u 1 0.4336 
06-Jun-2018_16:17:06 7341 24 male R 4 4 14 moral immoralSelf Y y 1 0.5513 
06-Jun-2018_16:17:08 7341 24 male R 4 4 15 moral immoralSelf Y y 1 0.4835 
06-Jun-2018_16:17:10 7341 24 male R 4 4 16 moral immoralOther Y y 1 0.4742 
06-Jun-2018_16:17:11 7341 24 male R 4 4 17 moral moralOther U u 1 0.3882 
06-Jun-2018_16:17:13 7341 24 male R 4 4 18 moral immoralSelf Y y 1 0.4536 
06-Jun-2018_16:17:15 7341 24 male R 4 4 19 moral immoralOther Y u 0 0.4274 
06-Jun-2018_16:17:16 7341 24 male R 4 4 20 moral immoralSelf Y y 1 0.5333 
06-Jun-2018_16:17:18 7341 24 male R 4 4 21 moral immoralOther Y y 1 0.5197 
06-Jun-2018_16:17:19 7341 24 male R 4 4 22 moral moralOther U y 0 0.3236 
06-Jun-2018_16:17:21 7341 24 male R 4 4 23 moral immoralOther Y y 1 0.4601 
06-Jun-2018_16:17:23 7341 24 male R 4 4 24 moral immoralSelf Y y 1 0.5106 
06-Jun-2018_16:17:30 7341 24 male R 4 5 1 moral moralSelf U u 1 0.7385 
06-Jun-2018_16:17:31 7341 24 male R 4 5 2 moral moralSelf U u 1 0.3711 
06-Jun-2018_16:17:33 7341 24 male R 4 5 3 moral moralOther U u 1 0.4346 
06-Jun-2018_16:17:34 7341 24 male R 4 5 4 moral immoralSelf Y y 1 0.4247 
06-Jun-2018_16:17:36 7341 24 male R 4 5 5 moral moralOther U y 0 0.4239 
06-Jun-2018_16:17:38 7341 24 male R 4 5 6 moral moralSelf U u 1 0.6956 
06-Jun-2018_16:17:40 7341 24 male R 4 5 7 moral moralOther U u 1 0.3262 
06-Jun-2018_16:17:42 7341 24 male R 4 5 8 moral moralSelf U u 1 0.3630 
06-Jun-2018_16:17:43 7341 24 male R 4 5 9 moral immoralSelf Y u 0 0.3730 
06-Jun-2018_16:17:45 7341 24 male R 4 5 10 moral immoralOther Y y 1 0.4403 
06-Jun-2018_16:17:47 7341 24 male R 4 5 11 moral immoralOther Y y 1 0.2592 
06-Jun-2018_16:17:48 7341 24 male R 4 5 12 moral moralOther U u 1 0.5166 
06-Jun-2018_16:17:50 7341 24 male R 4 5 13 moral immoralOther Y y 1 0.3845 
06-Jun-2018_16:17:52 7341 24 male R 4 5 14 moral immoralOther Y y 1 0.3813 
06-Jun-2018_16:17:54 7341 24 male R 4 5 15 moral immoralSelf Y y 1 0.5197 
06-Jun-2018_16:17:55 7341 24 male R 4 5 16 moral immoralOther Y y 1 0.4699 
06-Jun-2018_16:17:57 7341 24 male R 4 5 17 moral immoralSelf Y y 1 0.3787 
06-Jun-2018_16:17:59 7341 24 male R 4 5 18 moral immoralSelf Y y 1 0.4155 
06-Jun-2018_16:18:00 7341 24 male R 4 5 19 moral moralOther U u 1 0.4282 
06-Jun-2018_16:18:02 7341 24 male R 4 5 20 moral immoralOther Y y 1 0.3609 
06-Jun-2018_16:18:04 7341 24 male R 4 5 21 moral moralSelf U u 1 0.4401 
06-Jun-2018_16:18:05 7341 24 male R 4 5 22 moral moralOther U u 1 0.4270 
06-Jun-2018_16:18:07 7341 24 male R 4 5 23 moral moralSelf U u 1 0.4210 
06-Jun-2018_16:18:09 7341 24 male R 4 5 24 moral immoralSelf Y y 1 0.4549 
Date Sub Age Sex Hand Block Bin Trial Task Shape corrResp Resp ACC RT
06-Jun-2018_16:20:41 7341 24 male R 5 1 1 self immoralSelf H h 1 0.5464 
06-Jun-2018_16:20:43 7341 24 male R 5 1 2 self moralSelf H h 1 0.5170 
06-Jun-2018_16:20:44 7341 24 male R 5 1 3 self immoralOther J j 1 0.4389 
06-Jun-2018_16:20:46 7341 24 male R 5 1 4 self moralOther J j 1 0.5170 
06-Jun-2018_16:20:48 7341 24 male R 5 1 5 self moralSelf H h 1 0.3157 
06-Jun-2018_16:20:49 7341 24 male R 5 1 6 self moralSelf H h 1 0.3205 
06-Jun-2018_16:20:51 7341 24 male R 5 1 7 self moralSelf H h 1 0.3060 
06-Jun-2018_16:20:53 7341 24 male R 5 1 8 self immoralSelf H j 0 0.7051 
06-Jun-2018_16:20:55 7341 24 male R 5 1 9 self moralOther J h 0 0.5955 
06-Jun-2018_16:20:57 7341 24 male R 5 1 10 self moralSelf H h 1 0.3985 
06-Jun-2018_16:20:58 7341 24 male R 5 1 11 self immoralOther J j 1 0.4243 
06-Jun-2018_16:21:00 7341 24 male R 5 1 12 self moralOther J j 1 0.5021 
06-Jun-2018_16:21:02 7341 24 male R 5 1 13 self immoralSelf H h 1 0.3054 
06-Jun-2018_16:21:04 7341 24 male R 5 1 14 self immoralOther J j 1 0.5290 
06-Jun-2018_16:21:05 7341 24 male R 5 1 15 self moralOther J j 1 0.4383 
06-Jun-2018_16:21:07 7341 24 male R 5 1 16 self moralOther J j 1 0.3946 
06-Jun-2018_16:21:09 7341 24 male R 5 1 17 self immoralSelf H h 1 0.4596 
06-Jun-2018_16:21:10 7341 24 male R 5 1 18 self immoralOther J j 1 0.4337 
06-Jun-2018_16:21:12 7341 24 male R 5 1 19 self immoralOther J h 0 0.4922 
06-Jun-2018_16:21:14 7341 24 male R 5 1 20 self immoralSelf H h 1 0.5182 
06-Jun-2018_16:21:16 7341 24 male R 5 1 21 self immoralSelf H h 1 0.9831 
06-Jun-2018_16:21:18 7341 24 male R 5 1 22 self moralOther J j 1 0.5131 
06-Jun-2018_16:21:20 7341 24 male R 5 1 23 self moralSelf H j 0 0.4168 
06-Jun-2018_16:21:21 7341 24 male R 5 1 24 self immoralOther J j 1 0.5792 
06-Jun-2018_16:21:23 7341 24 male R 5 2 1 self immoralSelf H h 1 0.6093 
06-Jun-2018_16:21:25 7341 24 male R 5 2 2 self moralSelf H NA -1 1.0841 
06-Jun-2018_16:21:27 7341 24 male R 5 2 3 self moralOther J j 1 0.4415 
06-Jun-2018_16:21:29 7341 24 male R 5 2 4 self immoralOther J j 1 0.4797 
06-Jun-2018_16:21:31 7341 24 male R 5 2 5 self immoralOther J j 1 0.3447 
06-Jun-2018_16:21:32 7341 24 male R 5 2 6 self moralSelf H h 1 0.4826 
06-Jun-2018_16:21:34 7341 24 male R 5 2 7 self moralSelf H h 1 0.4908 
06-Jun-2018_16:21:36 7341 24 male R 5 2 8 self immoralOther J j 1 0.5336 
06-Jun-2018_16:21:38 7341 24 male R 5 2 9 self immoralOther J j 1 0.6843 
06-Jun-2018_16:21:40 7341 24 male R 5 2 10 self immoralSelf H j 0 0.4049 
06-Jun-2018_16:21:41 7341 24 male R 5 2 11 self moralOther J j 1 0.4585 
06-Jun-2018_16:21:44 7341 24 male R 5 2 12 self moralSelf H NA -1 1.0841 
06-Jun-2018_16:21:45 7341 24 male R 5 2 13 self moralOther J j 1 0.5231 
06-Jun-2018_16:21:47 7341 24 male R 5 2 14 self immoralOther J j 1 0.5199 
06-Jun-2018_16:21:49 7341 24 male R 5 2 15 self immoralOther J j 1 0.8070 
06-Jun-2018_16:21:51 7341 24 male R 5 2 16 self immoralSelf H h 1 0.5478 
06-Jun-2018_16:21:53 7341 24 male R 5 2 17 self moralOther J j 1 0.4759 
06-Jun-2018_16:21:54 7341 24 male R 5 2 18 self immoralSelf H h 1 0.4237 
06-Jun-2018_16:21:56 7341 24 male R 5 2 19 self moralSelf H h 1 0.4906 
06-Jun-2018_16:21:58 7341 24 male R 5 2 20 self immoralSelf H h 1 0.7617 
06-Jun-2018_16:22:00 7341 24 male R 5 2 21 self moralOther J j 1 0.6061 
06-Jun-2018_16:22:02 7341 24 male R 5 2 22 self immoralSelf H h 1 0.5911 
06-Jun-2018_16:22:04 7341 24 male R 5 2 23 self moralSelf H h 1 0.5116 
06-Jun-2018_16:22:05 7341 24 male R 5 2 24 self moralOther J j 1 0.4157 
06-Jun-2018_16:22:30 7341 24 male R 5 3 1 self immoralOther J j 1 0.5136 
06-Jun-2018_16:22:31 7341 24 male R 5 3 2 self immoralSelf H h 1 0.4346 
06-Jun-2018_16:22:33 7341 24 male R 5 3 3 self moralOther J j 1 0.4850 
06-Jun-2018_16:22:35 7341 24 male R 5 3 4 self moralSelf H h 1 0.3876 
06-Jun-2018_16:22:37 7341 24 male R 5 3 5 self immoralSelf H h 1 0.4583 
06-Jun-2018_16:22:38 7341 24 male R 5 3 6 self immoralSelf H h 1 0.3120 
06-Jun-2018_16:22:40 7341 24 male R 5 3 7 self moralSelf H h 1 0.5135 
06-Jun-2018_16:22:42 7341 24 male R 5 3 8 self moralOther J j 1 0.4519 
06-Jun-2018_16:22:43 7341 24 male R 5 3 9 self moralOther J j 1 0.2983 
06-Jun-2018_16:22:45 7341 24 male R 5 3 10 self immoralSelf H h 1 0.4474 
06-Jun-2018_16:22:47 7341 24 male R 5 3 11 self immoralSelf H h 1 0.4432 
06-Jun-2018_16:22:48 7341 24 male R 5 3 12 self immoralSelf H h 1 0.3600 
06-Jun-2018_16:22:50 7341 24 male R 5 3 13 self moralOther J j 1 0.3865 
06-Jun-2018_16:22:51 7341 24 male R 5 3 14 self moralSelf H h 1 0.3813 
06-Jun-2018_16:22:53 7341 24 male R 5 3 15 self immoralOther J j 1 0.4614 
06-Jun-2018_16:22:55 7341 24 male R 5 3 16 self moralSelf H h 1 0.4186 
06-Jun-2018_16:22:56 7341 24 male R 5 3 17 self immoralOther J j 1 0.5156 
06-Jun-2018_16:22:58 7341 24 male R 5 3 18 self moralSelf H h 1 0.4333 
06-Jun-2018_16:22:59 7341 24 male R 5 3 19 self moralOther J j 1 0.4574 
06-Jun-2018_16:23:01 7341 24 male R 5 3 20 self moralOther J j 1 0.4014 
06-Jun-2018_16:23:03 7341 24 male R 5 3 21 self moralSelf H h 1 0.4871 
06-Jun-2018_16:23:05 7341 24 male R 5 3 22 self immoralOther J j 1 0.3339 
06-Jun-2018_16:23:06 7341 24 male R 5 3 23 self immoralOther J j 1 0.3847 
06-Jun-2018_16:23:08 7341 24 male R 5 3 24 self immoralOther J j 1 0.3095 
06-Jun-2018_16:23:10 7341 24 male R 5 4 1 self immoralSelf H h 1 0.4455 
06-Jun-2018_16:23:11 7341 24 male R 5 4 2 self moralOther J j 1 0.4837 
06-Jun-2018_16:23:14 7341 24 male R 5 4 3 self immoralOther J j 1 0.7699 
06-Jun-2018_16:23:15 7341 24 male R 5 4 4 self moralSelf H h 1 0.4100 
06-Jun-2018_16:23:17 7341 24 male R 5 4 5 self immoralOther J h 0 0.3376 
06-Jun-2018_16:23:18 7341 24 male R 5 4 6 self moralSelf H h 1 0.4111 
06-Jun-2018_16:23:20 7341 24 male R 5 4 7 self moralSelf H h 1 0.3245 
06-Jun-2018_16:23:22 7341 24 male R 5 4 8 self immoralSelf H h 1 0.5265 
06-Jun-2018_16:23:23 7341 24 male R 5 4 9 self moralSelf H h 1 0.4314 
06-Jun-2018_16:23:25 7341 24 male R 5 4 10 self immoralOther J h 0 0.3586 
06-Jun-2018_16:23:27 7341 24 male R 5 4 11 self moralOther J j 1 0.4598 
06-Jun-2018_16:23:28 7341 24 male R 5 4 12 self moralOther J j 1 0.3874 
06-Jun-2018_16:23:31 7341 24 male R 5 4 13 self immoralSelf H h 1 0.6025 
06-Jun-2018_16:23:32 7341 24 male R 5 4 14 self immoralOther J j 1 0.4285 
06-Jun-2018_16:23:34 7341 24 male R 5 4 15 self immoralSelf H h 1 0.3783 
06-Jun-2018_16:23:36 7341 24 male R 5 4 16 self moralSelf H j 0 0.8160 
06-Jun-2018_16:23:38 7341 24 male R 5 4 17 self moralSelf H h 1 0.4805 
06-Jun-2018_16:23:40 7341 24 male R 5 4 18 self immoralOther J NA -1 1.0841 
06-Jun-2018_16:23:42 7341 24 male R 5 4 19 self immoralOther J j 1 0.6044 
06-Jun-2018_16:23:43 7341 24 male R 5 4 20 self immoralSelf H h 1 0.4939 
06-Jun-2018_16:23:45 7341 24 male R 5 4 21 self moralOther J j 1 0.5005 
06-Jun-2018_16:23:48 7341 24 male R 5 4 22 self moralOther J NA -1 1.0841 
06-Jun-2018_16:23:49 7341 24 male R 5 4 23 self immoralSelf H h 1 0.4569 
06-Jun-2018_16:23:51 7341 24 male R 5 4 24 self moralOther J j 1 0.9037 
06-Jun-2018_16:24:08 7341 24 male R 5 5 1 self immoralSelf H h 1 0.4257 
06-Jun-2018_16:24:10 7341 24 male R 5 5 2 self moralOther J j 1 0.4831 
06-Jun-2018_16:24:11 7341 24 male R 5 5 3 self moralSelf H h 1 0.4272 
06-Jun-2018_16:24:13 7341 24 male R 5 5 4 self immoralSelf H h 1 0.4438 
06-Jun-2018_16:24:15 7341 24 male R 5 5 5 self immoralSelf H h 1 0.5540 
06-Jun-2018_16:24:17 7341 24 male R 5 5 6 self immoralSelf H h 1 0.3780 
06-Jun-2018_16:24:18 7341 24 male R 5 5 7 self immoralOther J j 1 0.4957 
06-Jun-2018_16:24:20 7341 24 male R 5 5 8 self moralSelf H h 1 0.3631 
06-Jun-2018_16:24:22 7341 24 male R 5 5 9 self immoralOther J h 0 0.4860 
06-Jun-2018_16:24:23 7341 24 male R 5 5 10 self immoralSelf H h 1 0.4338 
06-Jun-2018_16:24:25 7341 24 male R 5 5 11 self moralSelf H h 1 0.4852 
06-Jun-2018_16:24:27 7341 24 male R 5 5 12 self immoralOther J j 1 0.2970 
06-Jun-2018_16:24:28 7341 24 male R 5 5 13 self moralSelf H h 1 0.4867 
06-Jun-2018_16:24:30 7341 24 male R 5 5 14 self moralSelf H h 1 0.3663 
06-Jun-2018_16:24:31 7341 24 male R 5 5 15 self moralOther J j 1 0.4417 
06-Jun-2018_16:24:33 7341 24 male R 5 5 16 self immoralOther J j 1 0.5961 
06-Jun-2018_16:24:35 7341 24 male R 5 5 17 self immoralOther J j 1 0.6489 
06-Jun-2018_16:24:37 7341 24 male R 5 5 18 self moralOther J h 0 0.3417 
06-Jun-2018_16:24:38 7341 24 male R 5 5 19 self immoralSelf H h 1 0.4157 
06-Jun-2018_16:24:40 7341 24 male R 5 5 20 self moralOther J j 1 0.4604 
06-Jun-2018_16:24:42 7341 24 male R 5 5 21 self immoralOther J h 0 0.4619 
06-Jun-2018_16:24:44 7341 24 male R 5 5 22 self moralOther J h 0 0.8722 
06-Jun-2018_16:24:46 7341 24 male R 5 5 23 self moralSelf H h 1 0.5194 
06-Jun-2018_16:24:48 7341 24 male R 5 5 24 self moralOther J j 1 0.6987 
Date Sub Age Sex Hand Block Bin Trial Task Shape corrResp Resp ACC RT
06-Jun-2018_16:27:28 7341 24 male R 6 1 1 moral immoralSelf Y y 1 0.4819 
06-Jun-2018_16:27:30 7341 24 male R 6 1 2 moral immoralOther Y y 1 0.5184 
06-Jun-2018_16:27:32 7341 24 male R 6 1 3 moral moralOther U u 1 0.5330 
06-Jun-2018_16:27:34 7341 24 male R 6 1 4 moral immoralSelf Y y 1 0.4348 
06-Jun-2018_16:27:36 7341 24 male R 6 1 5 moral immoralOther Y y 1 0.4202 
06-Jun-2018_16:27:37 7341 24 male R 6 1 6 moral immoralOther Y y 1 0.4509 
06-Jun-2018_16:27:39 7341 24 male R 6 1 7 moral immoralSelf Y y 1 0.4466 
06-Jun-2018_16:27:41 7341 24 male R 6 1 8 moral moralOther U y 0 0.6429 
06-Jun-2018_16:27:43 7341 24 male R 6 1 9 moral immoralSelf Y y 1 0.4294 
06-Jun-2018_16:27:45 7341 24 male R 6 1 10 moral immoralOther Y y 1 0.6173 
06-Jun-2018_16:27:47 7341 24 male R 6 1 11 moral immoralOther Y y 1 0.4036 
06-Jun-2018_16:27:49 7341 24 male R 6 1 12 moral moralOther U u 1 0.6320 
06-Jun-2018_16:27:50 7341 24 male R 6 1 13 moral moralSelf U u 1 0.3831 
06-Jun-2018_16:27:52 7341 24 male R 6 1 14 moral moralSelf U u 1 0.3267 
06-Jun-2018_16:27:53 7341 24 male R 6 1 15 moral moralOther U u 1 0.5659 
06-Jun-2018_16:27:55 7341 24 male R 6 1 16 moral moralSelf U u 1 0.3772 
06-Jun-2018_16:27:57 7341 24 male R 6 1 17 moral moralSelf U u 1 0.2818 
06-Jun-2018_16:27:58 7341 24 male R 6 1 18 moral moralOther U u 1 0.3528 
06-Jun-2018_16:28:00 7341 24 male R 6 1 19 moral moralSelf U u 1 0.2814 
06-Jun-2018_16:28:02 7341 24 male R 6 1 20 moral immoralSelf Y y 1 0.4895 
06-Jun-2018_16:28:03 7341 24 male R 6 1 21 moral moralSelf U u 1 0.4429 
06-Jun-2018_16:28:05 7341 24 male R 6 1 22 moral moralOther U u 1 0.4058 
06-Jun-2018_16:28:07 7341 24 male R 6 1 23 moral immoralSelf Y y 1 0.4191 
06-Jun-2018_16:28:08 7341 24 male R 6 1 24 moral immoralOther Y y 1 0.4624 
06-Jun-2018_16:28:10 7341 24 male R 6 2 1 moral moralOther U u 1 0.4097 
06-Jun-2018_16:28:12 7341 24 male R 6 2 2 moral immoralSelf Y y 1 0.4395 
06-Jun-2018_16:28:14 7341 24 male R 6 2 3 moral immoralOther Y y 1 0.4278 
06-Jun-2018_16:28:15 7341 24 male R 6 2 4 moral moralOther U u 1 0.3426 
06-Jun-2018_16:28:16 7341 24 male R 6 2 5 moral moralOther U u 1 0.3568 
06-Jun-2018_16:28:18 7341 24 male R 6 2 6 moral immoralSelf Y y 1 0.3136 
06-Jun-2018_16:28:20 7341 24 male R 6 2 7 moral moralSelf U u 1 0.3719 
06-Jun-2018_16:28:22 7341 24 male R 6 2 8 moral moralSelf U u 1 0.3199 
06-Jun-2018_16:28:23 7341 24 male R 6 2 9 moral immoralOther Y y 1 0.3924 
06-Jun-2018_16:28:25 7341 24 male R 6 2 10 moral moralSelf U u 1 0.3652 
06-Jun-2018_16:28:26 7341 24 male R 6 2 11 moral immoralSelf Y y 1 0.4382 
06-Jun-2018_16:28:28 7341 24 male R 6 2 12 moral moralSelf U u 1 0.3662 
06-Jun-2018_16:28:29 7341 24 male R 6 2 13 moral moralSelf U u 1 0.3041 
06-Jun-2018_16:28:31 7341 24 male R 6 2 14 moral immoralOther Y u 0 0.4060 
06-Jun-2018_16:28:33 7341 24 male R 6 2 15 moral immoralSelf Y y 1 0.3641 
06-Jun-2018_16:28:35 7341 24 male R 6 2 16 moral immoralOther Y y 1 0.5133 
06-Jun-2018_16:28:37 7341 24 male R 6 2 17 moral moralOther U u 1 0.4273 
06-Jun-2018_16:28:38 7341 24 male R 6 2 18 moral immoralOther Y y 1 0.3366 
06-Jun-2018_16:28:40 7341 24 male R 6 2 19 moral immoralSelf Y y 1 0.4810 
06-Jun-2018_16:28:42 7341 24 male R 6 2 20 moral immoralOther Y y 1 0.4481 
06-Jun-2018_16:28:44 7341 24 male R 6 2 21 moral moralOther U u 1 0.4586 
06-Jun-2018_16:28:45 7341 24 male R 6 2 22 moral immoralSelf Y y 1 0.3396 
06-Jun-2018_16:28:47 7341 24 male R 6 2 23 moral moralSelf U u 1 0.4141 
06-Jun-2018_16:28:49 7341 24 male R 6 2 24 moral moralOther U u 1 0.4899 
06-Jun-2018_16:28:56 7341 24 male R 6 3 1 moral moralOther U u 1 0.4511 
06-Jun-2018_16:28:58 7341 24 male R 6 3 2 moral moralSelf U u 1 0.3490 
06-Jun-2018_16:29:00 7341 24 male R 6 3 3 moral immoralSelf Y y 1 0.3591 
06-Jun-2018_16:29:01 7341 24 male R 6 3 4 moral moralSelf U u 1 0.4508 
06-Jun-2018_16:29:03 7341 24 male R 6 3 5 moral immoralSelf Y y 1 0.4481 
06-Jun-2018_16:29:05 7341 24 male R 6 3 6 moral immoralOther Y y 1 0.4406 
06-Jun-2018_16:29:07 7341 24 male R 6 3 7 moral moralOther U u 1 0.4063 
06-Jun-2018_16:29:09 7341 24 male R 6 3 8 moral moralOther U u 1 0.3377 
06-Jun-2018_16:29:10 7341 24 male R 6 3 9 moral moralSelf U u 1 0.3782 
06-Jun-2018_16:29:12 7341 24 male R 6 3 10 moral immoralOther Y y 1 0.4032 
06-Jun-2018_16:29:14 7341 24 male R 6 3 11 moral moralSelf U u 1 0.3666 
06-Jun-2018_16:29:15 7341 24 male R 6 3 12 moral immoralOther Y y 1 0.4702 
06-Jun-2018_16:29:17 7341 24 male R 6 3 13 moral moralOther U u 1 0.3742 
06-Jun-2018_16:29:18 7341 24 male R 6 3 14 moral immoralOther Y y 1 0.3646 
06-Jun-2018_16:29:20 7341 24 male R 6 3 15 moral moralSelf U u 1 0.3447 
06-Jun-2018_16:29:22 7341 24 male R 6 3 16 moral immoralSelf Y y 1 0.2102 
06-Jun-2018_16:29:23 7341 24 male R 6 3 17 moral immoralSelf Y y 1 0.3011 
06-Jun-2018_16:29:24 7341 24 male R 6 3 18 moral immoralOther Y u 0 0.4367 
06-Jun-2018_16:29:26 7341 24 male R 6 3 19 moral moralOther U u 1 0.4631 
06-Jun-2018_16:29:28 7341 24 male R 6 3 20 moral immoralOther Y y 1 0.3714 
06-Jun-2018_16:29:29 7341 24 male R 6 3 21 moral immoralSelf Y y 1 0.4585 
06-Jun-2018_16:29:31 7341 24 male R 6 3 22 moral moralSelf U u 1 0.4962 
06-Jun-2018_16:29:33 7341 24 male R 6 3 23 moral moralOther U y 0 0.4389 
06-Jun-2018_16:29:35 7341 24 male R 6 3 24 moral immoralSelf Y y 1 0.4654 
06-Jun-2018_16:29:37 7341 24 male R 6 4 1 moral immoralSelf Y y 1 0.4749 
06-Jun-2018_16:29:38 7341 24 male R 6 4 2 moral moralOther U y 0 0.3272 
06-Jun-2018_16:29:40 7341 24 male R 6 4 3 moral moralOther U u 1 0.5187 
06-Jun-2018_16:29:42 7341 24 male R 6 4 4 moral moralSelf U u 1 0.4910 
06-Jun-2018_16:29:43 7341 24 male R 6 4 5 moral moralSelf U u 1 0.3566 
06-Jun-2018_16:29:45 7341 24 male R 6 4 6 moral immoralOther Y y 1 0.4968 
06-Jun-2018_16:29:47 7341 24 male R 6 4 7 moral moralOther U u 1 0.8733 
06-Jun-2018_16:29:49 7341 24 male R 6 4 8 moral moralOther U u 1 0.3811 
06-Jun-2018_16:29:51 7341 24 male R 6 4 9 moral immoralSelf Y y 1 0.3756 
06-Jun-2018_16:29:52 7341 24 male R 6 4 10 moral moralOther U u 1 0.6674 
06-Jun-2018_16:29:54 7341 24 male R 6 4 11 moral moralSelf U u 1 0.5983 
06-Jun-2018_16:29:56 7341 24 male R 6 4 12 moral moralOther U u 1 0.4864 
06-Jun-2018_16:29:57 7341 24 male R 6 4 13 moral moralSelf U u 1 0.3553 
06-Jun-2018_16:29:59 7341 24 male R 6 4 14 moral immoralOther Y y 1 0.4691 
06-Jun-2018_16:30:01 7341 24 male R 6 4 15 moral immoralSelf Y y 1 0.5492 
06-Jun-2018_16:30:02 7341 24 male R 6 4 16 moral immoralSelf Y y 1 0.3177 
06-Jun-2018_16:30:04 7341 24 male R 6 4 17 moral immoralSelf Y y 1 0.3446 
06-Jun-2018_16:30:06 7341 24 male R 6 4 18 moral moralSelf U u 1 0.5700 
06-Jun-2018_16:30:08 7341 24 male R 6 4 19 moral immoralOther Y y 1 0.6224 
06-Jun-2018_16:30:10 7341 24 male R 6 4 20 moral moralSelf U NA -1 1.0841 
06-Jun-2018_16:30:12 7341 24 male R 6 4 21 moral immoralSelf Y y 1 0.4526 
06-Jun-2018_16:30:14 7341 24 male R 6 4 22 moral immoralOther Y y 1 0.9482 
06-Jun-2018_16:30:17 7341 24 male R 6 4 23 moral immoralOther Y NA -1 1.0841 
06-Jun-2018_16:30:19 7341 24 male R 6 4 24 moral immoralOther Y y 1 0.3268 
06-Jun-2018_16:30:23 7341 24 male R 6 5 1 moral moralSelf U u 1 0.5364 
06-Jun-2018_16:30:25 7341 24 male R 6 5 2 moral moralSelf U u 1 0.3115 
06-Jun-2018_16:30:26 7341 24 male R 6 5 3 moral moralSelf U u 1 0.3182 
06-Jun-2018_16:30:28 7341 24 male R 6 5 4 moral moralOther U y 0 0.4448 
06-Jun-2018_16:30:30 7341 24 male R 6 5 5 moral immoralOther Y y 1 0.4971 
06-Jun-2018_16:30:32 7341 24 male R 6 5 6 moral immoralOther Y y 1 0.4440 
06-Jun-2018_16:30:34 7341 24 male R 6 5 7 moral moralOther U u 1 0.4652 
06-Jun-2018_16:30:35 7341 24 male R 6 5 8 moral moralSelf U u 1 0.3928 
06-Jun-2018_16:30:37 7341 24 male R 6 5 9 moral immoralSelf Y y 1 0.4790 
06-Jun-2018_16:30:39 7341 24 male R 6 5 10 moral immoralOther Y y 1 0.5737 
06-Jun-2018_16:30:40 7341 24 male R 6 5 11 moral immoralOther Y y 1 0.3521 
06-Jun-2018_16:30:42 7341 24 male R 6 5 12 moral moralSelf U u 1 0.4016 
06-Jun-2018_16:30:44 7341 24 male R 6 5 13 moral immoralSelf Y y 1 0.4205 
06-Jun-2018_16:30:45 7341 24 male R 6 5 14 moral immoralOther Y y 1 0.3849 
06-Jun-2018_16:30:47 7341 24 male R 6 5 15 moral immoralSelf Y y 1 0.4987 
06-Jun-2018_16:30:49 7341 24 male R 6 5 16 moral moralOther U u 1 0.4861 
06-Jun-2018_16:30:51 7341 24 male R 6 5 17 moral moralSelf U u 1 0.6937 
06-Jun-2018_16:30:53 7341 24 male R 6 5 18 moral moralOther U NA -1 1.0841 
06-Jun-2018_16:30:55 7341 24 male R 6 5 19 moral immoralOther Y y 1 0.4957 
06-Jun-2018_16:30:57 7341 24 male R 6 5 20 moral immoralSelf Y y 1 0.4521 
06-Jun-2018_16:30:58 7341 24 male R 6 5 21 moral immoralSelf Y y 1 0.4046 
06-Jun-2018_16:31:00 7341 24 male R 6 5 22 moral immoralSelf Y y 1 0.4329 
06-Jun-2018_16:31:02 7341 24 male R 6 5 23 moral moralOther U u 1 0.5266 
06-Jun-2018_16:31:04 7341 24 male R 6 5 24 moral moralOther U u 1 0.4147 
