Date Sub Age Sex Hand Block Bin Trial Task Shape corrResp Resp ACC RT
12-May-2018_16:19:50 7311 20 2 R 1 1 1 moral moralSelf U u 1 0.9185 
12-May-2018_16:19:52 7311 20 2 R 1 1 2 moral immoralOther Y u 0 0.7578 
12-May-2018_16:19:54 7311 20 2 R 1 1 3 moral immoralSelf Y y 1 0.4017 
12-May-2018_16:19:56 7311 20 2 R 1 1 4 moral moralOther U NA -1 1.0841 
12-May-2018_16:19:59 7311 20 2 R 1 1 5 moral moralSelf U NA -1 1.0841 
12-May-2018_16:20:01 7311 20 2 R 1 1 6 moral immoralSelf Y y 1 0.8005 
12-May-2018_16:20:04 7311 20 2 R 1 1 7 moral moralSelf U u 1 1.0622 
12-May-2018_16:20:06 7311 20 2 R 1 1 8 moral immoralSelf Y NA -1 1.0841 
12-May-2018_16:20:08 7311 20 2 R 1 1 9 moral immoralOther Y NA -1 1.0841 
12-May-2018_16:20:10 7311 20 2 R 1 1 10 moral immoralOther Y y 1 0.4992 
12-May-2018_16:20:11 7311 20 2 R 1 1 11 moral immoralSelf Y u 0 0.4542 
12-May-2018_16:20:14 7311 20 2 R 1 1 12 moral immoralOther Y y 1 0.7713 
12-May-2018_16:20:15 7311 20 2 R 1 1 13 moral immoralOther Y y 1 0.3535 
12-May-2018_16:20:17 7311 20 2 R 1 1 14 moral moralOther U u 1 0.4223 
12-May-2018_16:20:19 7311 20 2 R 1 1 15 moral moralOther U u 1 0.3513 
12-May-2018_16:20:21 7311 20 2 R 1 1 16 moral moralSelf U u 1 0.6917 
12-May-2018_16:20:23 7311 20 2 R 1 1 17 moral moralOther U u 1 0.7373 
12-May-2018_16:20:25 7311 20 2 R 1 1 18 moral moralOther U u 1 0.3685 
12-May-2018_16:20:27 7311 20 2 R 1 1 19 moral immoralSelf Y y 1 0.4777 
12-May-2018_16:20:29 7311 20 2 R 1 1 20 moral moralOther U u 1 0.5013 
12-May-2018_16:20:30 7311 20 2 R 1 1 21 moral moralSelf U u 1 0.4723 
12-May-2018_16:20:32 7311 20 2 R 1 1 22 moral immoralOther Y y 1 0.5900 
12-May-2018_16:20:34 7311 20 2 R 1 1 23 moral immoralSelf Y y 1 0.5665 
12-May-2018_16:20:36 7311 20 2 R 1 1 24 moral moralSelf U u 1 0.5167 
12-May-2018_16:20:38 7311 20 2 R 1 2 1 moral immoralOther Y y 1 0.4833 
12-May-2018_16:20:39 7311 20 2 R 1 2 2 moral immoralOther Y y 1 0.4618 
12-May-2018_16:20:41 7311 20 2 R 1 2 3 moral moralOther U u 1 0.4374 
12-May-2018_16:20:43 7311 20 2 R 1 2 4 moral immoralOther Y y 1 0.4962 
12-May-2018_16:20:45 7311 20 2 R 1 2 5 moral immoralSelf Y y 1 0.6337 
12-May-2018_16:20:46 7311 20 2 R 1 2 6 moral moralOther U u 1 0.3675 
12-May-2018_16:20:48 7311 20 2 R 1 2 7 moral moralSelf U u 1 0.4702 
12-May-2018_16:20:50 7311 20 2 R 1 2 8 moral moralOther U u 1 0.3968 
12-May-2018_16:20:52 7311 20 2 R 1 2 9 moral immoralSelf Y y 1 0.4844 
12-May-2018_16:20:53 7311 20 2 R 1 2 10 moral moralSelf U u 1 0.4186 
12-May-2018_16:20:55 7311 20 2 R 1 2 11 moral moralOther U u 1 0.4140 
12-May-2018_16:20:57 7311 20 2 R 1 2 12 moral immoralSelf Y y 1 0.4710 
12-May-2018_16:20:58 7311 20 2 R 1 2 13 moral immoralSelf Y y 1 0.3491 
12-May-2018_16:21:00 7311 20 2 R 1 2 14 moral moralSelf U u 1 0.4174 
12-May-2018_16:21:02 7311 20 2 R 1 2 15 moral moralSelf U u 1 0.4542 
12-May-2018_16:21:03 7311 20 2 R 1 2 16 moral immoralOther Y y 1 0.5347 
12-May-2018_16:21:05 7311 20 2 R 1 2 17 moral immoralOther Y y 1 0.4162 
12-May-2018_16:21:07 7311 20 2 R 1 2 18 moral immoralOther Y y 1 0.3522 
12-May-2018_16:21:08 7311 20 2 R 1 2 19 moral moralSelf U u 1 0.4474 
12-May-2018_16:21:10 7311 20 2 R 1 2 20 moral moralSelf U u 1 0.2702 
12-May-2018_16:21:12 7311 20 2 R 1 2 21 moral immoralSelf Y y 1 0.5054 
12-May-2018_16:21:13 7311 20 2 R 1 2 22 moral moralOther U u 1 0.3958 
12-May-2018_16:21:15 7311 20 2 R 1 2 23 moral immoralSelf Y y 1 0.4760 
12-May-2018_16:21:17 7311 20 2 R 1 2 24 moral moralOther U u 1 0.3668 
12-May-2018_16:21:29 7311 20 2 R 1 3 1 moral immoralSelf Y y 1 0.4406 
12-May-2018_16:21:31 7311 20 2 R 1 3 2 moral moralOther U u 1 0.3025 
12-May-2018_16:21:32 7311 20 2 R 1 3 3 moral moralOther U u 1 0.3336 
12-May-2018_16:21:34 7311 20 2 R 1 3 4 moral immoralOther Y y 1 0.4851 
12-May-2018_16:21:35 7311 20 2 R 1 3 5 moral moralSelf U u 1 0.3275 
12-May-2018_16:21:37 7311 20 2 R 1 3 6 moral immoralSelf Y y 1 0.3186 
12-May-2018_16:21:39 7311 20 2 R 1 3 7 moral moralOther U u 1 0.2933 
12-May-2018_16:21:40 7311 20 2 R 1 3 8 moral moralOther U u 1 0.2896 
12-May-2018_16:21:42 7311 20 2 R 1 3 9 moral moralSelf U u 1 0.4158 
12-May-2018_16:21:44 7311 20 2 R 1 3 10 moral immoralOther Y y 1 0.4093 
12-May-2018_16:21:45 7311 20 2 R 1 3 11 moral moralSelf U u 1 0.3312 
12-May-2018_16:21:47 7311 20 2 R 1 3 12 moral moralOther U u 1 0.3521 
12-May-2018_16:21:49 7311 20 2 R 1 3 13 moral immoralOther Y y 1 0.4579 
12-May-2018_16:21:50 7311 20 2 R 1 3 14 moral immoralSelf Y y 1 0.2523 
12-May-2018_16:21:52 7311 20 2 R 1 3 15 moral immoralSelf Y y 1 0.3475 
12-May-2018_16:21:54 7311 20 2 R 1 3 16 moral moralSelf U u 1 0.3758 
12-May-2018_16:21:55 7311 20 2 R 1 3 17 moral moralOther U u 1 0.3216 
12-May-2018_16:21:57 7311 20 2 R 1 3 18 moral moralSelf U u 1 0.4206 
12-May-2018_16:21:59 7311 20 2 R 1 3 19 moral immoralOther Y y 1 0.3788 
12-May-2018_16:22:00 7311 20 2 R 1 3 20 moral immoralOther Y y 1 0.4047 
12-May-2018_16:22:02 7311 20 2 R 1 3 21 moral immoralSelf Y y 1 0.4976 
12-May-2018_16:22:04 7311 20 2 R 1 3 22 moral immoralSelf Y y 1 0.3479 
12-May-2018_16:22:06 7311 20 2 R 1 3 23 moral immoralOther Y u 0 0.4008 
12-May-2018_16:22:07 7311 20 2 R 1 3 24 moral moralSelf U u 1 0.4191 
12-May-2018_16:22:09 7311 20 2 R 1 4 1 moral immoralSelf Y y 1 0.3548 
12-May-2018_16:22:10 7311 20 2 R 1 4 2 moral moralOther U u 1 0.3747 
12-May-2018_16:22:12 7311 20 2 R 1 4 3 moral moralOther U u 1 0.3327 
12-May-2018_16:22:13 7311 20 2 R 1 4 4 moral immoralOther Y y 1 0.3281 
12-May-2018_16:22:15 7311 20 2 R 1 4 5 moral immoralSelf Y y 1 0.5192 
12-May-2018_16:22:17 7311 20 2 R 1 4 6 moral moralSelf U u 1 0.3225 
12-May-2018_16:22:18 7311 20 2 R 1 4 7 moral immoralOther Y y 1 0.3899 
12-May-2018_16:22:20 7311 20 2 R 1 4 8 moral moralOther U u 1 0.2648 
12-May-2018_16:22:21 7311 20 2 R 1 4 9 moral moralOther U u 1 0.3312 
12-May-2018_16:22:23 7311 20 2 R 1 4 10 moral moralOther U u 1 0.2922 
12-May-2018_16:22:24 7311 20 2 R 1 4 11 moral immoralOther Y y 1 0.3280 
12-May-2018_16:22:26 7311 20 2 R 1 4 12 moral moralSelf U u 1 0.4001 
12-May-2018_16:22:28 7311 20 2 R 1 4 13 moral moralSelf U u 1 0.3113 
12-May-2018_16:22:29 7311 20 2 R 1 4 14 moral moralSelf U u 1 0.2798 
12-May-2018_16:22:31 7311 20 2 R 1 4 15 moral immoralOther Y y 1 0.3744 
12-May-2018_16:22:32 7311 20 2 R 1 4 16 moral immoralOther Y y 1 0.4468 
12-May-2018_16:22:33 7311 20 2 R 1 4 17 moral moralOther U u 1 0.3378 
12-May-2018_16:22:35 7311 20 2 R 1 4 18 moral immoralOther Y y 1 0.3529 
12-May-2018_16:22:37 7311 20 2 R 1 4 19 moral immoralSelf Y y 1 0.3968 
12-May-2018_16:22:39 7311 20 2 R 1 4 20 moral moralSelf U u 1 0.3775 
12-May-2018_16:22:40 7311 20 2 R 1 4 21 moral moralSelf U u 1 0.3154 
12-May-2018_16:22:42 7311 20 2 R 1 4 22 moral immoralSelf Y y 1 0.3753 
12-May-2018_16:22:43 7311 20 2 R 1 4 23 moral immoralSelf Y y 1 0.3038 
12-May-2018_16:22:45 7311 20 2 R 1 4 24 moral immoralSelf Y y 1 0.3792 
12-May-2018_16:22:56 7311 20 2 R 1 5 1 moral immoralOther Y y 1 0.4111 
12-May-2018_16:22:57 7311 20 2 R 1 5 2 moral immoralOther Y y 1 0.3002 
12-May-2018_16:22:59 7311 20 2 R 1 5 3 moral moralSelf U y 0 0.2748 
12-May-2018_16:23:00 7311 20 2 R 1 5 4 moral moralSelf U u 1 0.2979 
12-May-2018_16:23:02 7311 20 2 R 1 5 5 moral moralSelf U u 1 0.2698 
12-May-2018_16:23:04 7311 20 2 R 1 5 6 moral moralOther U u 1 0.4543 
12-May-2018_16:23:05 7311 20 2 R 1 5 7 moral immoralOther Y y 1 0.3833 
12-May-2018_16:23:07 7311 20 2 R 1 5 8 moral moralSelf U u 1 0.3814 
12-May-2018_16:23:09 7311 20 2 R 1 5 9 moral immoralOther Y y 1 0.3792 
12-May-2018_16:23:10 7311 20 2 R 1 5 10 moral moralSelf U u 1 0.2758 
12-May-2018_16:23:12 7311 20 2 R 1 5 11 moral moralOther U u 1 0.4015 
12-May-2018_16:23:13 7311 20 2 R 1 5 12 moral moralOther U u 1 0.3229 
12-May-2018_16:23:15 7311 20 2 R 1 5 13 moral immoralSelf Y u 0 0.3380 
12-May-2018_16:23:16 7311 20 2 R 1 5 14 moral immoralSelf Y y 1 0.3682 
12-May-2018_16:23:18 7311 20 2 R 1 5 15 moral immoralSelf Y y 1 0.3838 
12-May-2018_16:23:20 7311 20 2 R 1 5 16 moral immoralSelf Y y 1 0.3002 
12-May-2018_16:23:21 7311 20 2 R 1 5 17 moral moralSelf U u 1 0.2982 
12-May-2018_16:23:23 7311 20 2 R 1 5 18 moral moralOther U u 1 0.3445 
12-May-2018_16:23:24 7311 20 2 R 1 5 19 moral immoralSelf Y y 1 0.3111 
12-May-2018_16:23:26 7311 20 2 R 1 5 20 moral immoralSelf Y y 1 0.4269 
12-May-2018_16:23:27 7311 20 2 R 1 5 21 moral moralOther U u 1 0.4062 
12-May-2018_16:23:29 7311 20 2 R 1 5 22 moral immoralOther Y y 1 0.4115 
12-May-2018_16:23:30 7311 20 2 R 1 5 23 moral moralOther U u 1 0.3123 
12-May-2018_16:23:32 7311 20 2 R 1 5 24 moral immoralOther Y y 1 0.3772 
Date Sub Age Sex Hand Block Bin Trial Task Shape corrResp Resp ACC RT
12-May-2018_16:25:51 7311 20 2 R 2 1 1 self immoralSelf J j 1 0.4094 
12-May-2018_16:25:53 7311 20 2 R 2 1 2 self immoralOther H h 1 0.5207 
12-May-2018_16:25:55 7311 20 2 R 2 1 3 self immoralOther H h 1 0.5377 
12-May-2018_16:25:57 7311 20 2 R 2 1 4 self immoralSelf J j 1 0.2851 
12-May-2018_16:25:59 7311 20 2 R 2 1 5 self moralOther H j 0 0.7166 
12-May-2018_16:26:00 7311 20 2 R 2 1 6 self moralOther H h 1 0.4757 
12-May-2018_16:26:02 7311 20 2 R 2 1 7 self moralOther H h 1 0.3987 
12-May-2018_16:26:04 7311 20 2 R 2 1 8 self moralSelf J j 1 0.4939 
12-May-2018_16:26:06 7311 20 2 R 2 1 9 self moralSelf J j 1 0.4755 
12-May-2018_16:26:07 7311 20 2 R 2 1 10 self moralSelf J j 1 0.3156 
12-May-2018_16:26:09 7311 20 2 R 2 1 11 self immoralSelf J j 1 0.3839 
12-May-2018_16:26:11 7311 20 2 R 2 1 12 self immoralOther H h 1 0.4979 
12-May-2018_16:26:12 7311 20 2 R 2 1 13 self immoralOther H h 1 0.3582 
12-May-2018_16:26:14 7311 20 2 R 2 1 14 self moralOther H j 0 0.4631 
12-May-2018_16:26:15 7311 20 2 R 2 1 15 self moralOther H h 1 0.3936 
12-May-2018_16:26:17 7311 20 2 R 2 1 16 self moralSelf J h 0 0.3443 
12-May-2018_16:26:19 7311 20 2 R 2 1 17 self moralSelf J j 1 0.4841 
12-May-2018_16:26:21 7311 20 2 R 2 1 18 self moralOther H h 1 0.6352 
12-May-2018_16:26:23 7311 20 2 R 2 1 19 self immoralSelf J j 1 0.2913 
12-May-2018_16:26:24 7311 20 2 R 2 1 20 self immoralOther H h 1 0.5167 
12-May-2018_16:26:26 7311 20 2 R 2 1 21 self immoralOther H h 1 0.3737 
12-May-2018_16:26:28 7311 20 2 R 2 1 22 self immoralSelf J j 1 0.3715 
12-May-2018_16:26:29 7311 20 2 R 2 1 23 self immoralSelf J j 1 0.3834 
12-May-2018_16:26:31 7311 20 2 R 2 1 24 self moralSelf J j 1 0.2911 
12-May-2018_16:26:33 7311 20 2 R 2 2 1 self immoralSelf J j 1 0.3552 
12-May-2018_16:26:34 7311 20 2 R 2 2 2 self moralSelf J j 1 0.5492 
12-May-2018_16:26:36 7311 20 2 R 2 2 3 self moralOther H h 1 0.4852 
12-May-2018_16:26:38 7311 20 2 R 2 2 4 self moralSelf J j 1 0.5195 
12-May-2018_16:26:40 7311 20 2 R 2 2 5 self moralSelf J j 1 0.2962 
12-May-2018_16:26:41 7311 20 2 R 2 2 6 self immoralSelf J j 1 0.3039 
12-May-2018_16:26:43 7311 20 2 R 2 2 7 self moralSelf J j 1 0.4709 
12-May-2018_16:26:45 7311 20 2 R 2 2 8 self immoralOther H h 1 0.4306 
12-May-2018_16:26:46 7311 20 2 R 2 2 9 self immoralSelf J j 1 0.3902 
12-May-2018_16:26:48 7311 20 2 R 2 2 10 self moralOther H h 1 0.5944 
12-May-2018_16:26:50 7311 20 2 R 2 2 11 self immoralOther H h 1 0.6523 
12-May-2018_16:26:51 7311 20 2 R 2 2 12 self immoralSelf J j 1 0.3141 
12-May-2018_16:26:53 7311 20 2 R 2 2 13 self immoralSelf J j 1 0.3085 
12-May-2018_16:26:55 7311 20 2 R 2 2 14 self immoralOther H h 1 0.3231 
12-May-2018_16:26:56 7311 20 2 R 2 2 15 self moralOther H j 0 0.4605 
12-May-2018_16:26:58 7311 20 2 R 2 2 16 self moralSelf J j 1 0.4762 
12-May-2018_16:27:00 7311 20 2 R 2 2 17 self immoralOther H h 1 0.5092 
12-May-2018_16:27:01 7311 20 2 R 2 2 18 self immoralOther H h 1 0.3930 
12-May-2018_16:27:03 7311 20 2 R 2 2 19 self immoralOther H h 1 0.3559 
12-May-2018_16:27:05 7311 20 2 R 2 2 20 self moralOther H j 0 0.5650 
12-May-2018_16:27:06 7311 20 2 R 2 2 21 self immoralSelf J j 1 0.3462 
12-May-2018_16:27:08 7311 20 2 R 2 2 22 self moralSelf J j 1 0.4427 
12-May-2018_16:27:10 7311 20 2 R 2 2 23 self moralOther H h 1 0.4725 
12-May-2018_16:27:11 7311 20 2 R 2 2 24 self moralOther H h 1 0.4193 
12-May-2018_16:27:17 7311 20 2 R 2 3 1 self moralSelf J j 1 0.4661 
12-May-2018_16:27:19 7311 20 2 R 2 3 2 self immoralSelf J j 1 0.4276 
12-May-2018_16:27:21 7311 20 2 R 2 3 3 self immoralOther H h 1 0.3326 
12-May-2018_16:27:22 7311 20 2 R 2 3 4 self immoralOther H h 1 0.3548 
12-May-2018_16:27:24 7311 20 2 R 2 3 5 self immoralSelf J j 1 0.4071 
12-May-2018_16:27:25 7311 20 2 R 2 3 6 self moralOther H j 0 0.2994 
12-May-2018_16:27:27 7311 20 2 R 2 3 7 self moralSelf J j 1 0.3851 
12-May-2018_16:27:29 7311 20 2 R 2 3 8 self moralSelf J j 1 0.4459 
12-May-2018_16:27:31 7311 20 2 R 2 3 9 self immoralOther H h 1 0.4610 
12-May-2018_16:27:32 7311 20 2 R 2 3 10 self moralSelf J j 1 0.4116 
12-May-2018_16:27:34 7311 20 2 R 2 3 11 self immoralOther H h 1 0.5021 
12-May-2018_16:27:36 7311 20 2 R 2 3 12 self moralOther H j 0 0.4485 
12-May-2018_16:27:37 7311 20 2 R 2 3 13 self immoralSelf J j 1 0.3092 
12-May-2018_16:27:39 7311 20 2 R 2 3 14 self moralOther H h 1 0.5761 
12-May-2018_16:27:41 7311 20 2 R 2 3 15 self immoralSelf J j 1 0.3014 
12-May-2018_16:27:42 7311 20 2 R 2 3 16 self moralOther H h 1 0.4394 
12-May-2018_16:27:44 7311 20 2 R 2 3 17 self moralOther H h 1 0.5820 
12-May-2018_16:27:46 7311 20 2 R 2 3 18 self immoralSelf J j 1 0.4038 
12-May-2018_16:27:48 7311 20 2 R 2 3 19 self moralSelf J j 1 0.5289 
12-May-2018_16:27:50 7311 20 2 R 2 3 20 self immoralOther H h 1 0.4810 
12-May-2018_16:27:51 7311 20 2 R 2 3 21 self immoralOther H h 1 0.4208 
12-May-2018_16:27:53 7311 20 2 R 2 3 22 self immoralSelf J j 1 0.4501 
12-May-2018_16:27:55 7311 20 2 R 2 3 23 self moralSelf J j 1 0.2851 
12-May-2018_16:27:57 7311 20 2 R 2 3 24 self moralOther H h 1 0.4060 
12-May-2018_16:27:58 7311 20 2 R 2 4 1 self moralSelf J j 1 0.4422 
12-May-2018_16:28:00 7311 20 2 R 2 4 2 self moralSelf J j 1 0.4721 
12-May-2018_16:28:02 7311 20 2 R 2 4 3 self moralSelf J j 1 0.4044 
12-May-2018_16:28:03 7311 20 2 R 2 4 4 self moralOther H h 1 0.3964 
12-May-2018_16:28:05 7311 20 2 R 2 4 5 self immoralOther H h 1 0.4191 
12-May-2018_16:28:06 7311 20 2 R 2 4 6 self immoralSelf J j 1 0.4172 
12-May-2018_16:28:08 7311 20 2 R 2 4 7 self immoralSelf J j 1 0.3567 
12-May-2018_16:28:09 7311 20 2 R 2 4 8 self immoralOther H h 1 0.3821 
12-May-2018_16:28:11 7311 20 2 R 2 4 9 self immoralSelf J j 1 0.4518 
12-May-2018_16:28:13 7311 20 2 R 2 4 10 self moralOther H h 1 0.3643 
12-May-2018_16:28:14 7311 20 2 R 2 4 11 self moralOther H h 1 0.4448 
12-May-2018_16:28:16 7311 20 2 R 2 4 12 self moralOther H h 1 0.3667 
12-May-2018_16:28:17 7311 20 2 R 2 4 13 self immoralSelf J j 1 0.3423 
12-May-2018_16:28:19 7311 20 2 R 2 4 14 self immoralSelf J j 1 0.3434 
12-May-2018_16:28:21 7311 20 2 R 2 4 15 self moralOther H h 1 0.2840 
12-May-2018_16:28:23 7311 20 2 R 2 4 16 self immoralSelf J j 1 0.3101 
12-May-2018_16:28:24 7311 20 2 R 2 4 17 self immoralOther H h 1 0.3050 
12-May-2018_16:28:26 7311 20 2 R 2 4 18 self immoralOther H h 1 0.3535 
12-May-2018_16:28:27 7311 20 2 R 2 4 19 self immoralOther H h 1 0.3047 
12-May-2018_16:28:29 7311 20 2 R 2 4 20 self moralSelf J j 1 0.4158 
12-May-2018_16:28:31 7311 20 2 R 2 4 21 self moralSelf J h 0 0.2761 
12-May-2018_16:28:33 7311 20 2 R 2 4 22 self moralSelf J j 1 0.3825 
12-May-2018_16:28:34 7311 20 2 R 2 4 23 self moralOther H h 1 0.3266 
12-May-2018_16:28:36 7311 20 2 R 2 4 24 self immoralOther H h 1 0.3864 
12-May-2018_16:28:49 7311 20 2 R 2 5 1 self moralOther H h 1 0.5281 
12-May-2018_16:28:51 7311 20 2 R 2 5 2 self moralSelf J j 1 0.4585 
12-May-2018_16:28:53 7311 20 2 R 2 5 3 self immoralSelf J j 1 0.7438 
12-May-2018_16:28:55 7311 20 2 R 2 5 4 self moralOther H h 1 0.3994 
12-May-2018_16:28:56 7311 20 2 R 2 5 5 self immoralOther H h 1 0.4681 
12-May-2018_16:28:58 7311 20 2 R 2 5 6 self moralSelf J j 1 0.4903 
12-May-2018_16:28:59 7311 20 2 R 2 5 7 self immoralOther H h 1 0.4288 
12-May-2018_16:29:01 7311 20 2 R 2 5 8 self immoralOther H h 1 0.3384 
12-May-2018_16:29:02 7311 20 2 R 2 5 9 self moralOther H h 1 0.3314 
12-May-2018_16:29:04 7311 20 2 R 2 5 10 self immoralSelf J j 1 0.4407 
12-May-2018_16:29:06 7311 20 2 R 2 5 11 self moralSelf J j 1 0.4223 
12-May-2018_16:29:08 7311 20 2 R 2 5 12 self immoralOther H h 1 0.3439 
12-May-2018_16:29:09 7311 20 2 R 2 5 13 self immoralSelf J j 1 0.3007 
12-May-2018_16:29:11 7311 20 2 R 2 5 14 self immoralSelf J j 1 0.4278 
12-May-2018_16:29:12 7311 20 2 R 2 5 15 self moralOther H h 1 0.4547 
12-May-2018_16:29:14 7311 20 2 R 2 5 16 self moralOther H h 1 0.4302 
12-May-2018_16:29:16 7311 20 2 R 2 5 17 self immoralSelf J j 1 0.3724 
12-May-2018_16:29:18 7311 20 2 R 2 5 18 self moralSelf J j 1 0.4078 
12-May-2018_16:29:19 7311 20 2 R 2 5 19 self immoralOther H h 1 0.3957 
12-May-2018_16:29:21 7311 20 2 R 2 5 20 self moralSelf J j 1 0.3443 
12-May-2018_16:29:23 7311 20 2 R 2 5 21 self moralSelf J j 1 0.4258 
12-May-2018_16:29:24 7311 20 2 R 2 5 22 self moralOther H h 1 0.3879 
12-May-2018_16:29:26 7311 20 2 R 2 5 23 self immoralSelf J j 1 0.3215 
12-May-2018_16:29:28 7311 20 2 R 2 5 24 self immoralOther H h 1 0.3715 
Date Sub Age Sex Hand Block Bin Trial Task Shape corrResp Resp ACC RT
12-May-2018_16:31:36 7311 20 2 R 3 1 1 self moralOther H h 1 0.4536 
12-May-2018_16:31:38 7311 20 2 R 3 1 2 self immoralSelf J j 1 0.4325 
12-May-2018_16:31:39 7311 20 2 R 3 1 3 self moralSelf J j 1 0.3540 
12-May-2018_16:31:41 7311 20 2 R 3 1 4 self immoralOther H h 1 0.4989 
12-May-2018_16:31:43 7311 20 2 R 3 1 5 self moralOther H j 0 0.6021 
12-May-2018_16:31:45 7311 20 2 R 3 1 6 self immoralOther H h 1 0.5486 
12-May-2018_16:31:46 7311 20 2 R 3 1 7 self immoralSelf J j 1 0.2832 
12-May-2018_16:31:48 7311 20 2 R 3 1 8 self moralOther H h 1 0.4377 
12-May-2018_16:31:49 7311 20 2 R 3 1 9 self moralSelf J j 1 0.3488 
12-May-2018_16:31:51 7311 20 2 R 3 1 10 self moralSelf J j 1 0.4039 
12-May-2018_16:31:52 7311 20 2 R 3 1 11 self immoralOther H h 1 0.5155 
12-May-2018_16:31:54 7311 20 2 R 3 1 12 self immoralOther H h 1 0.3805 
12-May-2018_16:31:56 7311 20 2 R 3 1 13 self moralOther H h 1 0.6178 
12-May-2018_16:31:58 7311 20 2 R 3 1 14 self moralOther H h 1 0.3492 
12-May-2018_16:32:00 7311 20 2 R 3 1 15 self moralSelf J j 1 0.3940 
12-May-2018_16:32:02 7311 20 2 R 3 1 16 self immoralSelf J j 1 0.7544 
12-May-2018_16:32:03 7311 20 2 R 3 1 17 self immoralSelf J j 1 0.4232 
12-May-2018_16:32:05 7311 20 2 R 3 1 18 self immoralOther H h 1 0.4600 
12-May-2018_16:32:07 7311 20 2 R 3 1 19 self moralSelf J j 1 0.3796 
12-May-2018_16:32:08 7311 20 2 R 3 1 20 self moralSelf J j 1 0.3274 
12-May-2018_16:32:10 7311 20 2 R 3 1 21 self moralOther H h 1 0.3965 
12-May-2018_16:32:12 7311 20 2 R 3 1 22 self immoralOther H h 1 0.4782 
12-May-2018_16:32:14 7311 20 2 R 3 1 23 self immoralSelf J j 1 0.5196 
12-May-2018_16:32:16 7311 20 2 R 3 1 24 self immoralSelf J j 1 0.4025 
12-May-2018_16:32:17 7311 20 2 R 3 2 1 self moralSelf J h 0 0.3127 
12-May-2018_16:32:19 7311 20 2 R 3 2 2 self moralOther H h 1 0.4487 
12-May-2018_16:32:21 7311 20 2 R 3 2 3 self moralOther H h 1 0.3330 
12-May-2018_16:32:23 7311 20 2 R 3 2 4 self immoralSelf J h 0 0.3434 
12-May-2018_16:32:24 7311 20 2 R 3 2 5 self moralSelf J j 1 0.3261 
12-May-2018_16:32:26 7311 20 2 R 3 2 6 self moralSelf J j 1 0.3408 
12-May-2018_16:32:28 7311 20 2 R 3 2 7 self moralSelf J j 1 0.2722 
12-May-2018_16:32:29 7311 20 2 R 3 2 8 self immoralSelf J j 1 0.3316 
12-May-2018_16:32:31 7311 20 2 R 3 2 9 self moralOther H h 1 0.3480 
12-May-2018_16:32:33 7311 20 2 R 3 2 10 self moralOther H h 1 0.6036 
12-May-2018_16:32:35 7311 20 2 R 3 2 11 self immoralOther H h 1 0.5227 
12-May-2018_16:32:36 7311 20 2 R 3 2 12 self immoralSelf J j 1 0.2597 
12-May-2018_16:32:38 7311 20 2 R 3 2 13 self immoralOther H h 1 0.3591 
12-May-2018_16:32:39 7311 20 2 R 3 2 14 self immoralOther H h 1 0.3762 
12-May-2018_16:32:41 7311 20 2 R 3 2 15 self immoralOther H h 1 0.3569 
12-May-2018_16:32:43 7311 20 2 R 3 2 16 self immoralOther H h 1 0.2652 
12-May-2018_16:32:44 7311 20 2 R 3 2 17 self moralSelf J h 0 0.2959 
12-May-2018_16:32:46 7311 20 2 R 3 2 18 self immoralSelf J j 1 0.3829 
12-May-2018_16:32:47 7311 20 2 R 3 2 19 self immoralSelf J j 1 0.2719 
12-May-2018_16:32:49 7311 20 2 R 3 2 20 self moralSelf J j 1 0.3986 
12-May-2018_16:32:51 7311 20 2 R 3 2 21 self moralOther H h 1 0.3394 
12-May-2018_16:32:52 7311 20 2 R 3 2 22 self immoralSelf J j 1 0.3264 
12-May-2018_16:32:54 7311 20 2 R 3 2 23 self immoralOther H h 1 0.4746 
12-May-2018_16:32:56 7311 20 2 R 3 2 24 self moralOther H h 1 0.4464 
12-May-2018_16:33:02 7311 20 2 R 3 3 1 self immoralOther H h 1 0.4183 
12-May-2018_16:33:04 7311 20 2 R 3 3 2 self immoralSelf J j 1 0.3319 
12-May-2018_16:33:05 7311 20 2 R 3 3 3 self immoralSelf J j 1 0.3648 
12-May-2018_16:33:07 7311 20 2 R 3 3 4 self immoralOther H h 1 0.3405 
12-May-2018_16:33:09 7311 20 2 R 3 3 5 self moralSelf J h 0 0.2934 
12-May-2018_16:33:10 7311 20 2 R 3 3 6 self moralSelf J j 1 0.3878 
12-May-2018_16:33:12 7311 20 2 R 3 3 7 self moralSelf J j 1 0.2983 
12-May-2018_16:33:14 7311 20 2 R 3 3 8 self immoralOther H h 1 0.3054 
12-May-2018_16:33:16 7311 20 2 R 3 3 9 self moralSelf J j 1 0.3097 
12-May-2018_16:33:17 7311 20 2 R 3 3 10 self moralOther H h 1 0.3508 
12-May-2018_16:33:18 7311 20 2 R 3 3 11 self moralOther H h 1 0.3913 
12-May-2018_16:33:20 7311 20 2 R 3 3 12 self immoralSelf J j 1 0.4639 
12-May-2018_16:33:22 7311 20 2 R 3 3 13 self immoralSelf J j 1 0.3114 
12-May-2018_16:33:24 7311 20 2 R 3 3 14 self moralSelf J j 1 0.3915 
12-May-2018_16:33:25 7311 20 2 R 3 3 15 self immoralSelf J h 0 0.3332 
12-May-2018_16:33:27 7311 20 2 R 3 3 16 self moralOther H h 1 0.4476 
12-May-2018_16:33:29 7311 20 2 R 3 3 17 self moralOther H h 1 0.5394 
12-May-2018_16:33:31 7311 20 2 R 3 3 18 self immoralOther H h 1 0.5758 
12-May-2018_16:33:33 7311 20 2 R 3 3 19 self moralOther H h 1 0.3702 
12-May-2018_16:33:34 7311 20 2 R 3 3 20 self moralOther H h 1 0.2714 
12-May-2018_16:33:36 7311 20 2 R 3 3 21 self immoralOther H h 1 0.3345 
12-May-2018_16:33:37 7311 20 2 R 3 3 22 self immoralOther H h 1 0.3257 
12-May-2018_16:33:39 7311 20 2 R 3 3 23 self immoralSelf J j 1 0.4193 
12-May-2018_16:33:40 7311 20 2 R 3 3 24 self moralSelf J j 1 0.2972 
12-May-2018_16:33:42 7311 20 2 R 3 4 1 self moralOther H h 1 0.3400 
12-May-2018_16:33:44 7311 20 2 R 3 4 2 self immoralOther H h 1 0.4572 
12-May-2018_16:33:45 7311 20 2 R 3 4 3 self immoralSelf J j 1 0.3368 
12-May-2018_16:33:47 7311 20 2 R 3 4 4 self immoralOther H h 1 0.3481 
12-May-2018_16:33:48 7311 20 2 R 3 4 5 self immoralSelf J j 1 0.3477 
12-May-2018_16:33:50 7311 20 2 R 3 4 6 self moralSelf J j 1 0.4320 
12-May-2018_16:33:51 7311 20 2 R 3 4 7 self immoralSelf J j 1 0.4368 
12-May-2018_16:33:53 7311 20 2 R 3 4 8 self immoralSelf J j 1 0.3150 
12-May-2018_16:33:55 7311 20 2 R 3 4 9 self immoralOther H h 1 0.3904 
12-May-2018_16:33:56 7311 20 2 R 3 4 10 self moralSelf J j 1 0.3109 
12-May-2018_16:33:58 7311 20 2 R 3 4 11 self immoralSelf J j 1 0.4309 
12-May-2018_16:34:00 7311 20 2 R 3 4 12 self moralSelf J j 1 0.4037 
12-May-2018_16:34:02 7311 20 2 R 3 4 13 self moralOther H h 1 0.3911 
12-May-2018_16:34:03 7311 20 2 R 3 4 14 self immoralOther H h 1 0.3799 
12-May-2018_16:34:04 7311 20 2 R 3 4 15 self immoralOther H h 1 0.3763 
12-May-2018_16:34:06 7311 20 2 R 3 4 16 self moralOther H h 1 0.4063 
12-May-2018_16:34:08 7311 20 2 R 3 4 17 self immoralOther H h 1 0.3434 
12-May-2018_16:34:10 7311 20 2 R 3 4 18 self moralSelf J j 1 0.4201 
12-May-2018_16:34:11 7311 20 2 R 3 4 19 self moralSelf J j 1 0.2927 
12-May-2018_16:34:13 7311 20 2 R 3 4 20 self immoralSelf J h 0 0.2993 
12-May-2018_16:34:14 7311 20 2 R 3 4 21 self moralOther H h 1 0.3728 
12-May-2018_16:34:16 7311 20 2 R 3 4 22 self moralSelf J j 1 0.3611 
12-May-2018_16:34:18 7311 20 2 R 3 4 23 self moralOther H h 1 0.3560 
12-May-2018_16:34:19 7311 20 2 R 3 4 24 self moralOther H h 1 0.4125 
12-May-2018_16:34:24 7311 20 2 R 3 5 1 self immoralSelf J j 1 0.5934 
12-May-2018_16:34:26 7311 20 2 R 3 5 2 self immoralSelf J j 1 0.3309 
12-May-2018_16:34:28 7311 20 2 R 3 5 3 self immoralSelf J j 1 0.3010 
12-May-2018_16:34:29 7311 20 2 R 3 5 4 self moralSelf J j 1 0.3692 
12-May-2018_16:34:31 7311 20 2 R 3 5 5 self immoralOther H h 1 0.3142 
12-May-2018_16:34:33 7311 20 2 R 3 5 6 self immoralSelf J j 1 0.3316 
12-May-2018_16:34:34 7311 20 2 R 3 5 7 self immoralOther H h 1 0.3321 
12-May-2018_16:34:36 7311 20 2 R 3 5 8 self moralSelf J j 1 0.3355 
12-May-2018_16:34:37 7311 20 2 R 3 5 9 self moralOther H h 1 0.5473 
12-May-2018_16:34:39 7311 20 2 R 3 5 10 self moralOther H h 1 0.5351 
12-May-2018_16:34:41 7311 20 2 R 3 5 11 self moralSelf J j 1 0.3404 
12-May-2018_16:34:42 7311 20 2 R 3 5 12 self moralSelf J j 1 0.2516 
12-May-2018_16:34:44 7311 20 2 R 3 5 13 self immoralSelf J j 1 0.3039 
12-May-2018_16:34:46 7311 20 2 R 3 5 14 self moralSelf J j 1 0.2818 
12-May-2018_16:34:47 7311 20 2 R 3 5 15 self immoralOther H h 1 0.3091 
12-May-2018_16:34:49 7311 20 2 R 3 5 16 self moralOther H j 0 0.2686 
12-May-2018_16:34:51 7311 20 2 R 3 5 17 self moralOther H h 1 0.4242 
12-May-2018_16:34:52 7311 20 2 R 3 5 18 self immoralOther H h 1 0.4336 
12-May-2018_16:34:54 7311 20 2 R 3 5 19 self immoralOther H h 1 0.4166 
12-May-2018_16:34:56 7311 20 2 R 3 5 20 self immoralSelf J h 0 0.5490 
12-May-2018_16:34:58 7311 20 2 R 3 5 21 self immoralOther H h 1 0.3292 
12-May-2018_16:34:59 7311 20 2 R 3 5 22 self moralSelf J j 1 0.4559 
12-May-2018_16:35:01 7311 20 2 R 3 5 23 self moralOther H h 1 0.3364 
12-May-2018_16:35:02 7311 20 2 R 3 5 24 self moralOther H h 1 0.3290 
Date Sub Age Sex Hand Block Bin Trial Task Shape corrResp Resp ACC RT
12-May-2018_16:37:14 7311 20 2 R 4 1 1 moral moralOther U u 1 0.6912 
12-May-2018_16:37:15 7311 20 2 R 4 1 2 moral moralSelf U u 1 0.3671 
12-May-2018_16:37:17 7311 20 2 R 4 1 3 moral moralOther U u 1 0.6835 
12-May-2018_16:37:19 7311 20 2 R 4 1 4 moral immoralOther Y y 1 0.3579 
12-May-2018_16:37:20 7311 20 2 R 4 1 5 moral immoralSelf Y y 1 0.3184 
12-May-2018_16:37:22 7311 20 2 R 4 1 6 moral immoralSelf Y y 1 0.4625 
12-May-2018_16:37:24 7311 20 2 R 4 1 7 moral immoralOther Y y 1 0.5124 
12-May-2018_16:37:26 7311 20 2 R 4 1 8 moral immoralSelf Y y 1 0.3868 
12-May-2018_16:37:27 7311 20 2 R 4 1 9 moral immoralOther Y y 1 0.3361 
12-May-2018_16:37:29 7311 20 2 R 4 1 10 moral moralOther U y 0 0.4284 
12-May-2018_16:37:31 7311 20 2 R 4 1 11 moral immoralSelf Y y 1 0.5264 
12-May-2018_16:37:32 7311 20 2 R 4 1 12 moral immoralOther Y y 1 0.3852 
12-May-2018_16:37:34 7311 20 2 R 4 1 13 moral moralSelf U u 1 0.4032 
12-May-2018_16:37:36 7311 20 2 R 4 1 14 moral moralSelf U u 1 0.4174 
12-May-2018_16:37:37 7311 20 2 R 4 1 15 moral immoralSelf Y y 1 0.4720 
12-May-2018_16:37:39 7311 20 2 R 4 1 16 moral moralOther U u 1 0.5398 
12-May-2018_16:37:41 7311 20 2 R 4 1 17 moral immoralSelf Y y 1 0.5042 
12-May-2018_16:37:43 7311 20 2 R 4 1 18 moral immoralOther Y y 1 0.4443 
12-May-2018_16:37:45 7311 20 2 R 4 1 19 moral moralOther U u 1 0.3786 
12-May-2018_16:37:46 7311 20 2 R 4 1 20 moral moralOther U u 1 0.4216 
12-May-2018_16:37:48 7311 20 2 R 4 1 21 moral immoralOther Y y 1 0.4225 
12-May-2018_16:37:49 7311 20 2 R 4 1 22 moral moralSelf U u 1 0.4198 
12-May-2018_16:37:51 7311 20 2 R 4 1 23 moral moralSelf U u 1 0.4194 
12-May-2018_16:37:53 7311 20 2 R 4 1 24 moral moralSelf U u 1 0.3959 
12-May-2018_16:37:55 7311 20 2 R 4 2 1 moral immoralSelf Y y 1 0.5795 
12-May-2018_16:37:56 7311 20 2 R 4 2 2 moral immoralSelf Y y 1 0.5555 
12-May-2018_16:37:58 7311 20 2 R 4 2 3 moral moralOther U u 1 0.4328 
12-May-2018_16:38:00 7311 20 2 R 4 2 4 moral moralSelf U u 1 0.3792 
12-May-2018_16:38:01 7311 20 2 R 4 2 5 moral immoralOther Y y 1 0.4960 
12-May-2018_16:38:03 7311 20 2 R 4 2 6 moral moralOther U u 1 0.4066 
12-May-2018_16:38:05 7311 20 2 R 4 2 7 moral immoralOther Y y 1 0.4457 
12-May-2018_16:38:06 7311 20 2 R 4 2 8 moral moralSelf U u 1 0.3743 
12-May-2018_16:38:08 7311 20 2 R 4 2 9 moral immoralOther Y y 1 0.3546 
12-May-2018_16:38:10 7311 20 2 R 4 2 10 moral moralSelf U u 1 0.3217 
12-May-2018_16:38:11 7311 20 2 R 4 2 11 moral moralOther U u 1 0.4102 
12-May-2018_16:38:13 7311 20 2 R 4 2 12 moral moralSelf U u 1 0.4428 
12-May-2018_16:38:15 7311 20 2 R 4 2 13 moral immoralOther Y y 1 0.4923 
12-May-2018_16:38:16 7311 20 2 R 4 2 14 moral moralOther U u 1 0.4722 
12-May-2018_16:38:18 7311 20 2 R 4 2 15 moral moralSelf U u 1 0.4491 
12-May-2018_16:38:20 7311 20 2 R 4 2 16 moral immoralSelf Y y 1 0.3414 
12-May-2018_16:38:21 7311 20 2 R 4 2 17 moral immoralSelf Y y 1 0.3575 
12-May-2018_16:38:23 7311 20 2 R 4 2 18 moral moralOther U u 1 0.4234 
12-May-2018_16:38:24 7311 20 2 R 4 2 19 moral moralSelf U u 1 0.3871 
12-May-2018_16:38:26 7311 20 2 R 4 2 20 moral moralOther U y 0 0.3836 
12-May-2018_16:38:28 7311 20 2 R 4 2 21 moral immoralOther Y y 1 0.4184 
12-May-2018_16:38:30 7311 20 2 R 4 2 22 moral immoralSelf Y y 1 0.5723 
12-May-2018_16:38:31 7311 20 2 R 4 2 23 moral immoralSelf Y y 1 0.3367 
12-May-2018_16:38:33 7311 20 2 R 4 2 24 moral immoralOther Y y 1 0.5404 
12-May-2018_16:38:43 7311 20 2 R 4 3 1 moral moralSelf U u 1 0.4124 
12-May-2018_16:38:44 7311 20 2 R 4 3 2 moral immoralOther Y y 1 0.4473 
12-May-2018_16:38:46 7311 20 2 R 4 3 3 moral immoralSelf Y y 1 0.3457 
12-May-2018_16:38:48 7311 20 2 R 4 3 4 moral moralOther U u 1 0.3454 
12-May-2018_16:38:49 7311 20 2 R 4 3 5 moral moralSelf U u 1 0.3200 
12-May-2018_16:38:51 7311 20 2 R 4 3 6 moral immoralSelf Y y 1 0.2994 
12-May-2018_16:38:52 7311 20 2 R 4 3 7 moral moralSelf U u 1 0.4179 
12-May-2018_16:38:54 7311 20 2 R 4 3 8 moral moralOther U u 1 0.3974 
12-May-2018_16:38:56 7311 20 2 R 4 3 9 moral moralOther U u 1 0.3310 
12-May-2018_16:38:57 7311 20 2 R 4 3 10 moral immoralSelf Y y 1 0.3147 
12-May-2018_16:38:59 7311 20 2 R 4 3 11 moral moralOther U u 1 0.2794 
12-May-2018_16:39:00 7311 20 2 R 4 3 12 moral moralSelf U u 1 0.3595 
12-May-2018_16:39:02 7311 20 2 R 4 3 13 moral immoralSelf Y y 1 0.3802 
12-May-2018_16:39:03 7311 20 2 R 4 3 14 moral immoralOther Y y 1 0.5337 
12-May-2018_16:39:05 7311 20 2 R 4 3 15 moral immoralOther Y y 1 0.3124 
12-May-2018_16:39:07 7311 20 2 R 4 3 16 moral moralSelf U u 1 0.4068 
12-May-2018_16:39:09 7311 20 2 R 4 3 17 moral moralOther U u 1 0.3908 
12-May-2018_16:39:10 7311 20 2 R 4 3 18 moral moralOther U u 1 0.3071 
12-May-2018_16:39:12 7311 20 2 R 4 3 19 moral moralSelf U y 0 0.3862 
12-May-2018_16:39:13 7311 20 2 R 4 3 20 moral immoralSelf Y y 1 0.3802 
12-May-2018_16:39:15 7311 20 2 R 4 3 21 moral immoralSelf Y y 1 0.3059 
12-May-2018_16:39:17 7311 20 2 R 4 3 22 moral immoralOther Y y 1 0.5516 
12-May-2018_16:39:18 7311 20 2 R 4 3 23 moral immoralOther Y y 1 0.3404 
12-May-2018_16:39:20 7311 20 2 R 4 3 24 moral immoralOther Y y 1 0.2820 
12-May-2018_16:39:21 7311 20 2 R 4 4 1 moral immoralOther Y y 1 0.2813 
12-May-2018_16:39:23 7311 20 2 R 4 4 2 moral moralSelf U u 1 0.3641 
12-May-2018_16:39:24 7311 20 2 R 4 4 3 moral moralOther U u 1 0.4583 
12-May-2018_16:39:26 7311 20 2 R 4 4 4 moral immoralOther Y y 1 0.3681 
12-May-2018_16:39:27 7311 20 2 R 4 4 5 moral moralOther U u 1 0.3478 
12-May-2018_16:39:29 7311 20 2 R 4 4 6 moral moralSelf U y 0 0.3065 
12-May-2018_16:39:31 7311 20 2 R 4 4 7 moral moralSelf U u 1 0.3023 
12-May-2018_16:39:32 7311 20 2 R 4 4 8 moral immoralOther Y y 1 0.2978 
12-May-2018_16:39:34 7311 20 2 R 4 4 9 moral moralOther U u 1 0.4869 
12-May-2018_16:39:35 7311 20 2 R 4 4 10 moral moralOther U u 1 0.3001 
12-May-2018_16:39:37 7311 20 2 R 4 4 11 moral immoralOther Y y 1 0.3271 
12-May-2018_16:39:38 7311 20 2 R 4 4 12 moral immoralOther Y y 1 0.3535 
12-May-2018_16:39:40 7311 20 2 R 4 4 13 moral moralSelf U u 1 0.3502 
12-May-2018_16:39:42 7311 20 2 R 4 4 14 moral moralSelf U u 1 0.2946 
12-May-2018_16:39:43 7311 20 2 R 4 4 15 moral immoralSelf Y y 1 0.3216 
12-May-2018_16:39:45 7311 20 2 R 4 4 16 moral immoralSelf Y y 1 0.3959 
12-May-2018_16:39:47 7311 20 2 R 4 4 17 moral immoralSelf Y y 1 0.3631 
12-May-2018_16:39:48 7311 20 2 R 4 4 18 moral immoralSelf Y y 1 0.2772 
12-May-2018_16:39:50 7311 20 2 R 4 4 19 moral moralOther U u 1 0.3713 
12-May-2018_16:39:52 7311 20 2 R 4 4 20 moral moralOther U u 1 0.4555 
12-May-2018_16:39:53 7311 20 2 R 4 4 21 moral immoralOther Y y 1 0.3145 
12-May-2018_16:39:55 7311 20 2 R 4 4 22 moral immoralSelf Y y 1 0.4422 
12-May-2018_16:39:56 7311 20 2 R 4 4 23 moral moralSelf U u 1 0.2859 
12-May-2018_16:39:58 7311 20 2 R 4 4 24 moral immoralSelf Y y 1 0.3523 
12-May-2018_16:40:04 7311 20 2 R 4 5 1 moral immoralOther Y y 1 0.5526 
12-May-2018_16:40:06 7311 20 2 R 4 5 2 moral immoralSelf Y y 1 0.3440 
12-May-2018_16:40:07 7311 20 2 R 4 5 3 moral moralOther U u 1 0.4096 
12-May-2018_16:40:09 7311 20 2 R 4 5 4 moral immoralOther Y y 1 0.3005 
12-May-2018_16:40:10 7311 20 2 R 4 5 5 moral moralSelf U u 1 0.3401 
12-May-2018_16:40:12 7311 20 2 R 4 5 6 moral moralSelf U u 1 0.3505 
12-May-2018_16:40:14 7311 20 2 R 4 5 7 moral immoralOther Y y 1 0.3120 
12-May-2018_16:40:15 7311 20 2 R 4 5 8 moral moralSelf U u 1 0.3643 
12-May-2018_16:40:17 7311 20 2 R 4 5 9 moral immoralOther Y y 1 0.3004 
12-May-2018_16:40:18 7311 20 2 R 4 5 10 moral immoralOther Y y 1 0.3329 
12-May-2018_16:40:20 7311 20 2 R 4 5 11 moral immoralSelf Y y 1 0.3640 
12-May-2018_16:40:21 7311 20 2 R 4 5 12 moral moralSelf U u 1 0.3197 
12-May-2018_16:40:23 7311 20 2 R 4 5 13 moral moralSelf U u 1 0.2685 
12-May-2018_16:40:24 7311 20 2 R 4 5 14 moral moralSelf U u 1 0.2479 
12-May-2018_16:40:26 7311 20 2 R 4 5 15 moral immoralSelf Y y 1 0.3341 
12-May-2018_16:40:28 7311 20 2 R 4 5 16 moral moralOther U y 0 0.3774 
12-May-2018_16:40:29 7311 20 2 R 4 5 17 moral moralOther U y 0 0.3263 
12-May-2018_16:40:30 7311 20 2 R 4 5 18 moral moralOther U u 1 0.2478 
12-May-2018_16:40:32 7311 20 2 R 4 5 19 moral moralOther U u 1 0.2450 
12-May-2018_16:40:33 7311 20 2 R 4 5 20 moral immoralSelf Y y 1 0.2944 
12-May-2018_16:40:35 7311 20 2 R 4 5 21 moral immoralOther Y y 1 0.3180 
12-May-2018_16:40:37 7311 20 2 R 4 5 22 moral immoralSelf Y y 1 0.3736 
12-May-2018_16:40:38 7311 20 2 R 4 5 23 moral immoralSelf Y y 1 0.3063 
12-May-2018_16:40:40 7311 20 2 R 4 5 24 moral moralOther U u 1 0.3563 
Date Sub Age Sex Hand Block Bin Trial Task Shape corrResp Resp ACC RT
12-May-2018_16:42:50 7311 20 2 R 5 1 1 self immoralSelf J j 1 0.4723 
12-May-2018_16:42:52 7311 20 2 R 5 1 2 self immoralOther H h 1 0.3915 
12-May-2018_16:42:54 7311 20 2 R 5 1 3 self immoralOther H h 1 0.5324 
12-May-2018_16:42:56 7311 20 2 R 5 1 4 self immoralOther H h 1 0.4053 
12-May-2018_16:42:58 7311 20 2 R 5 1 5 self moralOther H j 0 0.6722 
12-May-2018_16:42:59 7311 20 2 R 5 1 6 self immoralOther H h 1 0.3947 
12-May-2018_16:43:01 7311 20 2 R 5 1 7 self moralOther H h 1 0.6234 
12-May-2018_16:43:03 7311 20 2 R 5 1 8 self moralSelf J j 1 0.3770 
12-May-2018_16:43:04 7311 20 2 R 5 1 9 self immoralOther H h 1 0.3840 
12-May-2018_16:43:06 7311 20 2 R 5 1 10 self immoralSelf J h 0 0.4994 
12-May-2018_16:43:08 7311 20 2 R 5 1 11 self moralSelf J j 1 0.3376 
12-May-2018_16:43:10 7311 20 2 R 5 1 12 self immoralSelf J h 0 0.3340 
12-May-2018_16:43:11 7311 20 2 R 5 1 13 self immoralSelf J h 0 0.2977 
12-May-2018_16:43:13 7311 20 2 R 5 1 14 self immoralSelf J h 0 0.3477 
12-May-2018_16:43:14 7311 20 2 R 5 1 15 self moralSelf J j 1 0.3595 
12-May-2018_16:43:16 7311 20 2 R 5 1 16 self moralOther H h 1 0.5255 
12-May-2018_16:43:18 7311 20 2 R 5 1 17 self immoralSelf J h 0 0.3601 
12-May-2018_16:43:19 7311 20 2 R 5 1 18 self moralSelf J j 1 0.3202 
12-May-2018_16:43:21 7311 20 2 R 5 1 19 self immoralOther H h 1 0.4350 
12-May-2018_16:43:23 7311 20 2 R 5 1 20 self moralOther H h 1 0.5583 
12-May-2018_16:43:24 7311 20 2 R 5 1 21 self moralOther H h 1 0.3518 
12-May-2018_16:43:26 7311 20 2 R 5 1 22 self moralSelf J j 1 0.4800 
12-May-2018_16:43:28 7311 20 2 R 5 1 23 self moralSelf J h 0 0.3549 
12-May-2018_16:43:30 7311 20 2 R 5 1 24 self moralOther H h 1 0.4237 
12-May-2018_16:43:31 7311 20 2 R 5 2 1 self moralOther H h 1 0.3766 
12-May-2018_16:43:33 7311 20 2 R 5 2 2 self immoralOther H h 1 0.3329 
12-May-2018_16:43:34 7311 20 2 R 5 2 3 self immoralOther H h 1 0.3052 
12-May-2018_16:43:36 7311 20 2 R 5 2 4 self immoralSelf J j 1 0.4003 
12-May-2018_16:43:37 7311 20 2 R 5 2 5 self immoralSelf J j 1 0.2522 
12-May-2018_16:43:39 7311 20 2 R 5 2 6 self moralSelf J j 1 0.4701 
12-May-2018_16:43:41 7311 20 2 R 5 2 7 self moralSelf J j 1 0.2865 
12-May-2018_16:43:43 7311 20 2 R 5 2 8 self immoralOther H 6^ 2 0.4156 
12-May-2018_16:43:44 7311 20 2 R 5 2 9 self moralSelf J h 0 0.4101 
12-May-2018_16:43:46 7311 20 2 R 5 2 10 self immoralOther H h 1 0.4530 
12-May-2018_16:43:48 7311 20 2 R 5 2 11 self moralSelf J j 1 0.2550 
12-May-2018_16:43:50 7311 20 2 R 5 2 12 self moralSelf J j 1 0.3068 
12-May-2018_16:43:51 7311 20 2 R 5 2 13 self immoralOther H h 1 0.3619 
12-May-2018_16:43:53 7311 20 2 R 5 2 14 self moralSelf J j 1 0.4941 
12-May-2018_16:43:54 7311 20 2 R 5 2 15 self moralOther H h 1 0.4057 
12-May-2018_16:43:56 7311 20 2 R 5 2 16 self immoralSelf J j 1 0.3028 
12-May-2018_16:43:57 7311 20 2 R 5 2 17 self moralOther H h 1 0.3122 
12-May-2018_16:43:59 7311 20 2 R 5 2 18 self moralOther H h 1 0.2976 
12-May-2018_16:44:01 7311 20 2 R 5 2 19 self moralOther H j 0 0.3388 
12-May-2018_16:44:02 7311 20 2 R 5 2 20 self immoralOther H h 1 0.5044 
12-May-2018_16:44:04 7311 20 2 R 5 2 21 self immoralSelf J j 1 0.5403 
12-May-2018_16:44:06 7311 20 2 R 5 2 22 self immoralSelf J j 1 0.4867 
12-May-2018_16:44:08 7311 20 2 R 5 2 23 self immoralSelf J j 1 0.3498 
12-May-2018_16:44:09 7311 20 2 R 5 2 24 self moralOther H h 1 0.4421 
12-May-2018_16:44:18 7311 20 2 R 5 3 1 self moralOther H h 1 0.4355 
12-May-2018_16:44:21 7311 20 2 R 5 3 2 self immoralOther H h 1 0.8186 
12-May-2018_16:44:22 7311 20 2 R 5 3 3 self moralOther H h 1 0.4558 
12-May-2018_16:44:24 7311 20 2 R 5 3 4 self immoralSelf J j 1 0.4417 
12-May-2018_16:44:26 7311 20 2 R 5 3 5 self moralOther H h 1 0.4602 
12-May-2018_16:44:28 7311 20 2 R 5 3 6 self immoralOther H h 1 0.3158 
12-May-2018_16:44:29 7311 20 2 R 5 3 7 self immoralOther H h 1 0.3276 
12-May-2018_16:44:31 7311 20 2 R 5 3 8 self moralSelf J j 1 0.4153 
12-May-2018_16:44:33 7311 20 2 R 5 3 9 self moralSelf J j 1 0.3725 
12-May-2018_16:44:34 7311 20 2 R 5 3 10 self moralSelf J j 1 0.2859 
12-May-2018_16:44:36 7311 20 2 R 5 3 11 self immoralSelf J h 0 0.3374 
12-May-2018_16:44:38 7311 20 2 R 5 3 12 self immoralOther H h 1 0.4257 
12-May-2018_16:44:39 7311 20 2 R 5 3 13 self moralOther H h 1 0.4428 
12-May-2018_16:44:41 7311 20 2 R 5 3 14 self immoralSelf J j 1 0.3831 
12-May-2018_16:44:42 7311 20 2 R 5 3 15 self immoralOther H h 1 0.3342 
12-May-2018_16:44:44 7311 20 2 R 5 3 16 self moralOther H h 1 0.4534 
12-May-2018_16:44:46 7311 20 2 R 5 3 17 self moralSelf J j 1 0.2703 
12-May-2018_16:44:47 7311 20 2 R 5 3 18 self moralOther H h 1 0.3213 
12-May-2018_16:44:49 7311 20 2 R 5 3 19 self moralSelf J j 1 0.3373 
12-May-2018_16:44:51 7311 20 2 R 5 3 20 self immoralSelf J h 0 0.3369 
12-May-2018_16:44:52 7311 20 2 R 5 3 21 self immoralOther H h 1 0.4207 
12-May-2018_16:44:54 7311 20 2 R 5 3 22 self immoralSelf J j 1 0.3285 
12-May-2018_16:44:56 7311 20 2 R 5 3 23 self immoralSelf J j 1 0.2891 
12-May-2018_16:44:57 7311 20 2 R 5 3 24 self moralSelf J j 1 0.3810 
12-May-2018_16:44:59 7311 20 2 R 5 4 1 self immoralOther H h 1 0.3339 
12-May-2018_16:45:01 7311 20 2 R 5 4 2 self immoralOther H h 1 0.3411 
12-May-2018_16:45:02 7311 20 2 R 5 4 3 self moralOther H h 1 0.3891 
12-May-2018_16:45:04 7311 20 2 R 5 4 4 self moralOther H h 1 0.4427 
12-May-2018_16:45:05 7311 20 2 R 5 4 5 self immoralSelf J j 1 0.3464 
12-May-2018_16:45:07 7311 20 2 R 5 4 6 self moralOther H h 1 0.4298 
12-May-2018_16:45:08 7311 20 2 R 5 4 7 self moralSelf J j 1 0.3517 
12-May-2018_16:45:10 7311 20 2 R 5 4 8 self immoralSelf J j 1 0.3687 
12-May-2018_16:45:12 7311 20 2 R 5 4 9 self immoralSelf J j 1 0.3142 
12-May-2018_16:45:13 7311 20 2 R 5 4 10 self moralSelf J j 1 0.4889 
12-May-2018_16:45:15 7311 20 2 R 5 4 11 self moralOther H h 1 0.3637 
12-May-2018_16:45:17 7311 20 2 R 5 4 12 self immoralOther H h 1 0.4081 
12-May-2018_16:45:19 7311 20 2 R 5 4 13 self moralSelf J j 1 0.3746 
12-May-2018_16:45:20 7311 20 2 R 5 4 14 self immoralOther H h 1 0.3549 
12-May-2018_16:45:22 7311 20 2 R 5 4 15 self immoralSelf J j 1 0.3785 
12-May-2018_16:45:23 7311 20 2 R 5 4 16 self immoralOther H h 1 0.3367 
12-May-2018_16:45:26 7311 20 2 R 5 4 17 self immoralSelf J NA -1 1.0841 
12-May-2018_16:45:28 7311 20 2 R 5 4 18 self moralSelf J j 1 0.5533 
12-May-2018_16:45:29 7311 20 2 R 5 4 19 self immoralSelf J j 1 0.3459 
12-May-2018_16:45:31 7311 20 2 R 5 4 20 self moralOther H h 1 0.4518 
12-May-2018_16:45:33 7311 20 2 R 5 4 21 self immoralOther H h 1 0.4929 
12-May-2018_16:45:35 7311 20 2 R 5 4 22 self moralOther H h 1 0.7494 
12-May-2018_16:45:36 7311 20 2 R 5 4 23 self moralSelf J j 1 0.3909 
12-May-2018_16:45:38 7311 20 2 R 5 4 24 self moralSelf J j 1 0.3406 
12-May-2018_16:45:44 7311 20 2 R 5 5 1 self moralSelf J j 1 0.4594 
12-May-2018_16:45:45 7311 20 2 R 5 5 2 self moralOther H h 1 0.2958 
12-May-2018_16:45:47 7311 20 2 R 5 5 3 self immoralOther H h 1 0.4026 
12-May-2018_16:45:48 7311 20 2 R 5 5 4 self moralSelf J h 0 0.3414 
12-May-2018_16:45:50 7311 20 2 R 5 5 5 self immoralOther H h 1 0.3783 
12-May-2018_16:45:51 7311 20 2 R 5 5 6 self moralSelf J j 1 0.4447 
12-May-2018_16:45:53 7311 20 2 R 5 5 7 self immoralSelf J j 1 0.2852 
12-May-2018_16:45:55 7311 20 2 R 5 5 8 self immoralOther H h 1 0.3243 
12-May-2018_16:45:57 7311 20 2 R 5 5 9 self immoralSelf J j 1 0.3319 
12-May-2018_16:45:59 7311 20 2 R 5 5 10 self immoralOther H h 1 0.3748 
12-May-2018_16:46:00 7311 20 2 R 5 5 11 self moralOther H h 1 0.5679 
12-May-2018_16:46:02 7311 20 2 R 5 5 12 self moralSelf J j 1 0.4013 
12-May-2018_16:46:04 7311 20 2 R 5 5 13 self moralOther H h 1 0.3547 
12-May-2018_16:46:05 7311 20 2 R 5 5 14 self immoralSelf J j 1 0.4245 
12-May-2018_16:46:07 7311 20 2 R 5 5 15 self immoralOther H h 1 0.3384 
12-May-2018_16:46:09 7311 20 2 R 5 5 16 self moralOther H h 1 0.4162 
12-May-2018_16:46:11 7311 20 2 R 5 5 17 self immoralSelf J h 0 0.5527 
12-May-2018_16:46:13 7311 20 2 R 5 5 18 self immoralOther H h 1 0.4196 
12-May-2018_16:46:14 7311 20 2 R 5 5 19 self immoralSelf J j 1 0.3043 
12-May-2018_16:46:16 7311 20 2 R 5 5 20 self moralOther H h 1 0.4489 
12-May-2018_16:46:18 7311 20 2 R 5 5 21 self moralSelf J j 1 0.5750 
12-May-2018_16:46:19 7311 20 2 R 5 5 22 self moralSelf J j 1 0.4080 
12-May-2018_16:46:21 7311 20 2 R 5 5 23 self moralOther H h 1 0.3969 
12-May-2018_16:46:22 7311 20 2 R 5 5 24 self immoralSelf J j 1 0.3146 
Date Sub Age Sex Hand Block Bin Trial Task Shape corrResp Resp ACC RT
12-May-2018_16:48:32 7311 20 2 R 6 1 1 moral moralSelf U u 1 0.4117 
12-May-2018_16:48:33 7311 20 2 R 6 1 2 moral immoralSelf Y y 1 0.4453 
12-May-2018_16:48:35 7311 20 2 R 6 1 3 moral immoralSelf Y y 1 0.3894 
12-May-2018_16:48:36 7311 20 2 R 6 1 4 moral immoralSelf Y y 1 0.3593 
12-May-2018_16:48:38 7311 20 2 R 6 1 5 moral moralSelf U u 1 0.3885 
12-May-2018_16:48:40 7311 20 2 R 6 1 6 moral moralSelf U u 1 0.2733 
12-May-2018_16:48:41 7311 20 2 R 6 1 7 moral immoralOther Y y 1 0.3675 
12-May-2018_16:48:43 7311 20 2 R 6 1 8 moral moralOther U y 0 0.3944 
12-May-2018_16:48:45 7311 20 2 R 6 1 9 moral moralOther U u 1 0.3459 
12-May-2018_16:48:46 7311 20 2 R 6 1 10 moral moralOther U u 1 0.2077 
12-May-2018_16:48:48 7311 20 2 R 6 1 11 moral immoralOther Y y 1 0.3456 
12-May-2018_16:48:49 7311 20 2 R 6 1 12 moral moralOther U u 1 0.2624 
12-May-2018_16:48:51 7311 20 2 R 6 1 13 moral moralSelf U u 1 0.5133 
12-May-2018_16:48:52 7311 20 2 R 6 1 14 moral moralSelf U u 1 0.2743 
12-May-2018_16:48:54 7311 20 2 R 6 1 15 moral immoralSelf Y y 1 0.3298 
12-May-2018_16:48:56 7311 20 2 R 6 1 16 moral moralSelf U u 1 0.2819 
12-May-2018_16:48:58 7311 20 2 R 6 1 17 moral immoralOther Y y 1 0.3329 
12-May-2018_16:48:59 7311 20 2 R 6 1 18 moral immoralSelf Y y 1 0.3686 
12-May-2018_16:49:01 7311 20 2 R 6 1 19 moral immoralOther Y y 1 0.5047 
12-May-2018_16:49:02 7311 20 2 R 6 1 20 moral immoralOther Y y 1 0.3702 
12-May-2018_16:49:04 7311 20 2 R 6 1 21 moral immoralSelf Y y 1 0.3382 
12-May-2018_16:49:05 7311 20 2 R 6 1 22 moral moralOther U u 1 0.3610 
12-May-2018_16:49:07 7311 20 2 R 6 1 23 moral moralOther U u 1 0.3016 
12-May-2018_16:49:08 7311 20 2 R 6 1 24 moral immoralOther Y y 1 0.2914 
12-May-2018_16:49:10 7311 20 2 R 6 2 1 moral moralSelf U u 1 0.3376 
12-May-2018_16:49:12 7311 20 2 R 6 2 2 moral moralOther U y 0 0.3433 
12-May-2018_16:49:14 7311 20 2 R 6 2 3 moral moralOther U u 1 0.3118 
12-May-2018_16:49:15 7311 20 2 R 6 2 4 moral immoralSelf Y y 1 0.3110 
12-May-2018_16:49:17 7311 20 2 R 6 2 5 moral moralSelf U u 1 0.3745 
12-May-2018_16:49:18 7311 20 2 R 6 2 6 moral immoralOther Y y 1 0.3218 
12-May-2018_16:49:20 7311 20 2 R 6 2 7 moral immoralSelf Y y 1 0.3629 
12-May-2018_16:49:21 7311 20 2 R 6 2 8 moral moralOther U u 1 0.3362 
12-May-2018_16:49:23 7311 20 2 R 6 2 9 moral immoralOther Y y 1 0.3531 
12-May-2018_16:49:25 7311 20 2 R 6 2 10 moral immoralOther Y y 1 0.3795 
12-May-2018_16:49:26 7311 20 2 R 6 2 11 moral immoralSelf Y y 1 0.3194 
12-May-2018_16:49:28 7311 20 2 R 6 2 12 moral moralOther U u 1 0.3659 
12-May-2018_16:49:30 7311 20 2 R 6 2 13 moral moralOther U u 1 0.3134 
12-May-2018_16:49:31 7311 20 2 R 6 2 14 moral immoralSelf Y y 1 0.3073 
12-May-2018_16:49:33 7311 20 2 R 6 2 15 moral immoralSelf Y y 1 0.3662 
12-May-2018_16:49:35 7311 20 2 R 6 2 16 moral moralSelf U u 1 0.3489 
12-May-2018_16:49:36 7311 20 2 R 6 2 17 moral moralSelf U u 1 0.2460 
12-May-2018_16:49:37 7311 20 2 R 6 2 18 moral immoralOther Y y 1 0.3288 
12-May-2018_16:49:39 7311 20 2 R 6 2 19 moral moralSelf U y 0 0.2968 
12-May-2018_16:49:41 7311 20 2 R 6 2 20 moral immoralOther Y y 1 0.3801 
12-May-2018_16:49:43 7311 20 2 R 6 2 21 moral moralOther U u 1 0.4008 
12-May-2018_16:49:44 7311 20 2 R 6 2 22 moral immoralOther Y y 1 0.3257 
12-May-2018_16:49:46 7311 20 2 R 6 2 23 moral moralSelf U u 1 0.2807 
12-May-2018_16:49:47 7311 20 2 R 6 2 24 moral immoralSelf Y y 1 0.3644 
12-May-2018_16:49:54 7311 20 2 R 6 3 1 moral moralOther U u 1 0.3073 
12-May-2018_16:49:56 7311 20 2 R 6 3 2 moral immoralOther Y y 1 0.3205 
12-May-2018_16:49:57 7311 20 2 R 6 3 3 moral immoralOther Y y 1 0.3050 
12-May-2018_16:49:59 7311 20 2 R 6 3 4 moral moralSelf U u 1 0.2732 
12-May-2018_16:50:01 7311 20 2 R 6 3 5 moral immoralSelf Y y 1 0.4285 
12-May-2018_16:50:02 7311 20 2 R 6 3 6 moral immoralOther Y y 1 0.3710 
12-May-2018_16:50:04 7311 20 2 R 6 3 7 moral immoralOther Y y 1 0.3227 
12-May-2018_16:50:06 7311 20 2 R 6 3 8 moral immoralOther Y y 1 0.3633 
12-May-2018_16:50:07 7311 20 2 R 6 3 9 moral immoralSelf Y y 1 0.3078 
12-May-2018_16:50:09 7311 20 2 R 6 3 10 moral moralSelf U u 1 0.3644 
12-May-2018_16:50:10 7311 20 2 R 6 3 11 moral moralOther U y 0 0.2923 
12-May-2018_16:50:12 7311 20 2 R 6 3 12 moral moralOther U u 1 0.2590 
12-May-2018_16:50:13 7311 20 2 R 6 3 13 moral moralSelf U u 1 0.3608 
12-May-2018_16:50:15 7311 20 2 R 6 3 14 moral immoralSelf Y y 1 0.2888 
12-May-2018_16:50:16 7311 20 2 R 6 3 15 moral immoralOther Y y 1 0.3124 
12-May-2018_16:50:18 7311 20 2 R 6 3 16 moral immoralSelf Y y 1 0.3215 
12-May-2018_16:50:20 7311 20 2 R 6 3 17 moral moralSelf U u 1 0.3441 
12-May-2018_16:50:21 7311 20 2 R 6 3 18 moral moralOther U u 1 0.3234 
12-May-2018_16:50:23 7311 20 2 R 6 3 19 moral moralSelf U u 1 0.3545 
12-May-2018_16:50:25 7311 20 2 R 6 3 20 moral moralSelf U u 1 0.3461 
12-May-2018_16:50:26 7311 20 2 R 6 3 21 moral moralOther U y 0 0.3378 
12-May-2018_16:50:28 7311 20 2 R 6 3 22 moral immoralSelf Y y 1 0.3123 
12-May-2018_16:50:30 7311 20 2 R 6 3 23 moral moralOther U u 1 0.3279 
12-May-2018_16:50:32 7311 20 2 R 6 3 24 moral immoralSelf Y y 1 0.4744 
12-May-2018_16:50:33 7311 20 2 R 6 4 1 moral moralOther U u 1 0.3356 
12-May-2018_16:50:35 7311 20 2 R 6 4 2 moral moralSelf U u 1 0.4604 
12-May-2018_16:50:37 7311 20 2 R 6 4 3 moral immoralOther Y y 1 0.3786 
12-May-2018_16:50:38 7311 20 2 R 6 4 4 moral immoralOther Y y 1 0.3406 
12-May-2018_16:50:40 7311 20 2 R 6 4 5 moral immoralSelf Y y 1 0.5424 
12-May-2018_16:50:42 7311 20 2 R 6 4 6 moral immoralSelf Y y 1 0.3665 
12-May-2018_16:50:44 7311 20 2 R 6 4 7 moral immoralSelf Y NA -1 1.0841 
12-May-2018_16:50:46 7311 20 2 R 6 4 8 moral immoralOther Y y 1 0.4693 
12-May-2018_16:50:48 7311 20 2 R 6 4 9 moral moralOther U u 1 0.3799 
12-May-2018_16:50:49 7311 20 2 R 6 4 10 moral moralOther U u 1 0.2728 
12-May-2018_16:50:51 7311 20 2 R 6 4 11 moral moralOther U u 1 0.3034 
12-May-2018_16:50:52 7311 20 2 R 6 4 12 moral immoralOther Y y 1 0.3327 
12-May-2018_16:50:54 7311 20 2 R 6 4 13 moral moralSelf U u 1 0.4329 
12-May-2018_16:50:55 7311 20 2 R 6 4 14 moral moralSelf U u 1 0.3238 
12-May-2018_16:50:57 7311 20 2 R 6 4 15 moral moralSelf U u 1 0.3188 
12-May-2018_16:50:59 7311 20 2 R 6 4 16 moral moralOther U u 1 0.4655 
12-May-2018_16:51:00 7311 20 2 R 6 4 17 moral moralSelf U u 1 0.3221 
12-May-2018_16:51:02 7311 20 2 R 6 4 18 moral immoralOther Y y 1 0.4299 
12-May-2018_16:51:03 7311 20 2 R 6 4 19 moral immoralSelf Y y 1 0.3506 
12-May-2018_16:51:05 7311 20 2 R 6 4 20 moral moralOther U u 1 0.3344 
12-May-2018_16:51:06 7311 20 2 R 6 4 21 moral immoralSelf Y y 1 0.3050 
12-May-2018_16:51:08 7311 20 2 R 6 4 22 moral moralSelf U u 1 0.2936 
12-May-2018_16:51:09 7311 20 2 R 6 4 23 moral immoralOther Y y 1 0.3700 
12-May-2018_16:51:11 7311 20 2 R 6 4 24 moral immoralSelf Y y 1 0.4778 
12-May-2018_16:51:18 7311 20 2 R 6 5 1 moral moralSelf U u 1 0.3849 
12-May-2018_16:51:19 7311 20 2 R 6 5 2 moral immoralOther Y y 1 0.3173 
12-May-2018_16:51:21 7311 20 2 R 6 5 3 moral moralSelf U u 1 0.3224 
12-May-2018_16:51:23 7311 20 2 R 6 5 4 moral moralSelf U u 1 0.3173 
12-May-2018_16:51:24 7311 20 2 R 6 5 5 moral immoralSelf Y y 1 0.2841 
12-May-2018_16:51:26 7311 20 2 R 6 5 6 moral immoralSelf Y y 1 0.3065 
12-May-2018_16:51:27 7311 20 2 R 6 5 7 moral moralOther U u 1 0.3161 
12-May-2018_16:51:29 7311 20 2 R 6 5 8 moral immoralSelf Y y 1 0.2775 
12-May-2018_16:51:31 7311 20 2 R 6 5 9 moral immoralOther Y y 1 0.3731 
12-May-2018_16:51:33 7311 20 2 R 6 5 10 moral immoralSelf Y y 1 0.3124 
12-May-2018_16:51:34 7311 20 2 R 6 5 11 moral immoralOther Y u 0 0.3112 
12-May-2018_16:51:36 7311 20 2 R 6 5 12 moral immoralOther Y y 1 0.3208 
12-May-2018_16:51:38 7311 20 2 R 6 5 13 moral moralSelf U u 1 0.2813 
12-May-2018_16:51:39 7311 20 2 R 6 5 14 moral immoralOther Y y 1 0.2907 
12-May-2018_16:51:41 7311 20 2 R 6 5 15 moral moralOther U u 1 0.4695 
12-May-2018_16:51:42 7311 20 2 R 6 5 16 moral immoralSelf Y y 1 0.2880 
12-May-2018_16:51:44 7311 20 2 R 6 5 17 moral moralSelf U u 1 0.3507 
12-May-2018_16:51:46 7311 20 2 R 6 5 18 moral moralOther U u 1 0.3916 
12-May-2018_16:51:47 7311 20 2 R 6 5 19 moral immoralSelf Y y 1 0.3127 
12-May-2018_16:51:49 7311 20 2 R 6 5 20 moral moralOther U u 1 0.3164 
12-May-2018_16:51:50 7311 20 2 R 6 5 21 moral moralSelf U u 1 0.3151 
12-May-2018_16:51:52 7311 20 2 R 6 5 22 moral immoralOther Y y 1 0.3109 
12-May-2018_16:51:53 7311 20 2 R 6 5 23 moral moralOther U u 1 0.2846 
12-May-2018_16:51:55 7311 20 2 R 6 5 24 moral moralOther U u 1 0.3087 
