Date Sub Age Sex Hand Block Bin Trial Task Shape corrResp Resp ACC RT
17-May-2018_15:26:21 7319 19 male R 1 1 1 self moralOther H h 1 0.7758 
17-May-2018_15:26:23 7319 19 male R 1 1 2 self immoralSelf J j 1 0.7985 
17-May-2018_15:26:25 7319 19 male R 1 1 3 self immoralOther H h 1 0.6782 
17-May-2018_15:26:27 7319 19 male R 1 1 4 self moralSelf J j 1 0.4580 
17-May-2018_15:26:29 7319 19 male R 1 1 5 self moralOther H h 1 0.7089 
17-May-2018_15:26:31 7319 19 male R 1 1 6 self moralSelf J j 1 0.5095 
17-May-2018_15:26:33 7319 19 male R 1 1 7 self immoralOther H h 1 0.6339 
17-May-2018_15:26:34 7319 19 male R 1 1 8 self immoralOther H h 1 0.4485 
17-May-2018_15:26:36 7319 19 male R 1 1 9 self moralOther H h 1 0.7383 
17-May-2018_15:26:38 7319 19 male R 1 1 10 self immoralSelf J j 1 0.4599 
17-May-2018_15:26:40 7319 19 male R 1 1 11 self moralSelf J j 1 0.5978 
17-May-2018_15:26:42 7319 19 male R 1 1 12 self moralSelf J j 1 0.4511 
17-May-2018_15:26:43 7319 19 male R 1 1 13 self immoralOther H h 1 0.4672 
17-May-2018_15:26:45 7319 19 male R 1 1 14 self moralOther H h 1 0.4917 
17-May-2018_15:26:47 7319 19 male R 1 1 15 self moralSelf J j 1 0.5758 
17-May-2018_15:26:49 7319 19 male R 1 1 16 self immoralOther H h 1 0.5375 
17-May-2018_15:26:51 7319 19 male R 1 1 17 self immoralSelf J j 1 0.4203 
17-May-2018_15:26:53 7319 19 male R 1 1 18 self immoralSelf J j 1 0.5009 
17-May-2018_15:26:54 7319 19 male R 1 1 19 self moralOther H h 1 0.5367 
17-May-2018_15:26:56 7319 19 male R 1 1 20 self immoralSelf J j 1 0.4643 
17-May-2018_15:26:57 7319 19 male R 1 1 21 self moralSelf J j 1 0.5448 
17-May-2018_15:26:59 7319 19 male R 1 1 22 self immoralOther H h 1 0.5369 
17-May-2018_15:27:01 7319 19 male R 1 1 23 self immoralSelf J j 1 0.4683 
17-May-2018_15:27:03 7319 19 male R 1 1 24 self moralOther H h 1 0.5451 
17-May-2018_15:27:05 7319 19 male R 1 2 1 self immoralOther H h 1 0.6736 
17-May-2018_15:27:06 7319 19 male R 1 2 2 self immoralSelf J j 1 0.3569 
17-May-2018_15:27:08 7319 19 male R 1 2 3 self moralSelf J j 1 0.4469 
17-May-2018_15:27:10 7319 19 male R 1 2 4 self moralSelf J j 1 0.4282 
17-May-2018_15:27:11 7319 19 male R 1 2 5 self moralSelf J j 1 0.3585 
17-May-2018_15:27:13 7319 19 male R 1 2 6 self immoralSelf J j 1 0.4701 
17-May-2018_15:27:15 7319 19 male R 1 2 7 self immoralOther H h 1 0.4157 
17-May-2018_15:27:16 7319 19 male R 1 2 8 self immoralOther H h 1 0.3361 
17-May-2018_15:27:18 7319 19 male R 1 2 9 self moralOther H h 1 0.2657 
17-May-2018_15:27:19 7319 19 male R 1 2 10 self immoralSelf J j 1 0.4849 
17-May-2018_15:27:21 7319 19 male R 1 2 11 self moralOther H h 1 0.5660 
17-May-2018_15:27:23 7319 19 male R 1 2 12 self immoralOther H h 1 0.4028 
17-May-2018_15:27:24 7319 19 male R 1 2 13 self moralOther H h 1 0.5177 
17-May-2018_15:27:26 7319 19 male R 1 2 14 self immoralOther H h 1 0.5577 
17-May-2018_15:27:28 7319 19 male R 1 2 15 self moralOther H h 1 0.4345 
17-May-2018_15:27:29 7319 19 male R 1 2 16 self immoralOther H h 1 0.2406 
17-May-2018_15:27:31 7319 19 male R 1 2 17 self immoralSelf J h 0 0.3782 
17-May-2018_15:27:33 7319 19 male R 1 2 18 self immoralSelf J j 1 0.3429 
17-May-2018_15:27:34 7319 19 male R 1 2 19 self moralSelf J h 0 0.5835 
17-May-2018_15:27:36 7319 19 male R 1 2 20 self immoralSelf J j 1 0.4955 
17-May-2018_15:27:38 7319 19 male R 1 2 21 self moralOther H h 1 0.4659 
17-May-2018_15:27:39 7319 19 male R 1 2 22 self moralSelf J j 1 0.4232 
17-May-2018_15:27:41 7319 19 male R 1 2 23 self moralOther H h 1 0.4322 
17-May-2018_15:27:43 7319 19 male R 1 2 24 self moralSelf J j 1 0.5208 
17-May-2018_15:28:10 7319 19 male R 1 3 1 self immoralOther H h 1 0.6211 
17-May-2018_15:28:12 7319 19 male R 1 3 2 self immoralOther H h 1 0.5703 
17-May-2018_15:28:14 7319 19 male R 1 3 3 self moralOther H h 1 0.3995 
17-May-2018_15:28:15 7319 19 male R 1 3 4 self moralSelf J j 1 0.5089 
17-May-2018_15:28:17 7319 19 male R 1 3 5 self immoralSelf J j 1 0.5168 
17-May-2018_15:28:19 7319 19 male R 1 3 6 self immoralSelf J j 1 0.3918 
17-May-2018_15:28:20 7319 19 male R 1 3 7 self immoralSelf J j 1 0.4751 
17-May-2018_15:28:22 7319 19 male R 1 3 8 self moralSelf J j 1 0.3570 
17-May-2018_15:28:24 7319 19 male R 1 3 9 self moralSelf J j 1 0.3575 
17-May-2018_15:28:25 7319 19 male R 1 3 10 self moralSelf J j 1 0.3604 
17-May-2018_15:28:27 7319 19 male R 1 3 11 self moralSelf J j 1 0.3333 
17-May-2018_15:28:29 7319 19 male R 1 3 12 self immoralOther H h 1 0.5817 
17-May-2018_15:28:30 7319 19 male R 1 3 13 self moralSelf J h 0 0.3583 
17-May-2018_15:28:32 7319 19 male R 1 3 14 self immoralOther H h 1 0.6345 
17-May-2018_15:28:34 7319 19 male R 1 3 15 self immoralSelf J j 1 0.3693 
17-May-2018_15:28:36 7319 19 male R 1 3 16 self immoralSelf J j 1 0.2691 
17-May-2018_15:28:38 7319 19 male R 1 3 17 self moralOther H h 1 0.4682 
17-May-2018_15:28:39 7319 19 male R 1 3 18 self moralOther H j 0 0.2644 
17-May-2018_15:28:41 7319 19 male R 1 3 19 self moralOther H h 1 0.5496 
17-May-2018_15:28:43 7319 19 male R 1 3 20 self immoralSelf J j 1 0.4623 
17-May-2018_15:28:45 7319 19 male R 1 3 21 self immoralOther H h 1 0.5405 
17-May-2018_15:28:46 7319 19 male R 1 3 22 self moralOther H h 1 0.5137 
17-May-2018_15:28:48 7319 19 male R 1 3 23 self immoralOther H h 1 0.4719 
17-May-2018_15:28:50 7319 19 male R 1 3 24 self moralOther H h 1 0.5603 
17-May-2018_15:28:51 7319 19 male R 1 4 1 self moralOther H h 1 0.3331 
17-May-2018_15:28:53 7319 19 male R 1 4 2 self immoralOther H h 1 0.4820 
17-May-2018_15:28:55 7319 19 male R 1 4 3 self immoralSelf J j 1 0.4575 
17-May-2018_15:28:56 7319 19 male R 1 4 4 self moralSelf J j 1 0.2821 
17-May-2018_15:28:58 7319 19 male R 1 4 5 self moralOther H h 1 0.4247 
17-May-2018_15:29:00 7319 19 male R 1 4 6 self moralOther H h 1 0.7261 
17-May-2018_15:29:01 7319 19 male R 1 4 7 self immoralSelf J j 1 0.4287 
17-May-2018_15:29:03 7319 19 male R 1 4 8 self immoralOther H h 1 0.6391 
17-May-2018_15:29:05 7319 19 male R 1 4 9 self immoralOther H h 1 0.4575 
17-May-2018_15:29:07 7319 19 male R 1 4 10 self immoralOther H h 1 0.4867 
17-May-2018_15:29:09 7319 19 male R 1 4 11 self moralSelf J j 1 0.5890 
17-May-2018_15:29:11 7319 19 male R 1 4 12 self immoralSelf J j 1 0.4468 
17-May-2018_15:29:12 7319 19 male R 1 4 13 self immoralSelf J j 1 0.3636 
17-May-2018_15:29:14 7319 19 male R 1 4 14 self moralOther H h 1 0.4516 
17-May-2018_15:29:16 7319 19 male R 1 4 15 self immoralSelf J j 1 0.4206 
17-May-2018_15:29:18 7319 19 male R 1 4 16 self moralSelf J j 1 0.5940 
17-May-2018_15:29:20 7319 19 male R 1 4 17 self immoralOther H j 0 0.3860 
17-May-2018_15:29:21 7319 19 male R 1 4 18 self immoralOther H h 1 0.5188 
17-May-2018_15:29:23 7319 19 male R 1 4 19 self moralOther H h 1 0.3095 
17-May-2018_15:29:25 7319 19 male R 1 4 20 self immoralSelf J j 1 0.4709 
17-May-2018_15:29:26 7319 19 male R 1 4 21 self moralSelf J j 1 0.3345 
17-May-2018_15:29:28 7319 19 male R 1 4 22 self moralSelf J j 1 0.3783 
17-May-2018_15:29:30 7319 19 male R 1 4 23 self moralSelf J j 1 0.3449 
17-May-2018_15:29:32 7319 19 male R 1 4 24 self moralOther H h 1 0.4397 
17-May-2018_15:30:10 7319 19 male R 1 5 1 self immoralOther H h 1 0.6561 
17-May-2018_15:30:12 7319 19 male R 1 5 2 self moralOther H h 1 0.3824 
17-May-2018_15:30:13 7319 19 male R 1 5 3 self immoralSelf J j 1 0.4959 
17-May-2018_15:30:15 7319 19 male R 1 5 4 self immoralOther H h 1 0.3641 
17-May-2018_15:30:17 7319 19 male R 1 5 5 self moralOther H h 1 0.5040 
17-May-2018_15:30:19 7319 19 male R 1 5 6 self immoralSelf J j 1 0.4509 
17-May-2018_15:30:21 7319 19 male R 1 5 7 self immoralOther H h 1 0.4495 
17-May-2018_15:30:23 7319 19 male R 1 5 8 self moralSelf J j 1 0.5714 
17-May-2018_15:30:24 7319 19 male R 1 5 9 self moralOther H h 1 0.4172 
17-May-2018_15:30:26 7319 19 male R 1 5 10 self moralOther H h 1 0.4478 
17-May-2018_15:30:28 7319 19 male R 1 5 11 self immoralOther H h 1 0.6263 
17-May-2018_15:30:29 7319 19 male R 1 5 12 self moralSelf J h 0 0.3665 
17-May-2018_15:30:31 7319 19 male R 1 5 13 self immoralOther H h 1 0.5134 
17-May-2018_15:30:33 7319 19 male R 1 5 14 self moralOther H h 1 0.3483 
17-May-2018_15:30:35 7319 19 male R 1 5 15 self immoralOther H h 1 0.3456 
17-May-2018_15:30:36 7319 19 male R 1 5 16 self moralSelf J j 1 0.4657 
17-May-2018_15:30:38 7319 19 male R 1 5 17 self immoralSelf J j 1 0.5006 
17-May-2018_15:30:40 7319 19 male R 1 5 18 self moralSelf J j 1 0.4017 
17-May-2018_15:30:41 7319 19 male R 1 5 19 self moralSelf J j 1 0.3157 
17-May-2018_15:30:43 7319 19 male R 1 5 20 self immoralSelf J j 1 0.5426 
17-May-2018_15:30:45 7319 19 male R 1 5 21 self moralOther H h 1 0.4505 
17-May-2018_15:30:46 7319 19 male R 1 5 22 self immoralSelf J j 1 0.5395 
17-May-2018_15:30:48 7319 19 male R 1 5 23 self moralSelf J j 1 0.5202 
17-May-2018_15:30:50 7319 19 male R 1 5 24 self immoralSelf J j 1 0.4610 
Date Sub Age Sex Hand Block Bin Trial Task Shape corrResp Resp ACC RT
17-May-2018_15:34:20 7319 19 male R 2 1 1 moral immoralSelf Y y 1 0.4477 
17-May-2018_15:34:22 7319 19 male R 2 1 2 moral moralOther U u 1 0.4571 
17-May-2018_15:34:24 7319 19 male R 2 1 3 moral immoralOther Y y 1 0.3485 
17-May-2018_15:34:25 7319 19 male R 2 1 4 moral moralSelf U y 0 0.5914 
17-May-2018_15:34:27 7319 19 male R 2 1 5 moral moralSelf U u 1 0.6867 
17-May-2018_15:34:29 7319 19 male R 2 1 6 moral immoralOther Y y 1 0.5346 
17-May-2018_15:34:31 7319 19 male R 2 1 7 moral moralOther U u 1 0.4067 
17-May-2018_15:34:33 7319 19 male R 2 1 8 moral immoralOther Y y 1 0.3456 
17-May-2018_15:34:34 7319 19 male R 2 1 9 moral moralSelf U u 1 0.5141 
17-May-2018_15:34:37 7319 19 male R 2 1 10 moral immoralSelf Y y 1 0.7127 
17-May-2018_15:34:38 7319 19 male R 2 1 11 moral immoralOther Y y 1 0.3684 
17-May-2018_15:34:40 7319 19 male R 2 1 12 moral immoralOther Y y 1 0.4038 
17-May-2018_15:34:42 7319 19 male R 2 1 13 moral moralOther U u 1 0.5539 
17-May-2018_15:34:43 7319 19 male R 2 1 14 moral immoralSelf Y y 1 0.5851 
17-May-2018_15:34:46 7319 19 male R 2 1 15 moral moralSelf U u 1 0.7752 
17-May-2018_15:34:47 7319 19 male R 2 1 16 moral moralOther U u 1 0.5522 
17-May-2018_15:34:49 7319 19 male R 2 1 17 moral immoralSelf Y y 1 0.5072 
17-May-2018_15:34:51 7319 19 male R 2 1 18 moral moralOther U u 1 0.5496 
17-May-2018_15:34:53 7319 19 male R 2 1 19 moral moralSelf U u 1 0.5863 
17-May-2018_15:34:55 7319 19 male R 2 1 20 moral moralSelf U u 1 0.3662 
17-May-2018_15:34:56 7319 19 male R 2 1 21 moral immoralSelf Y u 0 0.3888 
17-May-2018_15:34:58 7319 19 male R 2 1 22 moral immoralSelf Y y 1 0.4270 
17-May-2018_15:35:00 7319 19 male R 2 1 23 moral immoralOther Y y 1 0.3626 
17-May-2018_15:35:01 7319 19 male R 2 1 24 moral moralOther U u 1 0.4558 
17-May-2018_15:35:03 7319 19 male R 2 2 1 moral immoralOther Y y 1 0.5373 
17-May-2018_15:35:05 7319 19 male R 2 2 2 moral immoralOther Y y 1 0.3976 
17-May-2018_15:35:07 7319 19 male R 2 2 3 moral moralOther U u 1 0.4156 
17-May-2018_15:35:09 7319 19 male R 2 2 4 moral immoralSelf Y y 1 0.6203 
17-May-2018_15:35:10 7319 19 male R 2 2 5 moral immoralOther Y y 1 0.3917 
17-May-2018_15:35:12 7319 19 male R 2 2 6 moral immoralSelf Y y 1 0.4939 
17-May-2018_15:35:14 7319 19 male R 2 2 7 moral moralSelf U u 1 0.4657 
17-May-2018_15:35:16 7319 19 male R 2 2 8 moral moralOther U u 1 0.6766 
17-May-2018_15:35:18 7319 19 male R 2 2 9 moral moralOther U u 1 0.5351 
17-May-2018_15:35:19 7319 19 male R 2 2 10 moral moralOther U u 1 0.3506 
17-May-2018_15:35:21 7319 19 male R 2 2 11 moral moralOther U u 1 0.3549 
17-May-2018_15:35:23 7319 19 male R 2 2 12 moral moralSelf U u 1 0.5630 
17-May-2018_15:35:25 7319 19 male R 2 2 13 moral moralOther U u 1 0.4755 
17-May-2018_15:35:26 7319 19 male R 2 2 14 moral moralSelf U u 1 0.4699 
17-May-2018_15:35:28 7319 19 male R 2 2 15 moral immoralOther Y y 1 0.5039 
17-May-2018_15:35:30 7319 19 male R 2 2 16 moral immoralSelf Y y 1 0.2738 
17-May-2018_15:35:31 7319 19 male R 2 2 17 moral moralSelf U u 1 0.4928 
17-May-2018_15:35:33 7319 19 male R 2 2 18 moral immoralSelf Y y 1 0.3328 
17-May-2018_15:35:34 7319 19 male R 2 2 19 moral immoralOther Y y 1 0.4821 
17-May-2018_15:35:36 7319 19 male R 2 2 20 moral immoralOther Y y 1 0.5202 
17-May-2018_15:35:38 7319 19 male R 2 2 21 moral moralSelf U u 1 0.3711 
17-May-2018_15:35:39 7319 19 male R 2 2 22 moral immoralSelf Y y 1 0.4245 
17-May-2018_15:35:41 7319 19 male R 2 2 23 moral immoralSelf Y y 1 0.3838 
17-May-2018_15:35:43 7319 19 male R 2 2 24 moral moralSelf U u 1 0.4484 
17-May-2018_15:37:26 7319 19 male R 2 3 1 moral immoralOther Y y 1 0.7906 
17-May-2018_15:37:28 7319 19 male R 2 3 2 moral moralOther U u 1 0.4156 
17-May-2018_15:37:30 7319 19 male R 2 3 3 moral moralSelf U y 0 0.3979 
17-May-2018_15:37:31 7319 19 male R 2 3 4 moral moralOther U u 1 0.5564 
17-May-2018_15:37:33 7319 19 male R 2 3 5 moral immoralSelf Y y 1 0.4088 
17-May-2018_15:37:34 7319 19 male R 2 3 6 moral immoralOther Y y 1 0.3335 
17-May-2018_15:37:36 7319 19 male R 2 3 7 moral moralSelf U u 1 0.4583 
17-May-2018_15:37:38 7319 19 male R 2 3 8 moral immoralOther Y y 1 0.3573 
17-May-2018_15:37:40 7319 19 male R 2 3 9 moral immoralOther Y y 1 0.4580 
17-May-2018_15:37:42 7319 19 male R 2 3 10 moral moralSelf U u 1 0.4629 
17-May-2018_15:37:43 7319 19 male R 2 3 11 moral immoralSelf Y y 1 0.4106 
17-May-2018_15:37:45 7319 19 male R 2 3 12 moral immoralSelf Y y 1 0.5880 
17-May-2018_15:37:47 7319 19 male R 2 3 13 moral immoralSelf Y y 1 0.3825 
17-May-2018_15:37:48 7319 19 male R 2 3 14 moral moralSelf U y 0 0.3317 
17-May-2018_15:37:50 7319 19 male R 2 3 15 moral moralOther U u 1 0.5557 
17-May-2018_15:37:52 7319 19 male R 2 3 16 moral moralOther U u 1 0.3670 
17-May-2018_15:37:54 7319 19 male R 2 3 17 moral immoralOther Y y 1 0.6175 
17-May-2018_15:37:55 7319 19 male R 2 3 18 moral moralOther U u 1 0.3550 
17-May-2018_15:37:57 7319 19 male R 2 3 19 moral immoralSelf Y y 1 0.4709 
17-May-2018_15:37:58 7319 19 male R 2 3 20 moral immoralSelf Y y 1 0.3853 
17-May-2018_15:38:00 7319 19 male R 2 3 21 moral moralSelf U u 1 0.6164 
17-May-2018_15:38:02 7319 19 male R 2 3 22 moral immoralOther Y y 1 0.4550 
17-May-2018_15:38:03 7319 19 male R 2 3 23 moral moralOther U u 1 0.4452 
17-May-2018_15:38:05 7319 19 male R 2 3 24 moral moralSelf U u 1 0.4773 
17-May-2018_15:38:06 7319 19 male R 2 4 1 moral moralOther U u 1 0.5930 
17-May-2018_15:38:08 7319 19 male R 2 4 2 moral moralOther U u 1 0.4261 
17-May-2018_15:38:10 7319 19 male R 2 4 3 moral immoralSelf Y y 1 0.4873 
17-May-2018_15:38:12 7319 19 male R 2 4 4 moral moralOther U u 1 0.5415 
17-May-2018_15:38:14 7319 19 male R 2 4 5 moral moralOther U u 1 0.5021 
17-May-2018_15:38:15 7319 19 male R 2 4 6 moral immoralSelf Y y 1 0.5040 
17-May-2018_15:38:18 7319 19 male R 2 4 7 moral immoralOther Y y 1 0.7253 
17-May-2018_15:38:19 7319 19 male R 2 4 8 moral moralSelf U u 1 0.5004 
17-May-2018_15:38:21 7319 19 male R 2 4 9 moral moralSelf U u 1 0.4785 
17-May-2018_15:38:22 7319 19 male R 2 4 10 moral immoralOther Y y 1 0.4784 
17-May-2018_15:38:24 7319 19 male R 2 4 11 moral immoralOther Y y 1 0.4767 
17-May-2018_15:38:26 7319 19 male R 2 4 12 moral immoralSelf Y y 1 0.5077 
17-May-2018_15:38:28 7319 19 male R 2 4 13 moral immoralSelf Y y 1 0.4099 
17-May-2018_15:38:29 7319 19 male R 2 4 14 moral immoralOther Y u 0 0.4787 
17-May-2018_15:38:31 7319 19 male R 2 4 15 moral immoralOther Y y 1 0.3474 
17-May-2018_15:38:33 7319 19 male R 2 4 16 moral immoralSelf Y y 1 0.5710 
17-May-2018_15:38:34 7319 19 male R 2 4 17 moral moralSelf U y 0 0.3340 
17-May-2018_15:38:36 7319 19 male R 2 4 18 moral immoralSelf Y y 1 0.4418 
17-May-2018_15:38:38 7319 19 male R 2 4 19 moral immoralOther Y y 1 0.4606 
17-May-2018_15:38:39 7319 19 male R 2 4 20 moral moralOther U u 1 0.4301 
17-May-2018_15:38:41 7319 19 male R 2 4 21 moral moralOther U u 1 0.4443 
17-May-2018_15:38:42 7319 19 male R 2 4 22 moral moralSelf U u 1 0.3008 
17-May-2018_15:38:44 7319 19 male R 2 4 23 moral moralSelf U u 1 0.3465 
17-May-2018_15:38:46 7319 19 male R 2 4 24 moral moralSelf U u 1 0.3189 
17-May-2018_15:39:19 7319 19 male R 2 5 1 moral immoralOther Y y 1 0.5600 
17-May-2018_15:39:20 7319 19 male R 2 5 2 moral immoralOther Y y 1 0.4076 
17-May-2018_15:39:22 7319 19 male R 2 5 3 moral moralSelf U u 1 0.4006 
17-May-2018_15:39:23 7319 19 male R 2 5 4 moral immoralSelf Y y 1 0.4215 
17-May-2018_15:39:25 7319 19 male R 2 5 5 moral immoralSelf Y y 1 0.3843 
17-May-2018_15:39:27 7319 19 male R 2 5 6 moral immoralOther Y y 1 0.6159 
17-May-2018_15:39:29 7319 19 male R 2 5 7 moral immoralSelf Y y 1 0.3392 
17-May-2018_15:39:30 7319 19 male R 2 5 8 moral moralSelf U u 1 0.3337 
17-May-2018_15:39:32 7319 19 male R 2 5 9 moral moralOther U u 1 0.3497 
17-May-2018_15:39:34 7319 19 male R 2 5 10 moral moralSelf U u 1 0.3140 
17-May-2018_15:39:35 7319 19 male R 2 5 11 moral moralOther U u 1 0.4859 
17-May-2018_15:39:37 7319 19 male R 2 5 12 moral moralOther U u 1 0.5362 
17-May-2018_15:39:39 7319 19 male R 2 5 13 moral moralOther U u 1 0.3250 
17-May-2018_15:39:41 7319 19 male R 2 5 14 moral moralSelf U u 1 0.4351 
17-May-2018_15:39:43 7319 19 male R 2 5 15 moral moralOther U u 1 0.5171 
17-May-2018_15:39:44 7319 19 male R 2 5 16 moral moralSelf U u 1 0.4114 
17-May-2018_15:39:46 7319 19 male R 2 5 17 moral immoralSelf Y y 1 0.4467 
17-May-2018_15:39:48 7319 19 male R 2 5 18 moral moralOther U u 1 0.4373 
17-May-2018_15:39:49 7319 19 male R 2 5 19 moral immoralOther Y y 1 0.3866 
17-May-2018_15:39:51 7319 19 male R 2 5 20 moral immoralOther Y y 1 0.2946 
17-May-2018_15:39:52 7319 19 male R 2 5 21 moral immoralSelf Y y 1 0.5632 
17-May-2018_15:39:54 7319 19 male R 2 5 22 moral immoralSelf Y y 1 0.3448 
17-May-2018_15:39:56 7319 19 male R 2 5 23 moral moralSelf U u 1 0.5351 
17-May-2018_15:39:58 7319 19 male R 2 5 24 moral immoralOther Y y 1 0.5539 
Date Sub Age Sex Hand Block Bin Trial Task Shape corrResp Resp ACC RT
17-May-2018_15:43:27 7319 19 male R 3 1 1 moral immoralOther Y y 1 0.4949 
17-May-2018_15:43:29 7319 19 male R 3 1 2 moral immoralOther Y y 1 0.3451 
17-May-2018_15:43:31 7319 19 male R 3 1 3 moral moralSelf U u 1 0.4571 
17-May-2018_15:43:32 7319 19 male R 3 1 4 moral immoralOther Y y 1 0.4317 
17-May-2018_15:43:34 7319 19 male R 3 1 5 moral moralOther U u 1 0.5014 
17-May-2018_15:43:36 7319 19 male R 3 1 6 moral moralSelf U u 1 0.6393 
17-May-2018_15:43:38 7319 19 male R 3 1 7 moral immoralSelf Y y 1 0.8141 
17-May-2018_15:43:40 7319 19 male R 3 1 8 moral immoralOther Y y 1 0.4043 
17-May-2018_15:43:41 7319 19 male R 3 1 9 moral moralOther U u 1 0.4663 
17-May-2018_15:43:43 7319 19 male R 3 1 10 moral immoralOther Y y 1 0.5097 
17-May-2018_15:43:45 7319 19 male R 3 1 11 moral moralOther U u 1 0.3131 
17-May-2018_15:43:47 7319 19 male R 3 1 12 moral moralSelf U u 1 0.7212 
17-May-2018_15:43:49 7319 19 male R 3 1 13 moral immoralOther Y y 1 0.5645 
17-May-2018_15:43:50 7319 19 male R 3 1 14 moral moralOther U u 1 0.3189 
17-May-2018_15:43:52 7319 19 male R 3 1 15 moral moralSelf U u 1 0.4856 
17-May-2018_15:43:53 7319 19 male R 3 1 16 moral moralOther U u 1 0.4677 
17-May-2018_15:43:55 7319 19 male R 3 1 17 moral moralSelf U u 1 0.4523 
17-May-2018_15:43:57 7319 19 male R 3 1 18 moral immoralSelf Y u 0 0.3574 
17-May-2018_15:43:58 7319 19 male R 3 1 19 moral immoralSelf Y y 1 0.3159 
17-May-2018_15:44:00 7319 19 male R 3 1 20 moral immoralSelf Y y 1 0.2634 
17-May-2018_15:44:01 7319 19 male R 3 1 21 moral immoralSelf Y y 1 0.2898 
17-May-2018_15:44:03 7319 19 male R 3 1 22 moral moralOther U u 1 0.6512 
17-May-2018_15:44:05 7319 19 male R 3 1 23 moral immoralSelf Y y 1 0.4597 
17-May-2018_15:44:07 7319 19 male R 3 1 24 moral moralSelf U u 1 0.5502 
17-May-2018_15:44:09 7319 19 male R 3 2 1 moral immoralSelf Y y 1 0.4613 
17-May-2018_15:44:10 7319 19 male R 3 2 2 moral moralOther U u 1 0.4138 
17-May-2018_15:44:12 7319 19 male R 3 2 3 moral immoralOther Y y 1 0.3866 
17-May-2018_15:44:14 7319 19 male R 3 2 4 moral moralOther U u 1 0.4261 
17-May-2018_15:44:15 7319 19 male R 3 2 5 moral immoralSelf Y y 1 0.3647 
17-May-2018_15:44:17 7319 19 male R 3 2 6 moral moralSelf U u 1 0.5440 
17-May-2018_15:44:19 7319 19 male R 3 2 7 moral immoralOther Y y 1 0.4673 
17-May-2018_15:44:20 7319 19 male R 3 2 8 moral moralOther U y 0 0.5064 
17-May-2018_15:44:22 7319 19 male R 3 2 9 moral immoralOther Y y 1 0.5159 
17-May-2018_15:44:24 7319 19 male R 3 2 10 moral moralSelf U u 1 0.4933 
17-May-2018_15:44:25 7319 19 male R 3 2 11 moral moralSelf U u 1 0.3123 
17-May-2018_15:44:27 7319 19 male R 3 2 12 moral immoralSelf Y y 1 0.3971 
17-May-2018_15:44:28 7319 19 male R 3 2 13 moral immoralSelf Y y 1 0.4362 
17-May-2018_15:44:30 7319 19 male R 3 2 14 moral moralOther U u 1 0.5732 
17-May-2018_15:44:32 7319 19 male R 3 2 15 moral immoralOther Y y 1 0.5196 
17-May-2018_15:44:34 7319 19 male R 3 2 16 moral immoralOther Y y 1 0.4354 
17-May-2018_15:44:36 7319 19 male R 3 2 17 moral moralSelf U u 1 0.6049 
17-May-2018_15:44:37 7319 19 male R 3 2 18 moral moralSelf U u 1 0.3818 
17-May-2018_15:44:39 7319 19 male R 3 2 19 moral immoralOther Y y 1 0.5943 
17-May-2018_15:44:41 7319 19 male R 3 2 20 moral immoralSelf Y y 1 0.6423 
17-May-2018_15:44:43 7319 19 male R 3 2 21 moral moralSelf U u 1 0.5266 
17-May-2018_15:44:44 7319 19 male R 3 2 22 moral moralOther U u 1 0.4123 
17-May-2018_15:44:46 7319 19 male R 3 2 23 moral immoralSelf Y y 1 0.5747 
17-May-2018_15:44:48 7319 19 male R 3 2 24 moral moralOther U u 1 0.3771 
17-May-2018_15:44:55 7319 19 male R 3 3 1 moral moralSelf U y 0 0.7262 
17-May-2018_15:44:56 7319 19 male R 3 3 2 moral immoralOther Y y 1 0.4477 
17-May-2018_15:44:58 7319 19 male R 3 3 3 moral moralOther U u 1 0.5060 
17-May-2018_15:45:00 7319 19 male R 3 3 4 moral immoralSelf Y y 1 0.4849 
17-May-2018_15:45:02 7319 19 male R 3 3 5 moral moralOther U u 1 0.4567 
17-May-2018_15:45:03 7319 19 male R 3 3 6 moral immoralSelf Y y 1 0.4600 
17-May-2018_15:45:05 7319 19 male R 3 3 7 moral immoralSelf Y y 1 0.3627 
17-May-2018_15:45:06 7319 19 male R 3 3 8 moral immoralOther Y y 1 0.5318 
17-May-2018_15:45:08 7319 19 male R 3 3 9 moral moralSelf U u 1 0.4104 
17-May-2018_15:45:10 7319 19 male R 3 3 10 moral moralSelf U u 1 0.2424 
17-May-2018_15:45:12 7319 19 male R 3 3 11 moral moralOther U u 1 0.4990 
17-May-2018_15:45:13 7319 19 male R 3 3 12 moral immoralSelf Y y 1 0.4011 
17-May-2018_15:45:15 7319 19 male R 3 3 13 moral moralSelf U u 1 0.3020 
17-May-2018_15:45:16 7319 19 male R 3 3 14 moral immoralSelf Y y 1 0.3858 
17-May-2018_15:45:18 7319 19 male R 3 3 15 moral immoralSelf Y u 0 0.2955 
17-May-2018_15:45:19 7319 19 male R 3 3 16 moral moralSelf U u 1 0.4367 
17-May-2018_15:45:21 7319 19 male R 3 3 17 moral immoralOther Y y 1 0.5468 
17-May-2018_15:45:23 7319 19 male R 3 3 18 moral immoralOther Y y 1 0.3563 
17-May-2018_15:45:25 7319 19 male R 3 3 19 moral moralOther U u 1 0.3767 
17-May-2018_15:45:27 7319 19 male R 3 3 20 moral moralOther U u 1 0.3757 
17-May-2018_15:45:28 7319 19 male R 3 3 21 moral immoralOther Y y 1 0.3443 
17-May-2018_15:45:29 7319 19 male R 3 3 22 moral moralOther U u 1 0.4799 
17-May-2018_15:45:31 7319 19 male R 3 3 23 moral moralSelf U u 1 0.5035 
17-May-2018_15:45:33 7319 19 male R 3 3 24 moral immoralOther Y y 1 0.5450 
17-May-2018_15:45:35 7319 19 male R 3 4 1 moral immoralSelf Y y 1 0.5069 
17-May-2018_15:45:37 7319 19 male R 3 4 2 moral moralOther U u 1 0.3066 
17-May-2018_15:45:38 7319 19 male R 3 4 3 moral immoralSelf Y y 1 0.5598 
17-May-2018_15:45:40 7319 19 male R 3 4 4 moral moralOther U u 1 0.4544 
17-May-2018_15:45:42 7319 19 male R 3 4 5 moral moralSelf U u 1 0.4842 
17-May-2018_15:45:44 7319 19 male R 3 4 6 moral immoralOther Y y 1 0.4814 
17-May-2018_15:45:45 7319 19 male R 3 4 7 moral immoralOther Y y 1 0.3926 
17-May-2018_15:45:47 7319 19 male R 3 4 8 moral immoralSelf Y y 1 0.4654 
17-May-2018_15:45:49 7319 19 male R 3 4 9 moral moralSelf U u 1 0.5634 
17-May-2018_15:45:51 7319 19 male R 3 4 10 moral immoralOther Y y 1 0.5706 
17-May-2018_15:45:53 7319 19 male R 3 4 11 moral immoralSelf Y y 1 0.5010 
17-May-2018_15:45:54 7319 19 male R 3 4 12 moral immoralSelf Y y 1 0.3933 
17-May-2018_15:45:56 7319 19 male R 3 4 13 moral immoralOther Y y 1 0.6536 
17-May-2018_15:45:58 7319 19 male R 3 4 14 moral moralOther U u 1 0.4833 
17-May-2018_15:46:00 7319 19 male R 3 4 15 moral immoralOther Y y 1 0.6467 
17-May-2018_15:46:01 7319 19 male R 3 4 16 moral moralOther U u 1 0.4566 
17-May-2018_15:46:03 7319 19 male R 3 4 17 moral moralSelf U u 1 0.3367 
17-May-2018_15:46:05 7319 19 male R 3 4 18 moral immoralSelf Y y 1 0.3758 
17-May-2018_15:46:06 7319 19 male R 3 4 19 moral immoralOther Y y 1 0.4252 
17-May-2018_15:46:08 7319 19 male R 3 4 20 moral moralSelf U u 1 0.4545 
17-May-2018_15:46:10 7319 19 male R 3 4 21 moral moralOther U u 1 0.4762 
17-May-2018_15:46:12 7319 19 male R 3 4 22 moral moralSelf U u 1 0.8302 
17-May-2018_15:46:14 7319 19 male R 3 4 23 moral moralOther U u 1 0.4942 
17-May-2018_15:46:16 7319 19 male R 3 4 24 moral moralSelf U u 1 0.4850 
17-May-2018_15:46:40 7319 19 male R 3 5 1 moral moralSelf U u 1 0.8279 
17-May-2018_15:46:42 7319 19 male R 3 5 2 moral immoralOther Y y 1 0.4703 
17-May-2018_15:46:43 7319 19 male R 3 5 3 moral moralOther U u 1 0.4324 
17-May-2018_15:46:45 7319 19 male R 3 5 4 moral moralSelf U u 1 0.5398 
17-May-2018_15:46:47 7319 19 male R 3 5 5 moral moralOther U u 1 0.4189 
17-May-2018_15:46:48 7319 19 male R 3 5 6 moral immoralSelf Y y 1 0.4993 
17-May-2018_15:46:50 7319 19 male R 3 5 7 moral moralSelf U u 1 0.3715 
17-May-2018_15:46:52 7319 19 male R 3 5 8 moral moralOther U u 1 0.3723 
17-May-2018_15:46:53 7319 19 male R 3 5 9 moral moralOther U u 1 0.3368 
17-May-2018_15:46:55 7319 19 male R 3 5 10 moral moralSelf U u 1 0.3439 
17-May-2018_15:46:56 7319 19 male R 3 5 11 moral immoralOther Y y 1 0.4596 
17-May-2018_15:46:58 7319 19 male R 3 5 12 moral moralOther U u 1 0.5034 
17-May-2018_15:47:00 7319 19 male R 3 5 13 moral immoralOther Y y 1 0.7138 
17-May-2018_15:47:01 7319 19 male R 3 5 14 moral immoralOther Y y 1 0.4363 
17-May-2018_15:47:03 7319 19 male R 3 5 15 moral immoralOther Y y 1 0.3065 
17-May-2018_15:47:05 7319 19 male R 3 5 16 moral immoralOther Y y 1 0.3856 
17-May-2018_15:47:06 7319 19 male R 3 5 17 moral immoralSelf Y y 1 0.4063 
17-May-2018_15:47:08 7319 19 male R 3 5 18 moral immoralSelf Y y 1 0.3099 
17-May-2018_15:47:10 7319 19 male R 3 5 19 moral moralSelf U u 1 0.4300 
17-May-2018_15:47:11 7319 19 male R 3 5 20 moral moralOther U u 1 0.2244 
17-May-2018_15:47:13 7319 19 male R 3 5 21 moral immoralSelf Y y 1 0.4278 
17-May-2018_15:47:15 7319 19 male R 3 5 22 moral moralSelf U y 0 0.4509 
17-May-2018_15:47:16 7319 19 male R 3 5 23 moral immoralSelf Y y 1 0.4444 
17-May-2018_15:47:18 7319 19 male R 3 5 24 moral immoralSelf Y y 1 0.3588 
Date Sub Age Sex Hand Block Bin Trial Task Shape corrResp Resp ACC RT
17-May-2018_15:50:11 7319 19 male R 4 1 1 self immoralSelf J j 1 0.3840 
17-May-2018_15:50:13 7319 19 male R 4 1 2 self immoralOther H h 1 0.4844 
17-May-2018_15:50:15 7319 19 male R 4 1 3 self moralOther H h 1 0.5814 
17-May-2018_15:50:16 7319 19 male R 4 1 4 self moralSelf J j 1 0.5245 
17-May-2018_15:50:18 7319 19 male R 4 1 5 self immoralSelf J j 1 0.5031 
17-May-2018_15:50:20 7319 19 male R 4 1 6 self moralSelf J j 1 0.3426 
17-May-2018_15:50:22 7319 19 male R 4 1 7 self moralOther H h 1 0.4824 
17-May-2018_15:50:23 7319 19 male R 4 1 8 self moralOther H j 0 0.3959 
17-May-2018_15:50:25 7319 19 male R 4 1 9 self immoralOther H h 1 0.5885 
17-May-2018_15:50:26 7319 19 male R 4 1 10 self immoralOther H h 1 0.3631 
17-May-2018_15:50:28 7319 19 male R 4 1 11 self moralOther H h 1 0.4342 
17-May-2018_15:50:30 7319 19 male R 4 1 12 self immoralSelf J j 1 0.6117 
17-May-2018_15:50:32 7319 19 male R 4 1 13 self moralOther H h 1 0.5482 
17-May-2018_15:50:34 7319 19 male R 4 1 14 self immoralSelf J j 1 0.4334 
17-May-2018_15:50:35 7319 19 male R 4 1 15 self immoralSelf J j 1 0.2764 
17-May-2018_15:50:37 7319 19 male R 4 1 16 self moralSelf J j 1 0.3907 
17-May-2018_15:50:39 7319 19 male R 4 1 17 self immoralOther H h 1 0.4355 
17-May-2018_15:50:41 7319 19 male R 4 1 18 self immoralOther H h 1 0.4338 
17-May-2018_15:50:42 7319 19 male R 4 1 19 self moralSelf J h 0 0.4027 
17-May-2018_15:50:44 7319 19 male R 4 1 20 self immoralSelf J j 1 0.4099 
17-May-2018_15:50:46 7319 19 male R 4 1 21 self moralOther H j 0 0.3177 
17-May-2018_15:50:47 7319 19 male R 4 1 22 self immoralOther H h 1 0.4891 
17-May-2018_15:50:49 7319 19 male R 4 1 23 self moralSelf J j 1 0.5474 
17-May-2018_15:50:51 7319 19 male R 4 1 24 self moralSelf J j 1 0.3936 
17-May-2018_15:50:52 7319 19 male R 4 2 1 self immoralSelf J j 1 0.3415 
17-May-2018_15:50:54 7319 19 male R 4 2 2 self moralSelf J h 0 0.4314 
17-May-2018_15:50:56 7319 19 male R 4 2 3 self moralSelf J j 1 0.5096 
17-May-2018_15:50:58 7319 19 male R 4 2 4 self moralSelf J j 1 0.3021 
17-May-2018_15:50:59 7319 19 male R 4 2 5 self immoralSelf J j 1 0.4767 
17-May-2018_15:51:01 7319 19 male R 4 2 6 self immoralSelf J j 1 0.3728 
17-May-2018_15:51:03 7319 19 male R 4 2 7 self moralOther H h 1 0.3568 
17-May-2018_15:51:04 7319 19 male R 4 2 8 self moralSelf J j 1 0.4887 
17-May-2018_15:51:06 7319 19 male R 4 2 9 self immoralSelf J j 1 0.5758 
17-May-2018_15:51:08 7319 19 male R 4 2 10 self immoralSelf J j 1 0.4121 
17-May-2018_15:51:09 7319 19 male R 4 2 11 self moralOther H h 1 0.3717 
17-May-2018_15:51:11 7319 19 male R 4 2 12 self moralOther H h 1 0.5102 
17-May-2018_15:51:13 7319 19 male R 4 2 13 self immoralOther H h 1 0.4552 
17-May-2018_15:51:14 7319 19 male R 4 2 14 self immoralOther H h 1 0.3028 
17-May-2018_15:51:16 7319 19 male R 4 2 15 self immoralSelf J j 1 0.4383 
17-May-2018_15:51:18 7319 19 male R 4 2 16 self moralOther H h 1 0.4384 
17-May-2018_15:51:19 7319 19 male R 4 2 17 self moralOther H h 1 0.3604 
17-May-2018_15:51:21 7319 19 male R 4 2 18 self moralOther H h 1 0.2725 
17-May-2018_15:51:23 7319 19 male R 4 2 19 self moralSelf J h 0 0.3948 
17-May-2018_15:51:24 7319 19 male R 4 2 20 self immoralOther H h 1 0.3680 
17-May-2018_15:51:26 7319 19 male R 4 2 21 self immoralOther H h 1 0.5795 
17-May-2018_15:51:28 7319 19 male R 4 2 22 self moralSelf J j 1 0.3762 
17-May-2018_15:51:29 7319 19 male R 4 2 23 self immoralOther H h 1 0.4821 
17-May-2018_15:51:31 7319 19 male R 4 2 24 self immoralOther H h 1 0.4267 
17-May-2018_15:51:43 7319 19 male R 4 3 1 self immoralSelf J j 1 0.3880 
17-May-2018_15:51:44 7319 19 male R 4 3 2 self moralSelf J j 1 0.2927 
17-May-2018_15:51:46 7319 19 male R 4 3 3 self immoralOther H h 1 0.4752 
17-May-2018_15:51:48 7319 19 male R 4 3 4 self moralSelf J j 1 0.4225 
17-May-2018_15:51:50 7319 19 male R 4 3 5 self immoralOther H h 1 0.4442 
17-May-2018_15:51:51 7319 19 male R 4 3 6 self immoralSelf J j 1 0.6190 
17-May-2018_15:51:53 7319 19 male R 4 3 7 self moralSelf J j 1 0.3315 
17-May-2018_15:51:55 7319 19 male R 4 3 8 self immoralSelf J j 1 0.4976 
17-May-2018_15:51:56 7319 19 male R 4 3 9 self moralOther H h 1 0.4468 
17-May-2018_15:51:58 7319 19 male R 4 3 10 self immoralSelf J j 1 0.5242 
17-May-2018_15:52:00 7319 19 male R 4 3 11 self immoralSelf J j 1 0.4023 
17-May-2018_15:52:01 7319 19 male R 4 3 12 self immoralSelf J j 1 0.2876 
17-May-2018_15:52:03 7319 19 male R 4 3 13 self moralOther H j 0 0.3987 
17-May-2018_15:52:05 7319 19 male R 4 3 14 self moralSelf J j 1 0.4834 
17-May-2018_15:52:06 7319 19 male R 4 3 15 self immoralOther H h 1 0.5382 
17-May-2018_15:52:08 7319 19 male R 4 3 16 self moralOther H h 1 0.4441 
17-May-2018_15:52:10 7319 19 male R 4 3 17 self moralSelf J j 1 0.4427 
17-May-2018_15:52:12 7319 19 male R 4 3 18 self immoralOther H h 1 0.5213 
17-May-2018_15:52:14 7319 19 male R 4 3 19 self immoralOther H h 1 0.6969 
17-May-2018_15:52:16 7319 19 male R 4 3 20 self moralOther H h 1 0.4288 
17-May-2018_15:52:18 7319 19 male R 4 3 21 self moralSelf J j 1 0.4900 
17-May-2018_15:52:19 7319 19 male R 4 3 22 self immoralOther H h 1 0.4841 
17-May-2018_15:52:21 7319 19 male R 4 3 23 self moralOther H h 1 0.5438 
17-May-2018_15:52:23 7319 19 male R 4 3 24 self moralOther H h 1 0.3967 
17-May-2018_15:52:24 7319 19 male R 4 4 1 self moralOther H h 1 0.4169 
17-May-2018_15:52:26 7319 19 male R 4 4 2 self moralOther H h 1 0.3868 
17-May-2018_15:52:28 7319 19 male R 4 4 3 self immoralOther H h 1 0.5365 
17-May-2018_15:52:30 7319 19 male R 4 4 4 self immoralSelf J j 1 0.4514 
17-May-2018_15:52:31 7319 19 male R 4 4 5 self immoralOther H h 1 0.4694 
17-May-2018_15:52:33 7319 19 male R 4 4 6 self moralSelf J j 1 0.5475 
17-May-2018_15:52:35 7319 19 male R 4 4 7 self immoralSelf J j 1 0.5529 
17-May-2018_15:52:37 7319 19 male R 4 4 8 self immoralSelf J j 1 0.5205 
17-May-2018_15:52:39 7319 19 male R 4 4 9 self moralOther H h 1 0.5831 
17-May-2018_15:52:41 7319 19 male R 4 4 10 self immoralSelf J j 1 0.5770 
17-May-2018_15:52:42 7319 19 male R 4 4 11 self moralOther H h 1 0.5206 
17-May-2018_15:52:44 7319 19 male R 4 4 12 self immoralSelf J j 1 0.3428 
17-May-2018_15:52:46 7319 19 male R 4 4 13 self moralOther H h 1 0.3909 
17-May-2018_15:52:47 7319 19 male R 4 4 14 self immoralOther H j 0 0.3575 
17-May-2018_15:52:49 7319 19 male R 4 4 15 self moralSelf J j 1 0.5204 
17-May-2018_15:52:51 7319 19 male R 4 4 16 self moralSelf J j 1 0.3972 
17-May-2018_15:52:52 7319 19 male R 4 4 17 self immoralOther H h 1 0.5116 
17-May-2018_15:52:54 7319 19 male R 4 4 18 self moralSelf J j 1 0.4834 
17-May-2018_15:52:56 7319 19 male R 4 4 19 self immoralOther H h 1 0.3390 
17-May-2018_15:52:58 7319 19 male R 4 4 20 self moralSelf J j 1 0.3104 
17-May-2018_15:52:59 7319 19 male R 4 4 21 self moralOther H h 1 0.4793 
17-May-2018_15:53:01 7319 19 male R 4 4 22 self moralSelf J j 1 0.5439 
17-May-2018_15:53:03 7319 19 male R 4 4 23 self immoralSelf J j 1 0.4184 
17-May-2018_15:53:05 7319 19 male R 4 4 24 self immoralOther H h 1 0.4085 
17-May-2018_15:53:51 7319 19 male R 4 5 1 self immoralSelf J j 1 0.3811 
17-May-2018_15:53:53 7319 19 male R 4 5 2 self immoralSelf J j 1 0.3459 
17-May-2018_15:53:55 7319 19 male R 4 5 3 self moralSelf J j 1 0.6457 
17-May-2018_15:53:57 7319 19 male R 4 5 4 self moralSelf J j 1 0.3348 
17-May-2018_15:53:58 7319 19 male R 4 5 5 self moralSelf J j 1 0.3028 
17-May-2018_15:54:00 7319 19 male R 4 5 6 self moralOther H h 1 0.4388 
17-May-2018_15:54:02 7319 19 male R 4 5 7 self immoralSelf J j 1 0.4568 
17-May-2018_15:54:04 7319 19 male R 4 5 8 self immoralSelf J j 1 0.3604 
17-May-2018_15:54:05 7319 19 male R 4 5 9 self moralSelf J j 1 0.4128 
17-May-2018_15:54:07 7319 19 male R 4 5 10 self immoralOther H h 1 0.5196 
17-May-2018_15:54:09 7319 19 male R 4 5 11 self immoralOther H h 1 0.4499 
17-May-2018_15:54:11 7319 19 male R 4 5 12 self moralOther H h 1 0.2905 
17-May-2018_15:54:12 7319 19 male R 4 5 13 self moralOther H h 1 0.2925 
17-May-2018_15:54:14 7319 19 male R 4 5 14 self moralSelf J j 1 0.4205 
17-May-2018_15:54:16 7319 19 male R 4 5 15 self immoralOther H h 1 0.4701 
17-May-2018_15:54:17 7319 19 male R 4 5 16 self immoralSelf J h 0 0.3568 
17-May-2018_15:54:19 7319 19 male R 4 5 17 self immoralOther H h 1 0.5883 
17-May-2018_15:54:20 7319 19 male R 4 5 18 self immoralOther H h 1 0.3136 
17-May-2018_15:54:22 7319 19 male R 4 5 19 self immoralSelf J j 1 0.5009 
17-May-2018_15:54:24 7319 19 male R 4 5 20 self moralOther H h 1 0.5305 
17-May-2018_15:54:25 7319 19 male R 4 5 21 self moralOther H h 1 0.3175 
17-May-2018_15:54:27 7319 19 male R 4 5 22 self moralOther H h 1 0.3504 
17-May-2018_15:54:29 7319 19 male R 4 5 23 self moralSelf J h 0 0.3586 
17-May-2018_15:54:30 7319 19 male R 4 5 24 self immoralOther H h 1 0.4607 
Date Sub Age Sex Hand Block Bin Trial Task Shape corrResp Resp ACC RT
17-May-2018_15:57:00 7319 19 male R 5 1 1 self moralSelf J j 1 0.4879 
17-May-2018_15:57:02 7319 19 male R 5 1 2 self immoralSelf J j 1 0.5291 
17-May-2018_15:57:04 7319 19 male R 5 1 3 self immoralSelf J j 1 0.3912 
17-May-2018_15:57:05 7319 19 male R 5 1 4 self immoralOther H j 0 0.3777 
17-May-2018_15:57:07 7319 19 male R 5 1 5 self moralOther H h 1 0.4149 
17-May-2018_15:57:09 7319 19 male R 5 1 6 self moralSelf J j 1 0.5528 
17-May-2018_15:57:11 7319 19 male R 5 1 7 self moralOther H h 1 0.4813 
17-May-2018_15:57:12 7319 19 male R 5 1 8 self moralSelf J j 1 0.4536 
17-May-2018_15:57:14 7319 19 male R 5 1 9 self moralOther H h 1 0.4886 
17-May-2018_15:57:16 7319 19 male R 5 1 10 self immoralSelf J j 1 0.4835 
17-May-2018_15:57:18 7319 19 male R 5 1 11 self immoralSelf J j 1 0.2902 
17-May-2018_15:57:20 7319 19 male R 5 1 12 self immoralOther H h 1 0.5048 
17-May-2018_15:57:21 7319 19 male R 5 1 13 self moralSelf J j 1 0.6554 
17-May-2018_15:57:23 7319 19 male R 5 1 14 self moralOther H h 1 0.5115 
17-May-2018_15:57:25 7319 19 male R 5 1 15 self immoralOther H h 1 0.6424 
17-May-2018_15:57:26 7319 19 male R 5 1 16 self immoralOther H h 1 0.3907 
17-May-2018_15:57:28 7319 19 male R 5 1 17 self moralOther H h 1 0.5400 
17-May-2018_15:57:30 7319 19 male R 5 1 18 self moralSelf J j 1 0.5344 
17-May-2018_15:57:32 7319 19 male R 5 1 19 self immoralOther H h 1 0.7810 
17-May-2018_15:57:33 7319 19 male R 5 1 20 self immoralSelf J j 1 0.3976 
17-May-2018_15:57:35 7319 19 male R 5 1 21 self immoralOther H h 1 0.5698 
17-May-2018_15:57:37 7319 19 male R 5 1 22 self moralOther H h 1 0.5256 
17-May-2018_15:57:39 7319 19 male R 5 1 23 self moralSelf J j 1 0.6749 
17-May-2018_15:57:41 7319 19 male R 5 1 24 self immoralSelf J j 1 0.5150 
17-May-2018_15:57:42 7319 19 male R 5 2 1 self immoralSelf J j 1 0.4223 
17-May-2018_15:57:44 7319 19 male R 5 2 2 self moralOther H h 1 0.4446 
17-May-2018_15:57:46 7319 19 male R 5 2 3 self immoralOther H h 1 0.7396 
17-May-2018_15:57:48 7319 19 male R 5 2 4 self immoralOther H h 1 0.4615 
17-May-2018_15:57:50 7319 19 male R 5 2 5 self moralSelf J j 1 0.3629 
17-May-2018_15:57:51 7319 19 male R 5 2 6 self immoralSelf J j 1 0.4782 
17-May-2018_15:57:53 7319 19 male R 5 2 7 self moralOther H h 1 0.4514 
17-May-2018_15:57:55 7319 19 male R 5 2 8 self moralSelf J h 0 0.5720 
17-May-2018_15:57:56 7319 19 male R 5 2 9 self immoralSelf J j 1 0.4559 
17-May-2018_15:57:58 7319 19 male R 5 2 10 self moralSelf J j 1 0.2921 
17-May-2018_15:58:00 7319 19 male R 5 2 11 self moralSelf J j 1 0.3360 
17-May-2018_15:58:01 7319 19 male R 5 2 12 self moralOther H h 1 0.4522 
17-May-2018_15:58:03 7319 19 male R 5 2 13 self moralSelf J j 1 0.4344 
17-May-2018_15:58:05 7319 19 male R 5 2 14 self moralOther H h 1 0.4284 
17-May-2018_15:58:07 7319 19 male R 5 2 15 self immoralSelf J j 1 0.6139 
17-May-2018_15:58:09 7319 19 male R 5 2 16 self moralOther H h 1 0.6266 
17-May-2018_15:58:11 7319 19 male R 5 2 17 self immoralOther H h 1 0.6554 
17-May-2018_15:58:12 7319 19 male R 5 2 18 self immoralSelf J j 1 0.5703 
17-May-2018_15:58:14 7319 19 male R 5 2 19 self immoralOther H h 1 0.6603 
17-May-2018_15:58:16 7319 19 male R 5 2 20 self immoralSelf J j 1 0.4100 
17-May-2018_15:58:17 7319 19 male R 5 2 21 self immoralOther H h 1 0.4364 
17-May-2018_15:58:19 7319 19 male R 5 2 22 self immoralOther H j 0 0.2369 
17-May-2018_15:58:21 7319 19 male R 5 2 23 self moralOther H h 1 0.5268 
17-May-2018_15:58:23 7319 19 male R 5 2 24 self moralSelf J j 1 0.5698 
17-May-2018_15:58:51 7319 19 male R 5 3 1 self moralOther H h 1 0.4992 
17-May-2018_15:58:52 7319 19 male R 5 3 2 self moralOther H h 1 0.4865 
17-May-2018_15:58:54 7319 19 male R 5 3 3 self immoralOther H h 1 0.6058 
17-May-2018_15:58:56 7319 19 male R 5 3 4 self immoralOther H h 1 0.5640 
17-May-2018_15:58:57 7319 19 male R 5 3 5 self immoralSelf J u 2 0.4398 
17-May-2018_15:59:00 7319 19 male R 5 3 6 self moralOther H NA -1 1.1831 
17-May-2018_15:59:02 7319 19 male R 5 3 7 self moralOther H h 1 0.7529 
17-May-2018_15:59:04 7319 19 male R 5 3 8 self moralSelf J j 1 0.5887 
17-May-2018_15:59:05 7319 19 male R 5 3 9 self immoralSelf J j 1 0.4381 
17-May-2018_15:59:07 7319 19 male R 5 3 10 self immoralSelf J j 1 0.3536 
17-May-2018_15:59:08 7319 19 male R 5 3 11 self immoralOther H h 1 0.4567 
17-May-2018_15:59:10 7319 19 male R 5 3 12 self immoralSelf J j 1 0.5061 
17-May-2018_15:59:12 7319 19 male R 5 3 13 self moralSelf J h 0 0.3725 
17-May-2018_15:59:14 7319 19 male R 5 3 14 self immoralOther H h 1 0.4762 
17-May-2018_15:59:15 7319 19 male R 5 3 15 self immoralSelf J j 1 0.4301 
17-May-2018_15:59:18 7319 19 male R 5 3 16 self immoralOther H h 1 0.9384 
17-May-2018_15:59:20 7319 19 male R 5 3 17 self moralOther H h 1 0.4948 
17-May-2018_15:59:21 7319 19 male R 5 3 18 self immoralSelf J j 1 0.3363 
17-May-2018_15:59:23 7319 19 male R 5 3 19 self moralSelf J j 1 0.3942 
17-May-2018_15:59:25 7319 19 male R 5 3 20 self moralSelf J j 1 0.3115 
17-May-2018_15:59:27 7319 19 male R 5 3 21 self moralSelf J j 1 0.3789 
17-May-2018_15:59:28 7319 19 male R 5 3 22 self immoralOther H h 1 0.4025 
17-May-2018_15:59:30 7319 19 male R 5 3 23 self moralOther H h 1 0.6109 
17-May-2018_15:59:32 7319 19 male R 5 3 24 self moralSelf J j 1 0.3917 
17-May-2018_15:59:34 7319 19 male R 5 4 1 self moralOther H h 1 0.5636 
17-May-2018_15:59:35 7319 19 male R 5 4 2 self immoralOther H h 1 0.5180 
17-May-2018_15:59:37 7319 19 male R 5 4 3 self immoralSelf J j 1 0.3452 
17-May-2018_15:59:39 7319 19 male R 5 4 4 self immoralOther H h 1 0.4131 
17-May-2018_15:59:40 7319 19 male R 5 4 5 self moralSelf J j 1 0.4104 
17-May-2018_15:59:42 7319 19 male R 5 4 6 self immoralSelf J h 0 0.5215 
17-May-2018_15:59:44 7319 19 male R 5 4 7 self moralSelf J j 1 0.6772 
17-May-2018_15:59:46 7319 19 male R 5 4 8 self moralOther H h 1 0.4168 
17-May-2018_15:59:47 7319 19 male R 5 4 9 self moralOther H h 1 0.3772 
17-May-2018_15:59:49 7319 19 male R 5 4 10 self moralSelf J j 1 0.4931 
17-May-2018_15:59:51 7319 19 male R 5 4 11 self moralSelf J j 1 0.4459 
17-May-2018_15:59:52 7319 19 male R 5 4 12 self moralOther H h 1 0.5242 
17-May-2018_15:59:54 7319 19 male R 5 4 13 self moralSelf J j 1 0.3785 
17-May-2018_15:59:55 7319 19 male R 5 4 14 self immoralOther H h 1 0.5267 
17-May-2018_15:59:57 7319 19 male R 5 4 15 self immoralSelf J j 1 0.4929 
17-May-2018_15:59:59 7319 19 male R 5 4 16 self moralSelf J j 1 0.4652 
17-May-2018_16:00:01 7319 19 male R 5 4 17 self immoralSelf J j 1 0.5166 
17-May-2018_16:00:02 7319 19 male R 5 4 18 self immoralOther H h 1 0.5552 
17-May-2018_16:00:04 7319 19 male R 5 4 19 self immoralOther H h 1 0.4663 
17-May-2018_16:00:06 7319 19 male R 5 4 20 self immoralSelf J j 1 0.5201 
17-May-2018_16:00:07 7319 19 male R 5 4 21 self moralOther H h 1 0.5822 
17-May-2018_16:00:09 7319 19 male R 5 4 22 self immoralSelf J j 1 0.4138 
17-May-2018_16:00:11 7319 19 male R 5 4 23 self moralOther H h 1 0.4398 
17-May-2018_16:00:13 7319 19 male R 5 4 24 self immoralOther H h 1 0.6018 
17-May-2018_16:00:41 7319 19 male R 5 5 1 self moralSelf J j 1 0.4635 
17-May-2018_16:00:43 7319 19 male R 5 5 2 self immoralOther H h 1 0.4716 
17-May-2018_16:00:44 7319 19 male R 5 5 3 self moralOther H h 1 0.4111 
17-May-2018_16:00:46 7319 19 male R 5 5 4 self moralSelf J h 0 0.3470 
17-May-2018_16:00:48 7319 19 male R 5 5 5 self immoralOther H j 0 0.3782 
17-May-2018_16:00:50 7319 19 male R 5 5 6 self moralOther H h 1 0.4168 
17-May-2018_16:00:52 7319 19 male R 5 5 7 self moralOther H h 1 0.4470 
17-May-2018_16:00:53 7319 19 male R 5 5 8 self moralOther H h 1 0.3355 
17-May-2018_16:00:55 7319 19 male R 5 5 9 self immoralSelf J j 1 0.5031 
17-May-2018_16:00:56 7319 19 male R 5 5 10 self immoralOther H h 1 0.3861 
17-May-2018_16:00:58 7319 19 male R 5 5 11 self immoralOther H h 1 0.5226 
17-May-2018_16:01:00 7319 19 male R 5 5 12 self moralOther H h 1 0.3706 
17-May-2018_16:01:02 7319 19 male R 5 5 13 self moralSelf J j 1 0.5429 
17-May-2018_16:01:03 7319 19 male R 5 5 14 self immoralSelf J j 1 0.4593 
17-May-2018_16:01:05 7319 19 male R 5 5 15 self immoralSelf J j 1 0.3524 
17-May-2018_16:01:06 7319 19 male R 5 5 16 self immoralSelf J j 1 0.3007 
17-May-2018_16:01:08 7319 19 male R 5 5 17 self moralSelf J j 1 0.4260 
17-May-2018_16:01:10 7319 19 male R 5 5 18 self moralSelf J j 1 0.4807 
17-May-2018_16:01:12 7319 19 male R 5 5 19 self immoralSelf J j 1 0.5782 
17-May-2018_16:01:14 7319 19 male R 5 5 20 self immoralSelf J j 1 0.3514 
17-May-2018_16:01:15 7319 19 male R 5 5 21 self moralSelf J j 1 0.5307 
17-May-2018_16:01:17 7319 19 male R 5 5 22 self immoralOther H j 0 0.4354 
17-May-2018_16:01:19 7319 19 male R 5 5 23 self moralOther H h 1 0.3135 
17-May-2018_16:01:21 7319 19 male R 5 5 24 self immoralOther H h 1 0.4364 
Date Sub Age Sex Hand Block Bin Trial Task Shape corrResp Resp ACC RT
17-May-2018_16:04:28 7319 19 male R 6 1 1 moral immoralSelf Y y 1 0.3676 
17-May-2018_16:04:29 7319 19 male R 6 1 2 moral immoralOther Y y 1 0.3245 
17-May-2018_16:04:31 7319 19 male R 6 1 3 moral immoralSelf Y u 0 0.4239 
17-May-2018_16:04:32 7319 19 male R 6 1 4 moral immoralOther Y y 1 0.4259 
17-May-2018_16:04:34 7319 19 male R 6 1 5 moral moralSelf U u 1 0.5808 
17-May-2018_16:04:35 7319 19 male R 6 1 6 moral immoralSelf Y y 1 0.4293 
17-May-2018_16:04:37 7319 19 male R 6 1 7 moral moralSelf U u 1 0.5305 
17-May-2018_16:04:39 7319 19 male R 6 1 8 moral immoralOther Y y 1 0.5654 
17-May-2018_16:04:41 7319 19 male R 6 1 9 moral moralSelf U u 1 0.5485 
17-May-2018_16:04:43 7319 19 male R 6 1 10 moral immoralOther Y y 1 0.4813 
17-May-2018_16:04:45 7319 19 male R 6 1 11 moral immoralSelf Y y 1 0.5120 
17-May-2018_16:04:47 7319 19 male R 6 1 12 moral moralOther U u 1 0.6490 
17-May-2018_16:04:49 7319 19 male R 6 1 13 moral moralOther U u 1 0.3526 
17-May-2018_16:04:50 7319 19 male R 6 1 14 moral moralOther U u 1 0.3456 
17-May-2018_16:04:52 7319 19 male R 6 1 15 moral moralOther U u 1 0.5651 
17-May-2018_16:04:53 7319 19 male R 6 1 16 moral immoralSelf Y y 1 0.4925 
17-May-2018_16:04:55 7319 19 male R 6 1 17 moral moralOther U u 1 0.4074 
17-May-2018_16:04:57 7319 19 male R 6 1 18 moral immoralSelf Y y 1 0.5533 
17-May-2018_16:04:59 7319 19 male R 6 1 19 moral moralSelf U u 1 0.6495 
17-May-2018_16:05:00 7319 19 male R 6 1 20 moral moralOther U u 1 0.4891 
17-May-2018_16:05:02 7319 19 male R 6 1 21 moral immoralOther Y u 0 0.5112 
17-May-2018_16:05:04 7319 19 male R 6 1 22 moral moralSelf U u 1 0.4990 
17-May-2018_16:05:06 7319 19 male R 6 1 23 moral moralSelf U u 1 0.5881 
17-May-2018_16:05:08 7319 19 male R 6 1 24 moral immoralOther Y y 1 0.5288 
17-May-2018_16:05:10 7319 19 male R 6 2 1 moral moralSelf U u 1 0.6738 
17-May-2018_16:05:11 7319 19 male R 6 2 2 moral immoralSelf Y y 1 0.4998 
17-May-2018_16:05:13 7319 19 male R 6 2 3 moral immoralOther Y y 1 0.4796 
17-May-2018_16:05:15 7319 19 male R 6 2 4 moral moralSelf U u 1 0.5193 
17-May-2018_16:05:17 7319 19 male R 6 2 5 moral moralOther U y 0 0.6430 
17-May-2018_16:05:19 7319 19 male R 6 2 6 moral immoralOther Y y 1 0.5698 
17-May-2018_16:05:21 7319 19 male R 6 2 7 moral moralOther U u 1 0.4654 
17-May-2018_16:05:22 7319 19 male R 6 2 8 moral moralSelf U u 1 0.5948 
17-May-2018_16:05:24 7319 19 male R 6 2 9 moral moralOther U u 1 0.3808 
17-May-2018_16:05:26 7319 19 male R 6 2 10 moral immoralSelf Y y 1 0.4773 
17-May-2018_16:05:27 7319 19 male R 6 2 11 moral immoralSelf Y y 1 0.5376 
17-May-2018_16:05:29 7319 19 male R 6 2 12 moral moralSelf U u 1 0.7029 
17-May-2018_16:05:31 7319 19 male R 6 2 13 moral immoralSelf Y y 1 0.6380 
17-May-2018_16:05:33 7319 19 male R 6 2 14 moral moralSelf U u 1 0.7572 
17-May-2018_16:05:35 7319 19 male R 6 2 15 moral immoralOther Y y 1 0.6367 
17-May-2018_16:05:36 7319 19 male R 6 2 16 moral moralOther U u 1 0.5350 
17-May-2018_16:05:38 7319 19 male R 6 2 17 moral immoralOther Y y 1 0.6284 
17-May-2018_16:05:40 7319 19 male R 6 2 18 moral moralOther U u 1 0.5949 
17-May-2018_16:05:42 7319 19 male R 6 2 19 moral moralSelf U u 1 0.5410 
17-May-2018_16:05:44 7319 19 male R 6 2 20 moral immoralOther Y y 1 0.5242 
17-May-2018_16:05:46 7319 19 male R 6 2 21 moral immoralOther Y y 1 0.5867 
17-May-2018_16:05:48 7319 19 male R 6 2 22 moral immoralSelf Y y 1 0.6627 
17-May-2018_16:05:50 7319 19 male R 6 2 23 moral moralOther U u 1 0.5470 
17-May-2018_16:05:52 7319 19 male R 6 2 24 moral immoralSelf Y y 1 0.4985 
17-May-2018_16:06:33 7319 19 male R 6 3 1 moral immoralOther Y y 1 0.4357 
17-May-2018_16:06:35 7319 19 male R 6 3 2 moral immoralOther Y y 1 0.3802 
17-May-2018_16:06:37 7319 19 male R 6 3 3 moral moralSelf U u 1 0.4711 
17-May-2018_16:06:38 7319 19 male R 6 3 4 moral immoralOther Y y 1 0.3775 
17-May-2018_16:06:40 7319 19 male R 6 3 5 moral moralSelf U u 1 0.6138 
17-May-2018_16:06:41 7319 19 male R 6 3 6 moral immoralSelf Y y 1 0.4356 
17-May-2018_16:06:43 7319 19 male R 6 3 7 moral immoralOther Y y 1 0.5090 
17-May-2018_16:06:45 7319 19 male R 6 3 8 moral moralOther U u 1 0.5194 
17-May-2018_16:06:47 7319 19 male R 6 3 9 moral immoralOther Y y 1 0.4061 
17-May-2018_16:06:49 7319 19 male R 6 3 10 moral moralOther U u 1 0.3718 
17-May-2018_16:06:50 7319 19 male R 6 3 11 moral moralSelf U u 1 0.3107 
17-May-2018_16:06:52 7319 19 male R 6 3 12 moral moralSelf U u 1 0.3428 
17-May-2018_16:06:53 7319 19 male R 6 3 13 moral immoralSelf Y y 1 0.4200 
17-May-2018_16:06:55 7319 19 male R 6 3 14 moral immoralSelf Y y 1 0.5373 
17-May-2018_16:06:57 7319 19 male R 6 3 15 moral immoralSelf Y y 1 0.4836 
17-May-2018_16:06:59 7319 19 male R 6 3 16 moral moralSelf U u 1 0.6343 
17-May-2018_16:07:01 7319 19 male R 6 3 17 moral immoralSelf Y y 1 0.4766 
17-May-2018_16:07:02 7319 19 male R 6 3 18 moral moralOther U u 1 0.5360 
17-May-2018_16:07:04 7319 19 male R 6 3 19 moral moralOther U u 1 0.4397 
17-May-2018_16:07:06 7319 19 male R 6 3 20 moral immoralOther Y y 1 0.5245 
17-May-2018_16:07:08 7319 19 male R 6 3 21 moral immoralSelf Y y 1 0.5126 
17-May-2018_16:07:10 7319 19 male R 6 3 22 moral moralOther U u 1 0.5815 
17-May-2018_16:07:12 7319 19 male R 6 3 23 moral moralOther U u 1 0.5877 
17-May-2018_16:07:14 7319 19 male R 6 3 24 moral moralSelf U u 1 0.6052 
17-May-2018_16:07:16 7319 19 male R 6 4 1 moral immoralOther Y y 1 0.7442 
17-May-2018_16:07:18 7319 19 male R 6 4 2 moral immoralSelf Y y 1 0.5201 
17-May-2018_16:07:19 7319 19 male R 6 4 3 moral moralSelf U u 1 0.4887 
17-May-2018_16:07:21 7319 19 male R 6 4 4 moral moralSelf U u 1 0.4775 
17-May-2018_16:07:23 7319 19 male R 6 4 5 moral immoralOther Y y 1 0.7025 
17-May-2018_16:07:25 7319 19 male R 6 4 6 moral moralSelf U u 1 0.5204 
17-May-2018_16:07:26 7319 19 male R 6 4 7 moral immoralSelf Y y 1 0.5375 
17-May-2018_16:07:28 7319 19 male R 6 4 8 moral moralSelf U u 1 0.7046 
17-May-2018_16:07:30 7319 19 male R 6 4 9 moral moralOther U u 1 0.4834 
17-May-2018_16:07:32 7319 19 male R 6 4 10 moral moralOther U u 1 0.5758 
17-May-2018_16:07:34 7319 19 male R 6 4 11 moral immoralOther Y y 1 0.6262 
17-May-2018_16:07:35 7319 19 male R 6 4 12 moral immoralOther Y y 1 0.4159 
17-May-2018_16:07:37 7319 19 male R 6 4 13 moral immoralSelf Y y 1 0.4108 
17-May-2018_16:07:39 7319 19 male R 6 4 14 moral moralOther U u 1 0.3662 
17-May-2018_16:07:40 7319 19 male R 6 4 15 moral immoralSelf Y y 1 0.5042 
17-May-2018_16:07:42 7319 19 male R 6 4 16 moral moralOther U u 1 0.3593 
17-May-2018_16:07:44 7319 19 male R 6 4 17 moral immoralSelf Y y 1 0.5310 
17-May-2018_16:07:46 7319 19 male R 6 4 18 moral immoralOther Y y 1 0.6239 
17-May-2018_16:07:48 7319 19 male R 6 4 19 moral immoralSelf Y u 0 0.4403 
17-May-2018_16:07:49 7319 19 male R 6 4 20 moral immoralOther Y y 1 0.7342 
17-May-2018_16:07:52 7319 19 male R 6 4 21 moral moralOther U u 1 0.5794 
17-May-2018_16:07:53 7319 19 male R 6 4 22 moral moralSelf U u 1 0.5926 
17-May-2018_16:07:55 7319 19 male R 6 4 23 moral moralOther U u 1 0.4666 
17-May-2018_16:07:57 7319 19 male R 6 4 24 moral moralSelf U u 1 0.5254 
17-May-2018_16:08:32 7319 19 male R 6 5 1 moral immoralOther Y y 1 0.6308 
17-May-2018_16:08:34 7319 19 male R 6 5 2 moral moralSelf U u 1 0.5632 
17-May-2018_16:08:36 7319 19 male R 6 5 3 moral moralSelf U y 0 0.6997 
17-May-2018_16:08:37 7319 19 male R 6 5 4 moral moralOther U u 1 0.4894 
17-May-2018_16:08:39 7319 19 male R 6 5 5 moral immoralOther Y y 1 0.5595 
17-May-2018_16:08:41 7319 19 male R 6 5 6 moral immoralSelf Y y 1 0.3060 
17-May-2018_16:08:42 7319 19 male R 6 5 7 moral immoralSelf Y y 1 0.3752 
17-May-2018_16:08:44 7319 19 male R 6 5 8 moral moralOther U u 1 0.4275 
17-May-2018_16:08:46 7319 19 male R 6 5 9 moral moralOther U u 1 0.3861 
17-May-2018_16:08:47 7319 19 male R 6 5 10 moral immoralSelf Y y 1 0.4295 
17-May-2018_16:08:49 7319 19 male R 6 5 11 moral moralSelf U u 1 0.5157 
17-May-2018_16:08:51 7319 19 male R 6 5 12 moral moralOther U u 1 0.3101 
17-May-2018_16:08:52 7319 19 male R 6 5 13 moral immoralSelf Y y 1 0.4176 
17-May-2018_16:08:54 7319 19 male R 6 5 14 moral moralOther U u 1 0.3282 
17-May-2018_16:08:55 7319 19 male R 6 5 15 moral immoralOther Y y 1 0.4782 
17-May-2018_16:08:57 7319 19 male R 6 5 16 moral moralSelf U u 1 0.5471 
17-May-2018_16:08:59 7319 19 male R 6 5 17 moral immoralOther Y y 1 0.3429 
17-May-2018_16:09:00 7319 19 male R 6 5 18 moral moralOther U u 1 0.4230 
17-May-2018_16:09:02 7319 19 male R 6 5 19 moral immoralOther Y y 1 0.5679 
17-May-2018_16:09:04 7319 19 male R 6 5 20 moral immoralSelf Y u 0 0.3925 
17-May-2018_16:09:06 7319 19 male R 6 5 21 moral moralSelf U u 1 0.5115 
17-May-2018_16:09:07 7319 19 male R 6 5 22 moral immoralSelf Y y 1 0.4016 
17-May-2018_16:09:09 7319 19 male R 6 5 23 moral immoralOther Y y 1 0.4007 
17-May-2018_16:09:11 7319 19 male R 6 5 24 moral moralSelf U u 1 0.5759 
