Date Prac Sub Age Sex Hand Block Bin Trial Shape Label Match CorrResp Resp ACC RT
31-May-2018_15:44:46 Exp 7335 20 female R 1 1 1 moralSelf moralSelf match m NA -1 1.0850 
31-May-2018_15:44:48 Exp 7335 20 female R 1 1 2 immoralSelf immoralSelf match m n 0 0.6436 
31-May-2018_15:44:50 Exp 7335 20 female R 1 1 3 immoralOther immoralOther match m m 1 0.8138 
31-May-2018_15:44:53 Exp 7335 20 female R 1 1 4 immoralSelf moralSelf mismatch n m 0 0.6539 
31-May-2018_15:44:55 Exp 7335 20 female R 1 1 5 moralSelf moralSelf match m m 1 0.6141 
31-May-2018_15:44:57 Exp 7335 20 female R 1 1 6 moralOther immoralSelf mismatch n n 1 0.6141 
31-May-2018_15:45:00 Exp 7335 20 female R 1 1 7 moralOther immoralOther mismatch n m 0 0.8303 
31-May-2018_15:45:02 Exp 7335 20 female R 1 1 8 immoralOther moralOther mismatch n n 1 1.0744 
31-May-2018_15:45:05 Exp 7335 20 female R 1 1 9 moralOther moralOther match m NA -1 1.0850 
31-May-2018_15:45:08 Exp 7335 20 female R 1 1 10 immoralSelf moralOther mismatch n n 1 0.8807 
31-May-2018_15:45:10 Exp 7335 20 female R 1 1 11 immoralOther immoralOther match m m 1 1.0508 
31-May-2018_15:45:13 Exp 7335 20 female R 1 1 12 moralSelf immoralOther mismatch n n 1 0.6750 
31-May-2018_15:45:15 Exp 7335 20 female R 1 1 13 immoralOther immoralOther match m m 1 0.8792 
31-May-2018_15:45:17 Exp 7335 20 female R 1 1 14 moralOther moralSelf mismatch n m 0 0.7294 
31-May-2018_15:45:20 Exp 7335 20 female R 1 1 15 immoralSelf immoralSelf match m n 0 0.7134 
31-May-2018_15:45:22 Exp 7335 20 female R 1 1 16 moralSelf moralOther mismatch n m 0 0.6057 
31-May-2018_15:45:24 Exp 7335 20 female R 1 1 17 immoralSelf immoralSelf match m n 0 0.8077 
31-May-2018_15:45:27 Exp 7335 20 female R 1 1 18 moralOther moralOther match m m 1 0.9598 
31-May-2018_15:45:29 Exp 7335 20 female R 1 1 19 immoralOther moralOther mismatch n n 1 0.8020 
31-May-2018_15:45:32 Exp 7335 20 female R 1 1 20 moralSelf moralSelf match m m 1 0.6441 
31-May-2018_15:45:34 Exp 7335 20 female R 1 1 21 immoralSelf moralOther mismatch n n 1 0.6539 
31-May-2018_15:45:37 Exp 7335 20 female R 1 1 22 moralOther moralOther match m n 0 1.0385 
31-May-2018_15:45:39 Exp 7335 20 female R 1 1 23 immoralOther moralOther mismatch n m 0 0.8965 
31-May-2018_15:45:42 Exp 7335 20 female R 1 1 24 moralSelf immoralOther mismatch n n 1 0.7927 
31-May-2018_15:45:44 Exp 7335 20 female R 1 2 1 moralSelf moralSelf match m m 1 0.7888 
31-May-2018_15:45:47 Exp 7335 20 female R 1 2 2 moralOther immoralSelf mismatch n n 1 0.8650 
31-May-2018_15:45:49 Exp 7335 20 female R 1 2 3 immoralOther moralSelf mismatch n n 1 0.8152 
31-May-2018_15:45:51 Exp 7335 20 female R 1 2 4 moralSelf moralSelf match m m 1 0.8552 
31-May-2018_15:45:54 Exp 7335 20 female R 1 2 5 moralOther moralSelf mismatch n n 1 0.8954 
31-May-2018_15:45:56 Exp 7335 20 female R 1 2 6 moralSelf moralSelf match m m 1 0.7275 
31-May-2018_15:45:59 Exp 7335 20 female R 1 2 7 moralOther immoralSelf mismatch n n 1 0.9117 
31-May-2018_15:46:01 Exp 7335 20 female R 1 2 8 moralOther moralOther match m m 1 0.6359 
31-May-2018_15:46:03 Exp 7335 20 female R 1 2 9 immoralSelf immoralSelf match m n 0 0.6160 
31-May-2018_15:46:06 Exp 7335 20 female R 1 2 10 immoralSelf moralOther mismatch n n 1 0.8721 
31-May-2018_15:46:08 Exp 7335 20 female R 1 2 11 immoralOther moralOther mismatch n n 1 0.8042 
31-May-2018_15:46:11 Exp 7335 20 female R 1 2 12 immoralSelf moralSelf mismatch n m 0 0.8704 
31-May-2018_15:46:13 Exp 7335 20 female R 1 2 13 moralSelf immoralSelf mismatch n m 0 0.6345 
31-May-2018_15:46:16 Exp 7335 20 female R 1 2 14 moralOther moralOther match m n 0 0.8306 
31-May-2018_15:46:18 Exp 7335 20 female R 1 2 15 immoralSelf immoralOther mismatch n NA -1 1.0850 
31-May-2018_15:46:21 Exp 7335 20 female R 1 2 16 moralSelf immoralSelf mismatch n n 1 0.8130 
31-May-2018_15:46:23 Exp 7335 20 female R 1 2 17 immoralSelf immoralSelf match m NA -1 1.0849 
31-May-2018_15:46:26 Exp 7335 20 female R 1 2 18 immoralOther immoralOther match m m 1 0.9673 
31-May-2018_15:46:28 Exp 7335 20 female R 1 2 19 moralSelf immoralSelf mismatch n n 1 0.7755 
31-May-2018_15:46:31 Exp 7335 20 female R 1 2 20 immoralOther immoralSelf mismatch n n 1 0.8076 
31-May-2018_15:46:34 Exp 7335 20 female R 1 2 21 immoralSelf immoralSelf match m NA -1 1.0850 
31-May-2018_15:46:36 Exp 7335 20 female R 1 2 22 immoralOther immoralOther match m m 1 0.9858 
31-May-2018_15:46:39 Exp 7335 20 female R 1 2 23 moralOther moralOther match m m 1 0.9520 
31-May-2018_15:46:41 Exp 7335 20 female R 1 2 24 immoralOther immoralOther match m NA -1 1.0850 
31-May-2018_15:46:44 Exp 7335 20 female R 1 3 1 immoralOther immoralOther match m m 1 0.7423 
31-May-2018_15:46:46 Exp 7335 20 female R 1 3 2 moralOther moralOther match m m 1 0.9564 
31-May-2018_15:46:49 Exp 7335 20 female R 1 3 3 moralOther moralSelf mismatch n n 1 0.6246 
31-May-2018_15:46:51 Exp 7335 20 female R 1 3 4 immoralOther moralOther mismatch n n 1 0.7827 
31-May-2018_15:46:53 Exp 7335 20 female R 1 3 5 immoralOther moralSelf mismatch n n 1 0.6609 
31-May-2018_15:46:56 Exp 7335 20 female R 1 3 6 moralOther immoralSelf mismatch n NA -1 1.0850 
31-May-2018_15:46:58 Exp 7335 20 female R 1 3 7 moralOther moralSelf mismatch n n 1 0.8291 
31-May-2018_15:47:01 Exp 7335 20 female R 1 3 8 moralSelf immoralOther mismatch n n 1 0.7294 
31-May-2018_15:47:03 Exp 7335 20 female R 1 3 9 moralOther moralOther match m n 0 0.6654 
31-May-2018_15:47:06 Exp 7335 20 female R 1 3 10 immoralSelf immoralSelf match m n 0 0.7836 
31-May-2018_15:47:08 Exp 7335 20 female R 1 3 11 moralSelf immoralOther mismatch n n 1 0.7257 
31-May-2018_15:47:10 Exp 7335 20 female R 1 3 12 immoralOther immoralOther match m m 1 0.8238 
31-May-2018_15:47:13 Exp 7335 20 female R 1 3 13 immoralSelf moralSelf mismatch n n 1 0.9819 
31-May-2018_15:47:15 Exp 7335 20 female R 1 3 14 immoralOther moralSelf mismatch n n 1 0.8521 
31-May-2018_15:47:18 Exp 7335 20 female R 1 3 15 moralOther moralOther match m NA -1 1.0850 
31-May-2018_15:47:20 Exp 7335 20 female R 1 3 16 moralSelf immoralOther mismatch n n 1 0.6705 
31-May-2018_15:47:23 Exp 7335 20 female R 1 3 17 moralSelf moralSelf match m m 1 0.6586 
31-May-2018_15:47:25 Exp 7335 20 female R 1 3 18 immoralOther immoralOther match m m 1 0.7687 
31-May-2018_15:47:28 Exp 7335 20 female R 1 3 19 immoralSelf moralOther mismatch n n 1 0.9368 
31-May-2018_15:47:30 Exp 7335 20 female R 1 3 20 immoralSelf immoralSelf match m n 0 1.0169 
31-May-2018_15:47:33 Exp 7335 20 female R 1 3 21 immoralSelf immoralSelf match m m 1 0.7452 
31-May-2018_15:47:35 Exp 7335 20 female R 1 3 22 moralSelf moralSelf match m m 1 0.6312 
31-May-2018_15:47:37 Exp 7335 20 female R 1 3 23 immoralSelf moralOther mismatch n n 1 0.7073 
31-May-2018_15:47:39 Exp 7335 20 female R 1 3 24 moralSelf moralSelf match m m 1 0.4395 
31-May-2018_15:48:03 Exp 7335 20 female R 1 4 1 immoralSelf immoralSelf match m NA -1 1.0850 
31-May-2018_15:48:06 Exp 7335 20 female R 1 4 2 moralOther moralSelf mismatch n m 0 0.5891 
31-May-2018_15:48:08 Exp 7335 20 female R 1 4 3 immoralSelf moralSelf mismatch n n 1 0.7132 
31-May-2018_15:48:10 Exp 7335 20 female R 1 4 4 moralSelf moralOther mismatch n m 0 0.7572 
31-May-2018_15:48:13 Exp 7335 20 female R 1 4 5 moralOther immoralOther mismatch n n 1 0.7594 
31-May-2018_15:48:15 Exp 7335 20 female R 1 4 6 immoralOther immoralOther match m m 1 0.6815 
31-May-2018_15:48:17 Exp 7335 20 female R 1 4 7 moralSelf immoralOther mismatch n n 1 0.7156 
31-May-2018_15:48:20 Exp 7335 20 female R 1 4 8 moralOther immoralSelf mismatch n n 1 0.6878 
31-May-2018_15:48:22 Exp 7335 20 female R 1 4 9 moralSelf moralSelf match m m 1 0.5680 
31-May-2018_15:48:24 Exp 7335 20 female R 1 4 10 immoralOther immoralSelf mismatch n n 1 0.6960 
31-May-2018_15:48:27 Exp 7335 20 female R 1 4 11 immoralSelf moralOther mismatch n n 1 0.8002 
31-May-2018_15:48:29 Exp 7335 20 female R 1 4 12 moralOther moralOther match m n 0 0.8343 
31-May-2018_15:48:31 Exp 7335 20 female R 1 4 13 immoralOther moralSelf mismatch n m 0 0.7345 
31-May-2018_15:48:34 Exp 7335 20 female R 1 4 14 moralSelf moralSelf match m m 1 0.6146 
31-May-2018_15:48:36 Exp 7335 20 female R 1 4 15 immoralOther immoralOther match m m 1 0.8308 
31-May-2018_15:48:39 Exp 7335 20 female R 1 4 16 moralOther moralOther match m m 1 1.0669 
31-May-2018_15:48:41 Exp 7335 20 female R 1 4 17 moralOther moralOther match m m 1 0.5690 
31-May-2018_15:48:43 Exp 7335 20 female R 1 4 18 immoralOther immoralSelf mismatch n n 1 0.7451 
31-May-2018_15:48:46 Exp 7335 20 female R 1 4 19 immoralSelf immoralSelf match m NA -1 1.0850 
31-May-2018_15:48:49 Exp 7335 20 female R 1 4 20 immoralOther immoralOther match m n 0 0.9295 
31-May-2018_15:48:51 Exp 7335 20 female R 1 4 21 moralSelf moralOther mismatch n m 0 0.6496 
31-May-2018_15:48:53 Exp 7335 20 female R 1 4 22 immoralSelf moralSelf mismatch n n 1 0.6656 
31-May-2018_15:48:56 Exp 7335 20 female R 1 4 23 immoralSelf immoralSelf match m m 1 1.0000 
31-May-2018_15:48:58 Exp 7335 20 female R 1 4 24 moralSelf moralSelf match m m 1 0.5861 
31-May-2018_15:49:00 Exp 7335 20 female R 1 5 1 immoralSelf immoralSelf match m n 0 0.8321 
31-May-2018_15:49:03 Exp 7335 20 female R 1 5 2 moralOther immoralOther mismatch n n 1 0.9243 
31-May-2018_15:49:06 Exp 7335 20 female R 1 5 3 immoralOther moralSelf mismatch n n 1 0.9105 
31-May-2018_15:49:08 Exp 7335 20 female R 1 5 4 moralOther moralOther match m NA -1 1.0850 
31-May-2018_15:49:11 Exp 7335 20 female R 1 5 5 immoralOther moralSelf mismatch n m 0 0.7083 
31-May-2018_15:49:13 Exp 7335 20 female R 1 5 6 immoralOther immoralOther match m m 1 0.7849 
31-May-2018_15:49:15 Exp 7335 20 female R 1 5 7 immoralSelf immoralOther mismatch n n 1 0.6630 
31-May-2018_15:49:18 Exp 7335 20 female R 1 5 8 moralSelf moralSelf match m m 1 0.5812 
31-May-2018_15:49:20 Exp 7335 20 female R 1 5 9 moralSelf immoralSelf mismatch n n 1 0.7553 
31-May-2018_15:49:22 Exp 7335 20 female R 1 5 10 moralSelf moralSelf match m m 1 0.7434 
31-May-2018_15:49:25 Exp 7335 20 female R 1 5 11 moralOther moralOther match m m 1 0.7976 
31-May-2018_15:49:27 Exp 7335 20 female R 1 5 12 immoralOther moralOther mismatch n n 1 0.7437 
31-May-2018_15:49:30 Exp 7335 20 female R 1 5 13 immoralSelf immoralSelf match m NA -1 1.0850 
31-May-2018_15:49:32 Exp 7335 20 female R 1 5 14 moralSelf moralSelf match m m 1 0.6000 
31-May-2018_15:49:34 Exp 7335 20 female R 1 5 15 moralOther immoralOther mismatch n n 1 0.6902 
31-May-2018_15:49:37 Exp 7335 20 female R 1 5 16 immoralSelf moralSelf mismatch n m 0 0.6821 
31-May-2018_15:49:39 Exp 7335 20 female R 1 5 17 moralOther moralOther match m m 1 0.8684 
31-May-2018_15:49:41 Exp 7335 20 female R 1 5 18 immoralSelf immoralSelf match m n 0 0.6245 
31-May-2018_15:49:44 Exp 7335 20 female R 1 5 19 immoralOther immoralOther match m m 1 0.5427 
31-May-2018_15:49:46 Exp 7335 20 female R 1 5 20 moralOther immoralSelf mismatch n m 0 0.7248 
31-May-2018_15:49:48 Exp 7335 20 female R 1 5 21 moralSelf moralOther mismatch n n 1 0.7590 
31-May-2018_15:49:51 Exp 7335 20 female R 1 5 22 moralSelf immoralOther mismatch n n 1 0.9531 
31-May-2018_15:49:53 Exp 7335 20 female R 1 5 23 immoralSelf moralSelf mismatch n m 0 0.6611 
31-May-2018_15:49:56 Exp 7335 20 female R 1 5 24 immoralOther immoralOther match m m 1 0.8113 
31-May-2018_15:50:01 Exp 7335 20 female R 2 1 1 moralSelf moralSelf match m NA -1 1.0850 
31-May-2018_15:50:04 Exp 7335 20 female R 2 1 2 immoralOther moralOther mismatch n m 0 0.5758 
31-May-2018_15:50:06 Exp 7335 20 female R 2 1 3 immoralSelf moralSelf mismatch n NA -1 1.0850 
31-May-2018_15:50:08 Exp 7335 20 female R 2 1 4 moralOther moralOther match m m 1 0.4421 
31-May-2018_15:50:10 Exp 7335 20 female R 2 1 5 moralSelf moralSelf match m m 1 0.4843 
31-May-2018_15:50:12 Exp 7335 20 female R 2 1 6 immoralSelf immoralSelf match m m 1 0.3823 
31-May-2018_15:50:14 Exp 7335 20 female R 2 1 7 moralSelf moralOther mismatch n m 0 0.2445 
31-May-2018_15:50:16 Exp 7335 20 female R 2 1 8 immoralSelf moralSelf mismatch n n 1 0.3346 
31-May-2018_15:50:18 Exp 7335 20 female R 2 1 9 immoralOther moralOther mismatch n m 0 0.3674 
31-May-2018_15:50:20 Exp 7335 20 female R 2 1 10 immoralOther immoralOther match m m 1 0.5508 
31-May-2018_15:50:23 Exp 7335 20 female R 2 1 11 immoralSelf immoralSelf match m n 0 0.5548 
31-May-2018_15:50:25 Exp 7335 20 female R 2 1 12 immoralOther immoralOther match m m 1 0.6470 
31-May-2018_15:50:27 Exp 7335 20 female R 2 1 13 immoralOther immoralOther match m m 1 0.5772 
31-May-2018_15:50:29 Exp 7335 20 female R 2 1 14 moralOther moralOther match m n 0 0.6954 
31-May-2018_15:50:31 Exp 7335 20 female R 2 1 15 moralOther immoralSelf mismatch n m 0 0.3995 
31-May-2018_15:50:34 Exp 7335 20 female R 2 1 16 moralSelf moralSelf match m m 1 0.5695 
31-May-2018_15:50:36 Exp 7335 20 female R 2 1 17 moralOther immoralOther mismatch n m 0 0.8416 
31-May-2018_15:50:39 Exp 7335 20 female R 2 1 18 moralOther moralOther match m m 1 0.7637 
31-May-2018_15:50:41 Exp 7335 20 female R 2 1 19 immoralSelf immoralSelf match m m 1 0.7259 
31-May-2018_15:50:44 Exp 7335 20 female R 2 1 20 moralOther immoralSelf mismatch n NA -1 1.0850 
31-May-2018_15:50:46 Exp 7335 20 female R 2 1 21 moralSelf immoralOther mismatch n n 1 0.6822 
31-May-2018_15:50:48 Exp 7335 20 female R 2 1 22 immoralOther immoralSelf mismatch n n 1 0.8364 
31-May-2018_15:50:51 Exp 7335 20 female R 2 1 23 immoralSelf moralOther mismatch n m 0 0.9205 
31-May-2018_15:50:53 Exp 7335 20 female R 2 1 24 moralSelf immoralOther mismatch n n 1 0.7386 
31-May-2018_15:50:56 Exp 7335 20 female R 2 2 1 moralOther moralSelf mismatch n m 0 0.6248 
31-May-2018_15:50:57 Exp 7335 20 female R 2 2 2 immoralSelf moralSelf mismatch n n 1 0.2550 
31-May-2018_15:51:00 Exp 7335 20 female R 2 2 3 immoralSelf immoralSelf match m NA -1 1.0850 
31-May-2018_15:51:02 Exp 7335 20 female R 2 2 4 moralOther immoralOther mismatch n m 0 0.3691 
31-May-2018_15:51:04 Exp 7335 20 female R 2 2 5 moralOther moralOther match m n 0 0.5773 
31-May-2018_15:51:06 Exp 7335 20 female R 2 2 6 moralOther moralOther match m m 1 0.1102 
31-May-2018_15:51:08 Exp 7335 20 female R 2 2 7 immoralOther immoralOther match m m 1 0.6275 
31-May-2018_15:51:11 Exp 7335 20 female R 2 2 8 immoralOther moralSelf mismatch n m 0 0.5838 
31-May-2018_15:51:13 Exp 7335 20 female R 2 2 9 moralSelf immoralOther mismatch n n 1 0.6218 
31-May-2018_15:51:15 Exp 7335 20 female R 2 2 10 immoralSelf immoralOther mismatch n n 1 0.3478 
31-May-2018_15:51:17 Exp 7335 20 female R 2 2 11 moralOther moralOther match m m 1 0.1840 
31-May-2018_15:51:18 Exp 7335 20 female R 2 2 12 moralSelf moralSelf match m n 0 0.1981 
31-May-2018_15:51:21 Exp 7335 20 female R 2 2 13 immoralSelf moralSelf mismatch n m 0 0.6162 
31-May-2018_15:51:23 Exp 7335 20 female R 2 2 14 moralSelf moralOther mismatch n n 1 0.7764 
31-May-2018_15:51:25 Exp 7335 20 female R 2 2 15 immoralOther immoralOther match m m 1 0.7285 
31-May-2018_15:51:27 Exp 7335 20 female R 2 2 16 moralSelf immoralSelf mismatch n m 0 0.4566 
31-May-2018_15:51:30 Exp 7335 20 female R 2 2 17 immoralSelf immoralSelf match m n 0 0.5207 
31-May-2018_15:51:31 Exp 7335 20 female R 2 2 18 immoralSelf immoralSelf match m m 1 0.2189 
31-May-2018_15:51:34 Exp 7335 20 female R 2 2 19 moralOther immoralOther mismatch n n 1 0.6730 
31-May-2018_15:51:36 Exp 7335 20 female R 2 2 20 immoralOther immoralOther match m m 1 0.5891 
31-May-2018_15:51:38 Exp 7335 20 female R 2 2 21 moralSelf moralSelf match m m 1 0.5692 
31-May-2018_15:51:40 Exp 7335 20 female R 2 2 22 immoralOther moralOther mismatch n n 1 0.5854 
31-May-2018_15:51:43 Exp 7335 20 female R 2 2 23 moralSelf moralSelf match m m 1 0.5514 
31-May-2018_15:51:45 Exp 7335 20 female R 2 2 24 immoralOther moralSelf mismatch n n 1 0.6997 
31-May-2018_15:51:47 Exp 7335 20 female R 2 3 1 immoralSelf immoralSelf match m n 0 0.7138 
31-May-2018_15:51:49 Exp 7335 20 female R 2 3 2 moralSelf moralOther mismatch n m 0 0.5179 
31-May-2018_15:51:52 Exp 7335 20 female R 2 3 3 moralSelf moralSelf match m n 0 0.5920 
31-May-2018_15:51:54 Exp 7335 20 female R 2 3 4 immoralOther immoralSelf mismatch n n 1 0.5802 
31-May-2018_15:51:56 Exp 7335 20 female R 2 3 5 moralOther moralOther match m m 1 0.8503 
31-May-2018_15:51:59 Exp 7335 20 female R 2 3 6 immoralSelf moralOther mismatch n n 1 0.6825 
31-May-2018_15:52:01 Exp 7335 20 female R 2 3 7 immoralSelf moralOther mismatch n n 1 0.5326 
31-May-2018_15:52:03 Exp 7335 20 female R 2 3 8 moralSelf moralSelf match m m 1 0.5167 
31-May-2018_15:52:05 Exp 7335 20 female R 2 3 9 immoralOther immoralOther match m m 1 0.7529 
31-May-2018_15:52:08 Exp 7335 20 female R 2 3 10 moralOther moralSelf mismatch n n 1 0.5730 
31-May-2018_15:52:10 Exp 7335 20 female R 2 3 11 moralOther moralOther match m m 1 0.4611 
31-May-2018_15:52:12 Exp 7335 20 female R 2 3 12 moralSelf immoralSelf mismatch n m 0 0.5393 
31-May-2018_15:52:14 Exp 7335 20 female R 2 3 13 immoralSelf immoralOther mismatch n n 1 0.5854 
31-May-2018_15:52:16 Exp 7335 20 female R 2 3 14 immoralOther immoralOther match m m 1 0.5915 
31-May-2018_15:52:18 Exp 7335 20 female R 2 3 15 immoralSelf immoralSelf match m n 0 0.4997 
31-May-2018_15:52:20 Exp 7335 20 female R 2 3 16 moralSelf immoralSelf mismatch n m 0 0.5377 
31-May-2018_15:52:23 Exp 7335 20 female R 2 3 17 immoralSelf immoralSelf match m n 0 0.5999 
31-May-2018_15:52:25 Exp 7335 20 female R 2 3 18 moralOther moralOther match m m 1 0.8499 
31-May-2018_15:52:28 Exp 7335 20 female R 2 3 19 immoralOther immoralOther match m n 0 0.7301 
31-May-2018_15:52:30 Exp 7335 20 female R 2 3 20 moralSelf moralSelf match m m 1 0.6661 
31-May-2018_15:52:32 Exp 7335 20 female R 2 3 21 moralOther moralSelf mismatch n n 1 0.7683 
31-May-2018_15:52:35 Exp 7335 20 female R 2 3 22 immoralOther moralSelf mismatch n m 0 0.9685 
31-May-2018_15:52:38 Exp 7335 20 female R 2 3 23 moralOther immoralOther mismatch n NA -1 1.0850 
31-May-2018_15:52:40 Exp 7335 20 female R 2 3 24 immoralOther immoralSelf mismatch n n 1 0.9228 
31-May-2018_15:53:20 Exp 7335 20 female R 2 4 1 immoralOther moralSelf mismatch n m 0 0.6711 
31-May-2018_15:53:23 Exp 7335 20 female R 2 4 2 moralOther moralOther match m m 1 0.8833 
31-May-2018_15:53:25 Exp 7335 20 female R 2 4 3 immoralOther immoralOther match m n 0 0.5973 
31-May-2018_15:53:27 Exp 7335 20 female R 2 4 4 moralSelf moralSelf match m m 1 0.6315 
31-May-2018_15:53:30 Exp 7335 20 female R 2 4 5 immoralSelf immoralSelf match m n 0 0.6596 
31-May-2018_15:53:32 Exp 7335 20 female R 2 4 6 moralOther moralOther match m m 1 0.8898 
31-May-2018_15:53:34 Exp 7335 20 female R 2 4 7 moralOther moralOther match m m 1 0.5460 
31-May-2018_15:53:37 Exp 7335 20 female R 2 4 8 moralSelf moralSelf match m m 1 0.6400 
31-May-2018_15:53:39 Exp 7335 20 female R 2 4 9 immoralSelf moralSelf mismatch n NA -1 1.0850 
31-May-2018_15:53:42 Exp 7335 20 female R 2 4 10 moralSelf immoralSelf mismatch n n 1 0.7884 
31-May-2018_15:53:44 Exp 7335 20 female R 2 4 11 moralSelf immoralSelf mismatch n n 1 0.6326 
31-May-2018_15:53:47 Exp 7335 20 female R 2 4 12 immoralSelf moralSelf mismatch n n 1 0.9646 
31-May-2018_15:53:49 Exp 7335 20 female R 2 4 13 moralOther immoralOther mismatch n m 0 0.9027 
31-May-2018_15:53:51 Exp 7335 20 female R 2 4 14 moralSelf immoralSelf mismatch n n 1 0.7569 
31-May-2018_15:53:54 Exp 7335 20 female R 2 4 15 immoralOther immoralSelf mismatch n n 1 1.0411 
31-May-2018_15:53:57 Exp 7335 20 female R 2 4 16 moralOther moralSelf mismatch n NA -1 1.0850 
31-May-2018_15:53:59 Exp 7335 20 female R 2 4 17 moralSelf moralSelf match m m 1 0.7493 
31-May-2018_15:54:02 Exp 7335 20 female R 2 4 18 immoralSelf immoralSelf match m n 0 0.7055 
31-May-2018_15:54:04 Exp 7335 20 female R 2 4 19 immoralOther immoralOther match m m 1 0.7916 
31-May-2018_15:54:06 Exp 7335 20 female R 2 4 20 moralOther immoralOther mismatch n n 1 0.7477 
31-May-2018_15:54:09 Exp 7335 20 female R 2 4 21 immoralOther moralOther mismatch n m 0 0.7838 
31-May-2018_15:54:11 Exp 7335 20 female R 2 4 22 immoralOther immoralOther match m m 1 0.7341 
31-May-2018_15:54:14 Exp 7335 20 female R 2 4 23 immoralSelf immoralSelf match m n 0 0.8222 
31-May-2018_15:54:16 Exp 7335 20 female R 2 4 24 immoralSelf moralOther mismatch n n 1 1.0759 
31-May-2018_15:54:19 Exp 7335 20 female R 2 5 1 immoralOther moralSelf mismatch n n 1 0.7925 
31-May-2018_15:54:21 Exp 7335 20 female R 2 5 2 immoralOther immoralOther match m n 0 0.4847 
31-May-2018_15:54:23 Exp 7335 20 female R 2 5 3 immoralSelf immoralSelf match m n 0 0.7747 
31-May-2018_15:54:26 Exp 7335 20 female R 2 5 4 moralSelf immoralSelf mismatch n n 1 0.8389 
31-May-2018_15:54:28 Exp 7335 20 female R 2 5 5 moralOther moralOther match m m 1 1.0330 
31-May-2018_15:54:31 Exp 7335 20 female R 2 5 6 immoralSelf immoralOther mismatch n m 0 0.7412 
31-May-2018_15:54:33 Exp 7335 20 female R 2 5 7 moralOther moralOther match m m 1 0.9554 
31-May-2018_15:54:35 Exp 7335 20 female R 2 5 8 moralOther immoralOther mismatch n n 1 0.5835 
31-May-2018_15:54:38 Exp 7335 20 female R 2 5 9 immoralSelf immoralSelf match m NA -1 1.0850 
31-May-2018_15:54:40 Exp 7335 20 female R 2 5 10 moralSelf moralSelf match m m 1 0.6878 
31-May-2018_15:54:43 Exp 7335 20 female R 2 5 11 moralSelf moralSelf match m m 1 0.7598 
31-May-2018_15:54:45 Exp 7335 20 female R 2 5 12 immoralOther immoralSelf mismatch n n 1 0.9940 
31-May-2018_15:54:48 Exp 7335 20 female R 2 5 13 immoralSelf moralSelf mismatch n NA -1 1.0850 
31-May-2018_15:54:51 Exp 7335 20 female R 2 5 14 moralSelf immoralOther mismatch n n 1 0.7363 
31-May-2018_15:54:53 Exp 7335 20 female R 2 5 15 moralOther moralSelf mismatch n NA -1 1.0850 
31-May-2018_15:54:55 Exp 7335 20 female R 2 5 16 moralSelf moralOther mismatch n m 0 0.5946 
31-May-2018_15:54:58 Exp 7335 20 female R 2 5 17 immoralOther immoralOther match m m 1 0.7267 
31-May-2018_15:55:00 Exp 7335 20 female R 2 5 18 moralOther immoralOther mismatch n m 0 0.8488 
31-May-2018_15:55:03 Exp 7335 20 female R 2 5 19 immoralOther moralOther mismatch n n 1 0.7690 
31-May-2018_15:55:05 Exp 7335 20 female R 2 5 20 immoralSelf immoralSelf match m m 1 0.7932 
31-May-2018_15:55:07 Exp 7335 20 female R 2 5 21 moralSelf moralSelf match m m 1 0.7093 
31-May-2018_15:55:10 Exp 7335 20 female R 2 5 22 immoralSelf moralOther mismatch n n 1 1.0575 
31-May-2018_15:55:13 Exp 7335 20 female R 2 5 23 moralOther moralOther match m n 0 0.8639 
31-May-2018_15:55:15 Exp 7335 20 female R 2 5 24 immoralOther immoralOther match m m 1 0.8938 
31-May-2018_15:55:21 Exp 7335 20 female R 3 1 1 immoralOther immoralOther match m NA -1 1.0850 
31-May-2018_15:55:24 Exp 7335 20 female R 3 1 2 immoralOther immoralSelf mismatch n NA -1 1.0850 
31-May-2018_15:55:26 Exp 7335 20 female R 3 1 3 immoralSelf immoralSelf match m m 1 0.7564 
31-May-2018_15:55:28 Exp 7335 20 female R 3 1 4 moralSelf moralSelf match m m 1 0.6645 
31-May-2018_15:55:31 Exp 7335 20 female R 3 1 5 immoralOther immoralSelf mismatch n n 1 0.6466 
31-May-2018_15:55:33 Exp 7335 20 female R 3 1 6 immoralSelf moralOther mismatch n m 0 0.7448 
31-May-2018_15:55:35 Exp 7335 20 female R 3 1 7 moralOther moralSelf mismatch n n 1 0.7029 
31-May-2018_15:55:38 Exp 7335 20 female R 3 1 8 moralOther moralOther match m n 0 0.7810 
31-May-2018_15:55:40 Exp 7335 20 female R 3 1 9 immoralOther moralOther mismatch n n 1 0.7872 
31-May-2018_15:55:43 Exp 7335 20 female R 3 1 10 moralOther immoralSelf mismatch n n 1 1.0633 
31-May-2018_15:55:45 Exp 7335 20 female R 3 1 11 immoralSelf immoralOther mismatch n n 1 0.9575 
31-May-2018_15:55:48 Exp 7335 20 female R 3 1 12 immoralOther immoralOther match m m 1 0.7837 
31-May-2018_15:55:50 Exp 7335 20 female R 3 1 13 immoralOther immoralOther match m m 1 0.6217 
31-May-2018_15:55:52 Exp 7335 20 female R 3 1 14 moralOther moralOther match m n 0 0.6759 
31-May-2018_15:55:55 Exp 7335 20 female R 3 1 15 moralSelf immoralSelf mismatch n n 1 0.8080 
31-May-2018_15:55:57 Exp 7335 20 female R 3 1 16 moralSelf moralSelf match m n 0 0.5602 
31-May-2018_15:56:00 Exp 7335 20 female R 3 1 17 immoralSelf immoralSelf match m m 1 0.9863 
31-May-2018_15:56:02 Exp 7335 20 female R 3 1 18 moralOther moralOther match m m 1 0.8325 
31-May-2018_15:56:05 Exp 7335 20 female R 3 1 19 immoralSelf immoralSelf match m m 1 1.0364 
31-May-2018_15:56:07 Exp 7335 20 female R 3 1 20 moralOther moralSelf mismatch n n 1 0.8328 
31-May-2018_15:56:09 Exp 7335 20 female R 3 1 21 moralSelf immoralOther mismatch n n 1 0.6289 
31-May-2018_15:56:12 Exp 7335 20 female R 3 1 22 moralSelf moralSelf match m m 1 0.6489 
31-May-2018_15:56:14 Exp 7335 20 female R 3 1 23 immoralSelf moralOther mismatch n n 1 0.8571 
31-May-2018_15:56:17 Exp 7335 20 female R 3 1 24 moralSelf moralOther mismatch n n 1 0.9272 
31-May-2018_15:56:19 Exp 7335 20 female R 3 2 1 immoralSelf immoralSelf match m m 1 0.8155 
31-May-2018_15:56:22 Exp 7335 20 female R 3 2 2 immoralOther immoralOther match m m 1 0.7676 
31-May-2018_15:56:24 Exp 7335 20 female R 3 2 3 immoralOther immoralSelf mismatch n n 1 0.8797 
31-May-2018_15:56:27 Exp 7335 20 female R 3 2 4 immoralSelf immoralOther mismatch n NA -1 1.0850 
31-May-2018_15:56:29 Exp 7335 20 female R 3 2 5 moralOther immoralOther mismatch n n 1 0.8920 
31-May-2018_15:56:32 Exp 7335 20 female R 3 2 6 moralOther moralOther match m m 1 0.7162 
31-May-2018_15:56:34 Exp 7335 20 female R 3 2 7 moralOther immoralOther mismatch n n 1 0.6403 
31-May-2018_15:56:36 Exp 7335 20 female R 3 2 8 moralSelf moralOther mismatch n n 1 0.7224 
31-May-2018_15:56:39 Exp 7335 20 female R 3 2 9 moralSelf moralSelf match m m 1 0.6605 
31-May-2018_15:56:41 Exp 7335 20 female R 3 2 10 moralSelf immoralOther mismatch n n 1 0.6426 
31-May-2018_15:56:43 Exp 7335 20 female R 3 2 11 immoralSelf moralOther mismatch n n 1 0.6689 
31-May-2018_15:56:46 Exp 7335 20 female R 3 2 12 immoralOther immoralOther match m m 1 0.7289 
31-May-2018_15:56:48 Exp 7335 20 female R 3 2 13 immoralOther immoralOther match m m 1 0.6971 
31-May-2018_15:56:50 Exp 7335 20 female R 3 2 14 moralOther immoralSelf mismatch n n 1 0.8952 
31-May-2018_15:56:53 Exp 7335 20 female R 3 2 15 moralOther moralOther match m m 1 0.7993 
31-May-2018_15:56:55 Exp 7335 20 female R 3 2 16 moralSelf immoralSelf mismatch n n 1 0.6495 
31-May-2018_15:56:57 Exp 7335 20 female R 3 2 17 moralSelf moralSelf match m m 1 0.6736 
31-May-2018_15:57:00 Exp 7335 20 female R 3 2 18 moralOther moralOther match m n 0 0.5498 
31-May-2018_15:57:02 Exp 7335 20 female R 3 2 19 immoralSelf moralSelf mismatch n n 1 1.0339 
31-May-2018_15:57:05 Exp 7335 20 female R 3 2 20 immoralOther moralSelf mismatch n n 1 0.7821 
31-May-2018_15:57:07 Exp 7335 20 female R 3 2 21 immoralOther immoralSelf mismatch n n 1 0.7242 
31-May-2018_15:57:09 Exp 7335 20 female R 3 2 22 immoralSelf immoralSelf match m m 1 0.7903 
31-May-2018_15:57:12 Exp 7335 20 female R 3 2 23 immoralSelf immoralSelf match m m 1 0.5624 
31-May-2018_15:57:14 Exp 7335 20 female R 3 2 24 moralSelf moralSelf match m m 1 0.6766 
31-May-2018_15:57:16 Exp 7335 20 female R 3 3 1 immoralSelf immoralSelf match m n 0 0.6567 
31-May-2018_15:57:18 Exp 7335 20 female R 3 3 2 immoralOther immoralOther match m m 1 0.6408 
31-May-2018_15:57:21 Exp 7335 20 female R 3 3 3 moralOther moralOther match m NA -1 1.0850 
31-May-2018_15:57:23 Exp 7335 20 female R 3 3 4 moralOther immoralOther mismatch n m 0 0.5251 
31-May-2018_15:57:26 Exp 7335 20 female R 3 3 5 moralSelf moralOther mismatch n n 1 0.5993 
31-May-2018_15:57:27 Exp 7335 20 female R 3 3 6 immoralOther moralOther mismatch n n 1 0.2413 
31-May-2018_15:57:30 Exp 7335 20 female R 3 3 7 moralSelf moralSelf match m m 1 0.4915 
31-May-2018_15:57:32 Exp 7335 20 female R 3 3 8 immoralSelf immoralSelf match m m 1 0.5557 
31-May-2018_15:57:34 Exp 7335 20 female R 3 3 9 moralSelf moralSelf match m m 1 0.4958 
31-May-2018_15:57:36 Exp 7335 20 female R 3 3 10 moralSelf immoralSelf mismatch n m 0 0.4479 
31-May-2018_15:57:38 Exp 7335 20 female R 3 3 11 immoralSelf moralSelf mismatch n m 0 0.7040 
31-May-2018_15:57:41 Exp 7335 20 female R 3 3 12 immoralOther immoralSelf mismatch n n 1 0.7822 
31-May-2018_15:57:43 Exp 7335 20 female R 3 3 13 immoralSelf moralSelf mismatch n n 1 1.0123 
31-May-2018_15:57:46 Exp 7335 20 female R 3 3 14 immoralSelf immoralSelf match m n 0 0.6524 
31-May-2018_15:57:48 Exp 7335 20 female R 3 3 15 immoralOther immoralOther match m m 1 0.6206 
31-May-2018_15:57:50 Exp 7335 20 female R 3 3 16 moralOther immoralSelf mismatch n n 1 0.6987 
31-May-2018_15:57:52 Exp 7335 20 female R 3 3 17 moralOther immoralSelf mismatch n n 1 0.6487 
31-May-2018_15:57:55 Exp 7335 20 female R 3 3 18 moralSelf moralSelf match m m 1 0.5128 
31-May-2018_15:57:57 Exp 7335 20 female R 3 3 19 immoralSelf immoralOther mismatch n n 1 0.5891 
31-May-2018_15:57:59 Exp 7335 20 female R 3 3 20 immoralOther moralOther mismatch n n 1 0.7771 
31-May-2018_15:58:02 Exp 7335 20 female R 3 3 21 moralOther moralOther match m m 1 0.9674 
31-May-2018_15:58:04 Exp 7335 20 female R 3 3 22 moralSelf moralOther mismatch n n 1 0.6715 
31-May-2018_15:58:07 Exp 7335 20 female R 3 3 23 immoralOther immoralOther match m m 1 0.8276 
31-May-2018_15:58:09 Exp 7335 20 female R 3 3 24 moralOther moralOther match m n 0 0.7918 
31-May-2018_15:58:34 Exp 7335 20 female R 3 4 1 immoralSelf immoralSelf match m m 1 0.7852 
31-May-2018_15:58:36 Exp 7335 20 female R 3 4 2 moralOther immoralOther mismatch n n 1 0.6073 
31-May-2018_15:58:38 Exp 7335 20 female R 3 4 3 moralOther moralSelf mismatch n m 0 0.6555 
31-May-2018_15:58:41 Exp 7335 20 female R 3 4 4 immoralSelf immoralSelf match m n 0 0.7676 
31-May-2018_15:58:43 Exp 7335 20 female R 3 4 5 moralOther moralOther match m m 1 0.7677 
31-May-2018_15:58:46 Exp 7335 20 female R 3 4 6 moralSelf immoralSelf mismatch n n 1 0.7279 
31-May-2018_15:58:48 Exp 7335 20 female R 3 4 7 immoralSelf immoralSelf match m m 1 0.7280 
31-May-2018_15:58:50 Exp 7335 20 female R 3 4 8 moralSelf immoralOther mismatch n n 1 0.6404 
31-May-2018_15:58:52 Exp 7335 20 female R 3 4 9 moralSelf immoralSelf mismatch n n 1 0.6742 
31-May-2018_15:58:55 Exp 7335 20 female R 3 4 10 immoralOther immoralOther match m m 1 0.6864 
31-May-2018_15:58:57 Exp 7335 20 female R 3 4 11 immoralOther moralSelf mismatch n n 1 0.7765 
31-May-2018_15:59:00 Exp 7335 20 female R 3 4 12 immoralOther moralSelf mismatch n n 1 1.0727 
31-May-2018_15:59:02 Exp 7335 20 female R 3 4 13 moralSelf moralSelf match m n 0 0.8688 
31-May-2018_15:59:05 Exp 7335 20 female R 3 4 14 immoralSelf moralSelf mismatch n n 1 0.8330 
31-May-2018_15:59:07 Exp 7335 20 female R 3 4 15 moralSelf moralSelf match m m 1 0.7332 
31-May-2018_15:59:10 Exp 7335 20 female R 3 4 16 immoralOther immoralOther match m n 0 0.7652 
31-May-2018_15:59:12 Exp 7335 20 female R 3 4 17 moralOther moralOther match m m 1 0.7513 
31-May-2018_15:59:14 Exp 7335 20 female R 3 4 18 moralSelf moralSelf match m m 1 0.6435 
31-May-2018_15:59:16 Exp 7335 20 female R 3 4 19 moralOther moralOther match m n 0 0.5977 
31-May-2018_15:59:19 Exp 7335 20 female R 3 4 20 immoralOther immoralSelf mismatch n n 1 0.8398 
31-May-2018_15:59:21 Exp 7335 20 female R 3 4 21 immoralOther immoralOther match m m 1 0.8342 
31-May-2018_15:59:24 Exp 7335 20 female R 3 4 22 moralOther immoralSelf mismatch n n 1 0.9020 
31-May-2018_15:59:27 Exp 7335 20 female R 3 4 23 immoralSelf moralOther mismatch n NA -1 1.0850 
31-May-2018_15:59:29 Exp 7335 20 female R 3 4 24 immoralSelf immoralOther mismatch n n 1 0.6863 
31-May-2018_15:59:31 Exp 7335 20 female R 3 5 1 immoralSelf immoralSelf match m m 1 0.6085 
31-May-2018_15:59:34 Exp 7335 20 female R 3 5 2 immoralOther moralOther mismatch n n 1 0.7126 
31-May-2018_15:59:36 Exp 7335 20 female R 3 5 3 immoralOther moralOther mismatch n n 1 0.5967 
31-May-2018_15:59:38 Exp 7335 20 female R 3 5 4 moralOther moralOther match m m 1 0.7289 
31-May-2018_15:59:41 Exp 7335 20 female R 3 5 5 immoralSelf moralSelf mismatch n n 1 0.7771 
31-May-2018_15:59:43 Exp 7335 20 female R 3 5 6 immoralSelf moralOther mismatch n n 1 0.6232 
31-May-2018_15:59:45 Exp 7335 20 female R 3 5 7 immoralOther immoralOther match m m 1 0.6853 
31-May-2018_15:59:47 Exp 7335 20 female R 3 5 8 moralSelf moralSelf match m m 1 0.6873 
31-May-2018_15:59:50 Exp 7335 20 female R 3 5 9 immoralSelf immoralSelf match m n 0 0.6716 
31-May-2018_15:59:52 Exp 7335 20 female R 3 5 10 immoralSelf immoralSelf match m m 1 0.3477 
31-May-2018_15:59:54 Exp 7335 20 female R 3 5 11 moralSelf immoralSelf mismatch n n 1 0.6798 
31-May-2018_15:59:56 Exp 7335 20 female R 3 5 12 moralSelf moralSelf match m m 1 0.7139 
31-May-2018_15:59:59 Exp 7335 20 female R 3 5 13 moralSelf moralOther mismatch n m 0 0.7261 
31-May-2018_16:00:01 Exp 7335 20 female R 3 5 14 moralSelf immoralSelf mismatch n n 1 0.7362 
31-May-2018_16:00:04 Exp 7335 20 female R 3 5 15 immoralSelf moralSelf mismatch n m 0 0.8963 
31-May-2018_16:00:06 Exp 7335 20 female R 3 5 16 moralOther immoralSelf mismatch n n 1 0.7585 
31-May-2018_16:00:08 Exp 7335 20 female R 3 5 17 moralOther immoralOther mismatch n n 1 0.6966 
31-May-2018_16:00:11 Exp 7335 20 female R 3 5 18 immoralOther moralSelf mismatch n m 0 0.7368 
31-May-2018_16:00:13 Exp 7335 20 female R 3 5 19 moralOther moralSelf mismatch n n 1 0.8489 
31-May-2018_16:00:15 Exp 7335 20 female R 3 5 20 immoralOther immoralOther match m m 1 0.6331 
31-May-2018_16:00:18 Exp 7335 20 female R 3 5 21 moralOther moralOther match m m 1 0.9892 
31-May-2018_16:00:20 Exp 7335 20 female R 3 5 22 immoralOther immoralOther match m m 1 0.7054 
31-May-2018_16:00:23 Exp 7335 20 female R 3 5 23 moralSelf moralSelf match m m 1 0.7434 
31-May-2018_16:00:25 Exp 7335 20 female R 3 5 24 moralOther moralOther match m m 1 0.9335 
Date Prac Sub Age Sex Hand Block Bin Trial Shape Label Match CorrResp Resp ACC RT
31-May-2018_16:05:16 Exp 7335 20 female R 1 1 1 moralOther moralOther match m NA -1 1.0850 
31-May-2018_16:05:18 Exp 7335 20 female R 1 1 2 moralSelf immoralOther mismatch n y 2 0.6706 
31-May-2018_16:05:21 Exp 7335 20 female R 1 1 3 moralOther moralSelf mismatch n n 1 1.0189 
31-May-2018_16:05:24 Exp 7335 20 female R 1 1 4 moralOther immoralSelf mismatch n n 1 1.0008 
31-May-2018_16:05:26 Exp 7335 20 female R 1 1 5 immoralOther moralSelf mismatch n n 1 0.7951 
31-May-2018_16:05:28 Exp 7335 20 female R 1 1 6 moralOther immoralSelf mismatch n n 1 0.6231 
31-May-2018_16:05:31 Exp 7335 20 female R 1 1 7 immoralOther immoralOther match m m 1 0.6452 
31-May-2018_16:05:33 Exp 7335 20 female R 1 1 8 immoralOther moralSelf mismatch n n 1 0.5673 
31-May-2018_16:05:35 Exp 7335 20 female R 1 1 9 immoralSelf moralSelf mismatch n n 1 0.5273 
31-May-2018_16:05:37 Exp 7335 20 female R 1 1 10 immoralOther immoralOther match m m 1 0.7518 
31-May-2018_16:05:40 Exp 7335 20 female R 1 1 11 immoralSelf immoralSelf match m n 0 0.8037 
31-May-2018_16:05:42 Exp 7335 20 female R 1 1 12 moralSelf moralOther mismatch n m 0 0.7339 
31-May-2018_16:05:45 Exp 7335 20 female R 1 1 13 immoralOther immoralOther match m NA -1 1.0850 
31-May-2018_16:05:47 Exp 7335 20 female R 1 1 14 moralSelf immoralOther mismatch n n 1 0.6562 
31-May-2018_16:05:50 Exp 7335 20 female R 1 1 15 immoralSelf immoralSelf match m m 1 0.8083 
31-May-2018_16:05:52 Exp 7335 20 female R 1 1 16 immoralOther moralSelf mismatch n n 1 0.6164 
31-May-2018_16:05:54 Exp 7335 20 female R 1 1 17 immoralSelf immoralSelf match m m 1 0.8406 
31-May-2018_16:05:57 Exp 7335 20 female R 1 1 18 immoralSelf moralSelf mismatch n n 1 0.9708 
31-May-2018_16:05:59 Exp 7335 20 female R 1 1 19 immoralSelf moralSelf mismatch n n 1 0.6349 
31-May-2018_16:06:02 Exp 7335 20 female R 1 1 20 moralOther moralOther match m m 1 0.7430 
31-May-2018_16:06:04 Exp 7335 20 female R 1 1 21 moralSelf moralSelf match m m 1 0.7331 
31-May-2018_16:06:06 Exp 7335 20 female R 1 1 22 moralSelf moralSelf match m m 1 0.5572 
31-May-2018_16:06:08 Exp 7335 20 female R 1 1 23 moralSelf moralSelf match m m 1 0.5037 
31-May-2018_16:06:11 Exp 7335 20 female R 1 1 24 moralOther moralOther match m n 0 0.7575 
31-May-2018_16:06:13 Exp 7335 20 female R 1 2 1 immoralSelf moralOther mismatch n n 1 1.0637 
31-May-2018_16:06:16 Exp 7335 20 female R 1 2 2 immoralSelf immoralSelf match m m 1 0.8618 
31-May-2018_16:06:18 Exp 7335 20 female R 1 2 3 moralOther immoralOther mismatch n n 1 0.8043 
31-May-2018_16:06:21 Exp 7335 20 female R 1 2 4 immoralOther immoralOther match m m 1 0.5982 
31-May-2018_16:06:23 Exp 7335 20 female R 1 2 5 immoralOther moralSelf mismatch n n 1 0.7362 
31-May-2018_16:06:25 Exp 7335 20 female R 1 2 6 immoralOther immoralOther match m m 1 0.6884 
31-May-2018_16:06:27 Exp 7335 20 female R 1 2 7 moralOther moralOther match m m 1 0.6245 
31-May-2018_16:06:30 Exp 7335 20 female R 1 2 8 immoralOther immoralSelf mismatch n n 1 0.6626 
31-May-2018_16:06:32 Exp 7335 20 female R 1 2 9 moralOther moralOther match m m 1 0.7567 
31-May-2018_16:06:35 Exp 7335 20 female R 1 2 10 immoralSelf immoralSelf match m m 1 0.8169 
31-May-2018_16:06:37 Exp 7335 20 female R 1 2 11 moralSelf immoralOther mismatch n n 1 0.6170 
31-May-2018_16:06:39 Exp 7335 20 female R 1 2 12 immoralSelf moralSelf mismatch n m 0 0.9131 
31-May-2018_16:06:42 Exp 7335 20 female R 1 2 13 immoralSelf immoralSelf match m m 1 0.8453 
31-May-2018_16:06:44 Exp 7335 20 female R 1 2 14 moralSelf immoralOther mismatch n n 1 0.6075 
31-May-2018_16:06:46 Exp 7335 20 female R 1 2 15 moralOther moralOther match m m 1 0.6637 
31-May-2018_16:06:49 Exp 7335 20 female R 1 2 16 moralSelf moralSelf match m m 1 0.6778 
31-May-2018_16:06:51 Exp 7335 20 female R 1 2 17 moralOther moralSelf mismatch n n 1 0.8719 
31-May-2018_16:06:53 Exp 7335 20 female R 1 2 18 moralSelf moralSelf match m n 0 0.6440 
31-May-2018_16:06:56 Exp 7335 20 female R 1 2 19 moralSelf immoralSelf mismatch n n 1 0.9103 
31-May-2018_16:06:59 Exp 7335 20 female R 1 2 20 moralOther immoralSelf mismatch n NA -1 1.0850 
31-May-2018_16:07:01 Exp 7335 20 female R 1 2 21 immoralSelf moralSelf mismatch n n 1 0.9163 
31-May-2018_16:07:04 Exp 7335 20 female R 1 2 22 immoralOther immoralSelf mismatch n n 1 0.8965 
31-May-2018_16:07:06 Exp 7335 20 female R 1 2 23 moralSelf moralSelf match m m 1 0.8248 
31-May-2018_16:07:09 Exp 7335 20 female R 1 2 24 immoralOther immoralOther match m m 1 0.7589 
Date Prac Sub Age Sex Hand Block Bin Trial Shape Label Match CorrResp Resp ACC RT
31-May-2018_16:11:54 Exp 7335 20 female R 1 1 1 immoralOther moralOther mismatch n n 1 0.9973 
31-May-2018_16:11:56 Exp 7335 20 female R 1 1 2 immoralOther immoralOther match m m 1 0.6794 
31-May-2018_16:11:58 Exp 7335 20 female R 1 1 3 moralOther moralOther match m m 1 0.7376 
31-May-2018_16:12:00 Exp 7335 20 female R 1 1 4 moralOther moralOther match m m 1 0.4638 
31-May-2018_16:12:02 Exp 7335 20 female R 1 1 5 moralOther moralOther match m m 1 0.4459 
31-May-2018_16:12:05 Exp 7335 20 female R 1 1 6 immoralSelf moralSelf mismatch n n 1 0.7360 
31-May-2018_16:12:07 Exp 7335 20 female R 1 1 7 moralSelf moralSelf match m m 1 0.4722 
31-May-2018_16:12:09 Exp 7335 20 female R 1 1 8 immoralOther immoralOther match m m 1 0.6602 
31-May-2018_16:12:11 Exp 7335 20 female R 1 1 9 moralOther immoralOther mismatch n n 1 0.6503 
31-May-2018_16:12:14 Exp 7335 20 female R 1 1 10 moralOther moralSelf mismatch n m 0 0.8105 
31-May-2018_16:12:16 Exp 7335 20 female R 1 1 11 immoralOther immoralSelf mismatch n n 1 0.5306 
31-May-2018_16:12:18 Exp 7335 20 female R 1 1 12 immoralSelf moralSelf mismatch n m 0 0.8027 
31-May-2018_16:12:21 Exp 7335 20 female R 1 1 13 moralSelf immoralSelf mismatch n n 1 0.7170 
31-May-2018_16:12:23 Exp 7335 20 female R 1 1 14 moralSelf moralSelf match m m 1 0.6010 
31-May-2018_16:12:25 Exp 7335 20 female R 1 1 15 moralSelf moralOther mismatch n n 1 0.6511 
31-May-2018_16:12:28 Exp 7335 20 female R 1 1 16 immoralOther immoralOther match m m 1 0.7633 
31-May-2018_16:12:30 Exp 7335 20 female R 1 1 17 immoralSelf immoralSelf match m n 0 0.7174 
31-May-2018_16:12:32 Exp 7335 20 female R 1 1 18 immoralSelf immoralSelf match m m 1 0.8074 
31-May-2018_16:12:35 Exp 7335 20 female R 1 1 19 moralOther immoralOther mismatch n n 1 0.8956 
31-May-2018_16:12:37 Exp 7335 20 female R 1 1 20 immoralSelf moralOther mismatch n n 1 0.7762 
31-May-2018_16:12:40 Exp 7335 20 female R 1 1 21 immoralSelf immoralSelf match m m 1 0.8879 
31-May-2018_16:12:42 Exp 7335 20 female R 1 1 22 moralSelf moralOther mismatch n n 1 0.6721 
31-May-2018_16:12:44 Exp 7335 20 female R 1 1 23 moralSelf moralSelf match m m 1 0.6442 
31-May-2018_16:12:47 Exp 7335 20 female R 1 1 24 immoralOther moralOther mismatch n n 1 0.7504 
31-May-2018_16:12:49 Exp 7335 20 female R 1 2 1 immoralOther immoralSelf mismatch n n 1 0.6985 
31-May-2018_16:12:52 Exp 7335 20 female R 1 2 2 moralSelf immoralSelf mismatch n n 1 0.8166 
31-May-2018_16:12:54 Exp 7335 20 female R 1 2 3 immoralSelf moralSelf mismatch n n 1 1.0487 
31-May-2018_16:12:57 Exp 7335 20 female R 1 2 4 moralOther moralOther match m m 1 0.8969 
31-May-2018_16:12:59 Exp 7335 20 female R 1 2 5 immoralSelf immoralSelf match m n 0 0.5931 
31-May-2018_16:13:01 Exp 7335 20 female R 1 2 6 moralSelf moralSelf match m n 0 0.7252 
31-May-2018_16:13:04 Exp 7335 20 female R 1 2 7 moralSelf immoralOther mismatch n n 1 0.6312 
31-May-2018_16:13:06 Exp 7335 20 female R 1 2 8 immoralOther moralSelf mismatch n n 1 0.9156 
31-May-2018_16:13:09 Exp 7335 20 female R 1 2 9 immoralSelf immoralSelf match m m 1 0.8396 
31-May-2018_16:13:11 Exp 7335 20 female R 1 2 10 moralSelf immoralSelf mismatch n n 1 0.6257 
31-May-2018_16:13:13 Exp 7335 20 female R 1 2 11 immoralOther moralOther mismatch n n 1 0.8238 
31-May-2018_16:13:16 Exp 7335 20 female R 1 2 12 moralSelf moralSelf match m m 1 0.6460 
31-May-2018_16:13:18 Exp 7335 20 female R 1 2 13 moralOther immoralSelf mismatch n n 1 1.0802 
31-May-2018_16:13:21 Exp 7335 20 female R 1 2 14 immoralOther immoralOther match m m 1 0.7623 
31-May-2018_16:13:23 Exp 7335 20 female R 1 2 15 moralOther immoralOther mismatch n n 1 0.6524 
31-May-2018_16:13:25 Exp 7335 20 female R 1 2 16 immoralOther immoralOther match m m 1 0.6446 
31-May-2018_16:13:28 Exp 7335 20 female R 1 2 17 moralOther moralOther match m m 1 0.8627 
31-May-2018_16:13:30 Exp 7335 20 female R 1 2 18 immoralSelf immoralOther mismatch n n 1 0.9089 
31-May-2018_16:13:33 Exp 7335 20 female R 1 2 19 immoralSelf immoralSelf match m m 1 0.5931 
31-May-2018_16:13:35 Exp 7335 20 female R 1 2 20 moralOther immoralSelf mismatch n n 1 0.7491 
31-May-2018_16:13:38 Exp 7335 20 female R 1 2 21 immoralSelf moralSelf mismatch n n 1 1.0254 
31-May-2018_16:13:40 Exp 7335 20 female R 1 2 22 immoralOther immoralOther match m m 1 0.9675 
31-May-2018_16:13:42 Exp 7335 20 female R 1 2 23 moralOther moralOther match m n 0 0.6716 
31-May-2018_16:13:45 Exp 7335 20 female R 1 2 24 moralSelf moralSelf match m n 0 0.7157 
Date Prac Sub Age Sex Hand Block Bin Trial Shape Label Match CorrResp Resp ACC RT
31-May-2018_16:18:02 Exp 7335 20 female R 1 1 1 immoralOther moralOther mismatch n n 1 0.9306 
31-May-2018_16:18:05 Exp 7335 20 female R 1 1 2 immoralOther immoralSelf mismatch n m 0 1.0349 
31-May-2018_16:18:07 Exp 7335 20 female R 1 1 3 immoralSelf immoralSelf match m m 1 0.7588 
31-May-2018_16:18:10 Exp 7335 20 female R 1 1 4 immoralOther immoralOther match m m 1 0.9049 
31-May-2018_16:18:12 Exp 7335 20 female R 1 1 5 moralOther immoralSelf mismatch n n 1 0.6951 
31-May-2018_16:18:15 Exp 7335 20 female R 1 1 6 immoralSelf immoralSelf match m m 1 0.8393 
31-May-2018_16:18:17 Exp 7335 20 female R 1 1 7 moralSelf moralSelf match m m 1 0.5775 
31-May-2018_16:18:19 Exp 7335 20 female R 1 1 8 moralOther moralOther match m n 0 0.8555 
31-May-2018_16:18:22 Exp 7335 20 female R 1 1 9 immoralSelf immoralOther mismatch n n 1 1.0236 
31-May-2018_16:18:24 Exp 7335 20 female R 1 1 10 moralOther moralOther match m m 1 0.6058 
31-May-2018_16:18:26 Exp 7335 20 female R 1 1 11 immoralSelf immoralOther mismatch n n 1 0.6559 
31-May-2018_16:18:29 Exp 7335 20 female R 1 1 12 moralOther immoralOther mismatch n n 1 0.8961 
31-May-2018_16:18:31 Exp 7335 20 female R 1 1 13 moralSelf immoralSelf mismatch n m 0 0.6562 
31-May-2018_16:18:34 Exp 7335 20 female R 1 1 14 moralOther immoralOther mismatch n n 1 0.9204 
31-May-2018_16:18:36 Exp 7335 20 female R 1 1 15 moralSelf moralSelf match m m 1 0.6184 
31-May-2018_16:18:38 Exp 7335 20 female R 1 1 16 immoralSelf immoralOther mismatch n n 1 0.7606 
31-May-2018_16:18:41 Exp 7335 20 female R 1 1 17 immoralSelf immoralSelf match m m 1 0.7227 
31-May-2018_16:18:43 Exp 7335 20 female R 1 1 18 moralSelf moralOther mismatch n n 1 1.0129 
31-May-2018_16:18:46 Exp 7335 20 female R 1 1 19 immoralOther moralOther mismatch n m 0 0.7331 
31-May-2018_16:18:48 Exp 7335 20 female R 1 1 20 moralSelf moralSelf match m m 1 0.6213 
31-May-2018_16:18:50 Exp 7335 20 female R 1 1 21 immoralOther immoralOther match m m 1 0.8113 
31-May-2018_16:18:53 Exp 7335 20 female R 1 1 22 immoralOther immoralOther match m m 1 0.5475 
31-May-2018_16:18:55 Exp 7335 20 female R 1 1 23 moralSelf immoralOther mismatch n n 1 0.6796 
31-May-2018_16:18:57 Exp 7335 20 female R 1 1 24 moralOther moralOther match m m 1 0.7056 
31-May-2018_16:18:59 Exp 7335 20 female R 1 2 1 immoralOther immoralOther match m m 1 0.6558 
31-May-2018_16:19:02 Exp 7335 20 female R 1 2 2 moralOther moralOther match m m 1 0.8160 
31-May-2018_16:19:04 Exp 7335 20 female R 1 2 3 immoralOther immoralOther match m m 1 0.8079 
31-May-2018_16:19:07 Exp 7335 20 female R 1 2 4 moralSelf moralSelf match m m 1 0.8403 
31-May-2018_16:19:09 Exp 7335 20 female R 1 2 5 moralSelf moralSelf match m m 1 0.5063 
31-May-2018_16:19:11 Exp 7335 20 female R 1 2 6 immoralSelf moralSelf mismatch n m 0 0.4645 
31-May-2018_16:19:14 Exp 7335 20 female R 1 2 7 immoralSelf immoralOther mismatch n n 1 0.9346 
31-May-2018_16:19:16 Exp 7335 20 female R 1 2 8 immoralOther moralOther mismatch n n 1 0.6143 
31-May-2018_16:19:18 Exp 7335 20 female R 1 2 9 moralSelf immoralSelf mismatch n n 1 0.7350 
31-May-2018_16:19:21 Exp 7335 20 female R 1 2 10 immoralOther immoralOther match m m 1 0.7350 
31-May-2018_16:19:23 Exp 7335 20 female R 1 2 11 moralOther moralOther match m m 1 0.7032 
31-May-2018_16:19:25 Exp 7335 20 female R 1 2 12 moralOther immoralOther mismatch n n 1 0.6533 
31-May-2018_16:19:27 Exp 7335 20 female R 1 2 13 moralSelf moralOther mismatch n n 1 0.6695 
31-May-2018_16:19:30 Exp 7335 20 female R 1 2 14 immoralSelf immoralOther mismatch n n 1 0.8256 
31-May-2018_16:19:32 Exp 7335 20 female R 1 2 15 moralOther immoralSelf mismatch n n 1 0.8078 
31-May-2018_16:19:35 Exp 7335 20 female R 1 2 16 moralOther moralSelf mismatch n n 1 0.6558 
31-May-2018_16:19:37 Exp 7335 20 female R 1 2 17 immoralOther moralSelf mismatch n n 1 0.8879 
31-May-2018_16:19:40 Exp 7335 20 female R 1 2 18 immoralSelf immoralSelf match m m 1 0.7041 
31-May-2018_16:19:42 Exp 7335 20 female R 1 2 19 moralSelf moralOther mismatch n n 1 0.6623 
31-May-2018_16:19:44 Exp 7335 20 female R 1 2 20 immoralSelf immoralSelf match m m 1 0.7724 
31-May-2018_16:19:47 Exp 7335 20 female R 1 2 21 moralOther moralOther match m m 1 0.9888 
31-May-2018_16:19:49 Exp 7335 20 female R 1 2 22 immoralSelf immoralSelf match m n 0 0.5928 
31-May-2018_16:19:51 Exp 7335 20 female R 1 2 23 moralSelf moralSelf match m n 0 0.6367 
31-May-2018_16:19:54 Exp 7335 20 female R 1 2 24 immoralOther moralSelf mismatch n n 1 0.7450 
Date Prac Sub Age Sex Hand Block Bin Trial Shape Label Match CorrResp Resp ACC RT
31-May-2018_16:24:16 Exp 7335 20 female R 1 1 1 immoralSelf moralOther mismatch n n 1 0.6641 
31-May-2018_16:24:18 Exp 7335 20 female R 1 1 2 moralOther moralOther match m m 1 0.8062 
31-May-2018_16:24:21 Exp 7335 20 female R 1 1 3 immoralOther immoralOther match m m 1 0.6885 
31-May-2018_16:24:23 Exp 7335 20 female R 1 1 4 moralOther immoralOther mismatch n n 1 0.9845 
31-May-2018_16:24:26 Exp 7335 20 female R 1 1 5 moralSelf immoralOther mismatch n n 1 0.6861 
31-May-2018_16:24:28 Exp 7335 20 female R 1 1 6 moralSelf moralSelf match m m 1 0.7848 
31-May-2018_16:24:30 Exp 7335 20 female R 1 1 7 immoralOther immoralSelf mismatch n n 1 0.7349 
31-May-2018_16:24:33 Exp 7335 20 female R 1 1 8 immoralOther immoralOther match m m 1 0.6631 
31-May-2018_16:24:35 Exp 7335 20 female R 1 1 9 immoralOther immoralOther match m m 1 0.6052 
31-May-2018_16:24:38 Exp 7335 20 female R 1 1 10 immoralSelf immoralSelf match m m 1 1.0073 
31-May-2018_16:24:40 Exp 7335 20 female R 1 1 11 moralSelf moralSelf match m m 1 0.8475 
31-May-2018_16:24:42 Exp 7335 20 female R 1 1 12 moralSelf moralSelf match m m 1 0.5516 
31-May-2018_16:24:45 Exp 7335 20 female R 1 1 13 moralOther moralOther match m m 1 0.7878 
31-May-2018_16:24:47 Exp 7335 20 female R 1 1 14 immoralSelf moralSelf mismatch n n 1 0.8560 
31-May-2018_16:24:50 Exp 7335 20 female R 1 1 15 moralSelf immoralSelf mismatch n n 1 0.7441 
31-May-2018_16:24:52 Exp 7335 20 female R 1 1 16 moralOther immoralOther mismatch n n 1 1.0142 
31-May-2018_16:24:55 Exp 7335 20 female R 1 1 17 immoralOther moralOther mismatch n n 1 0.7424 
31-May-2018_16:24:57 Exp 7335 20 female R 1 1 18 moralOther moralOther match m m 1 0.7084 
31-May-2018_16:24:59 Exp 7335 20 female R 1 1 19 immoralSelf immoralSelf match m m 1 0.8006 
31-May-2018_16:25:02 Exp 7335 20 female R 1 1 20 immoralSelf immoralSelf match m m 1 0.7548 
31-May-2018_16:25:04 Exp 7335 20 female R 1 1 21 immoralSelf immoralOther mismatch n n 1 0.7029 
31-May-2018_16:25:06 Exp 7335 20 female R 1 1 22 moralSelf immoralOther mismatch n n 1 0.7090 
31-May-2018_16:25:09 Exp 7335 20 female R 1 1 23 immoralOther moralSelf mismatch n n 1 0.7372 
31-May-2018_16:25:11 Exp 7335 20 female R 1 1 24 moralOther immoralSelf mismatch n n 1 0.9593 
31-May-2018_16:25:14 Exp 7335 20 female R 1 2 1 immoralSelf immoralSelf match m m 1 0.5694 
31-May-2018_16:25:16 Exp 7335 20 female R 1 2 2 immoralOther moralOther mismatch n n 1 0.9216 
31-May-2018_16:25:18 Exp 7335 20 female R 1 2 3 moralSelf moralSelf match m n 0 0.7156 
31-May-2018_16:25:21 Exp 7335 20 female R 1 2 4 moralOther moralOther match m m 1 0.8239 
31-May-2018_16:25:23 Exp 7335 20 female R 1 2 5 moralSelf moralSelf match m m 1 0.8380 
31-May-2018_16:25:26 Exp 7335 20 female R 1 2 6 immoralSelf moralSelf mismatch n n 1 0.7441 
31-May-2018_16:25:28 Exp 7335 20 female R 1 2 7 moralOther moralOther match m m 1 0.9498 
31-May-2018_16:25:31 Exp 7335 20 female R 1 2 8 immoralOther immoralOther match m m 1 0.8184 
31-May-2018_16:25:33 Exp 7335 20 female R 1 2 9 moralSelf moralSelf match m m 1 0.6566 
31-May-2018_16:25:35 Exp 7335 20 female R 1 2 10 moralOther immoralOther mismatch n n 1 0.6967 
31-May-2018_16:25:38 Exp 7335 20 female R 1 2 11 immoralSelf immoralOther mismatch n n 1 0.8809 
31-May-2018_16:25:41 Exp 7335 20 female R 1 2 12 moralOther immoralSelf mismatch n n 1 1.0831 
31-May-2018_16:25:43 Exp 7335 20 female R 1 2 13 immoralSelf immoralSelf match m m 1 0.9571 
31-May-2018_16:25:45 Exp 7335 20 female R 1 2 14 moralSelf immoralOther mismatch n n 1 0.7112 
31-May-2018_16:25:48 Exp 7335 20 female R 1 2 15 moralSelf immoralSelf mismatch n n 1 0.8194 
31-May-2018_16:25:51 Exp 7335 20 female R 1 2 16 immoralSelf immoralOther mismatch n n 1 0.9775 
31-May-2018_16:25:53 Exp 7335 20 female R 1 2 17 moralOther immoralSelf mismatch n n 1 0.8717 
31-May-2018_16:25:55 Exp 7335 20 female R 1 2 18 immoralSelf immoralSelf match m m 1 0.7238 
31-May-2018_16:25:58 Exp 7335 20 female R 1 2 19 moralOther moralOther match m m 1 0.8220 
31-May-2018_16:26:00 Exp 7335 20 female R 1 2 20 immoralOther moralSelf mismatch n n 1 0.6921 
31-May-2018_16:26:03 Exp 7335 20 female R 1 2 21 immoralOther immoralOther match m m 1 0.7803 
31-May-2018_16:26:05 Exp 7335 20 female R 1 2 22 immoralOther immoralOther match m n 0 0.8265 
31-May-2018_16:26:07 Exp 7335 20 female R 1 2 23 immoralOther moralOther mismatch n n 1 0.8325 
31-May-2018_16:26:10 Exp 7335 20 female R 1 2 24 moralSelf moralOther mismatch n m 0 0.8048 
Date Prac Sub Age Sex Hand Block Bin Trial Shape Label Match CorrResp Resp ACC RT
31-May-2018_16:30:29 Exp 7335 20 female R 1 1 1 immoralSelf immoralOther mismatch n n 1 0.8515 
31-May-2018_16:30:32 Exp 7335 20 female R 1 1 2 moralOther moralOther match m m 1 0.8278 
31-May-2018_16:30:34 Exp 7335 20 female R 1 1 3 immoralOther immoralOther match m m 1 0.7999 
31-May-2018_16:30:37 Exp 7335 20 female R 1 1 4 moralSelf immoralSelf mismatch n n 1 0.6420 
31-May-2018_16:30:39 Exp 7335 20 female R 1 1 5 moralOther immoralOther mismatch n m 0 0.8842 
31-May-2018_16:30:42 Exp 7335 20 female R 1 1 6 immoralOther moralOther mismatch n n 1 0.9582 
31-May-2018_16:30:44 Exp 7335 20 female R 1 1 7 moralOther immoralOther mismatch n n 1 0.6485 
31-May-2018_16:30:46 Exp 7335 20 female R 1 1 8 moralSelf moralSelf match m m 1 0.6807 
31-May-2018_16:30:49 Exp 7335 20 female R 1 1 9 moralSelf immoralSelf mismatch n n 1 0.6508 
31-May-2018_16:30:51 Exp 7335 20 female R 1 1 10 moralSelf moralSelf match m m 1 0.7389 
31-May-2018_16:30:53 Exp 7335 20 female R 1 1 11 moralOther moralOther match m m 1 0.7290 
31-May-2018_16:30:55 Exp 7335 20 female R 1 1 12 immoralOther immoralOther match m n 0 0.5451 
31-May-2018_16:30:58 Exp 7335 20 female R 1 1 13 immoralSelf immoralSelf match m m 1 0.9033 
31-May-2018_16:31:00 Exp 7335 20 female R 1 1 14 moralSelf moralSelf match m m 1 0.6614 
31-May-2018_16:31:03 Exp 7335 20 female R 1 1 15 immoralSelf moralSelf mismatch n n 1 0.9156 
31-May-2018_16:31:05 Exp 7335 20 female R 1 1 16 immoralSelf immoralSelf match m m 1 0.6238 
31-May-2018_16:31:08 Exp 7335 20 female R 1 1 17 immoralOther moralSelf mismatch n n 1 0.9819 
31-May-2018_16:31:10 Exp 7335 20 female R 1 1 18 moralSelf immoralSelf mismatch n n 1 0.7721 
31-May-2018_16:31:12 Exp 7335 20 female R 1 1 19 immoralSelf immoralSelf match m m 1 0.6042 
31-May-2018_16:31:15 Exp 7335 20 female R 1 1 20 immoralOther moralSelf mismatch n n 1 0.6944 
31-May-2018_16:31:17 Exp 7335 20 female R 1 1 21 immoralOther immoralOther match m m 1 0.7985 
31-May-2018_16:31:20 Exp 7335 20 female R 1 1 22 immoralSelf moralOther mismatch n n 1 0.8725 
31-May-2018_16:31:22 Exp 7335 20 female R 1 1 23 moralOther immoralOther mismatch n n 1 0.6766 
31-May-2018_16:31:24 Exp 7335 20 female R 1 1 24 moralOther moralOther match m m 1 0.4969 
31-May-2018_16:31:26 Exp 7335 20 female R 1 2 1 moralSelf moralSelf match m m 1 0.7850 
31-May-2018_16:31:29 Exp 7335 20 female R 1 2 2 moralSelf immoralOther mismatch n n 1 0.5351 
31-May-2018_16:31:31 Exp 7335 20 female R 1 2 3 moralSelf moralSelf match m m 1 0.6232 
31-May-2018_16:31:33 Exp 7335 20 female R 1 2 4 moralSelf moralSelf match m m 1 0.5253 
31-May-2018_16:31:35 Exp 7335 20 female R 1 2 5 immoralSelf immoralOther mismatch n n 1 0.7834 
31-May-2018_16:31:38 Exp 7335 20 female R 1 2 6 immoralSelf moralSelf mismatch n n 1 0.6615 
31-May-2018_16:31:40 Exp 7335 20 female R 1 2 7 immoralSelf immoralSelf match m n 0 0.6037 
31-May-2018_16:31:42 Exp 7335 20 female R 1 2 8 immoralSelf immoralSelf match m m 1 0.5898 
31-May-2018_16:31:45 Exp 7335 20 female R 1 2 9 moralOther moralSelf mismatch n n 1 0.8820 
31-May-2018_16:31:47 Exp 7335 20 female R 1 2 10 moralSelf immoralOther mismatch n n 1 0.6122 
31-May-2018_16:31:49 Exp 7335 20 female R 1 2 11 immoralOther immoralOther match m m 1 0.6364 
31-May-2018_16:31:51 Exp 7335 20 female R 1 2 12 immoralOther immoralOther match m m 1 0.4963 
31-May-2018_16:31:53 Exp 7335 20 female R 1 2 13 immoralSelf moralSelf mismatch n n 1 0.4965 
31-May-2018_16:31:56 Exp 7335 20 female R 1 2 14 immoralOther moralSelf mismatch n n 1 0.6166 
31-May-2018_16:31:58 Exp 7335 20 female R 1 2 15 immoralOther moralSelf mismatch n n 1 0.8247 
31-May-2018_16:32:00 Exp 7335 20 female R 1 2 16 immoralOther moralOther mismatch n m 0 0.6070 
31-May-2018_16:32:02 Exp 7335 20 female R 1 2 17 moralOther moralOther match m m 1 0.5690 
31-May-2018_16:32:05 Exp 7335 20 female R 1 2 18 immoralOther immoralOther match m m 1 0.7452 
31-May-2018_16:32:07 Exp 7335 20 female R 1 2 19 moralOther moralOther match m m 1 0.8153 
31-May-2018_16:32:09 Exp 7335 20 female R 1 2 20 moralOther moralSelf mismatch n m 0 0.4715 
31-May-2018_16:32:12 Exp 7335 20 female R 1 2 21 moralOther moralSelf mismatch n n 1 0.8195 
31-May-2018_16:32:14 Exp 7335 20 female R 1 2 22 immoralSelf immoralSelf match m m 1 0.7536 
31-May-2018_16:32:16 Exp 7335 20 female R 1 2 23 moralSelf immoralSelf mismatch n n 1 0.6619 
31-May-2018_16:32:19 Exp 7335 20 female R 1 2 24 moralOther moralOther match m m 1 0.6199 
