Date Prac Sub Age Sex Hand Block Bin Trial Shape Label Match CorrResp Resp ACC RT
09-May-2018_13:46:30 Exp 7307 22 female R 1 1 1 immoralSelf immoralSelf match n m 0 0.9977 
09-May-2018_13:46:32 Exp 7307 22 female R 1 1 2 immoralSelf moralOther mismatch m m 1 0.8345 
09-May-2018_13:46:34 Exp 7307 22 female R 1 1 3 moralOther moralOther match n m 0 0.7400 
09-May-2018_13:46:37 Exp 7307 22 female R 1 1 4 moralSelf immoralOther mismatch m n 0 0.8037 
09-May-2018_13:46:39 Exp 7307 22 female R 1 1 5 immoralOther moralSelf mismatch m n 0 0.6726 
09-May-2018_13:46:42 Exp 7307 22 female R 1 1 6 immoralOther moralSelf mismatch m n 0 1.0227 
09-May-2018_13:46:44 Exp 7307 22 female R 1 1 7 moralOther immoralOther mismatch m m 1 0.9399 
09-May-2018_13:46:47 Exp 7307 22 female R 1 1 8 immoralOther immoralOther match n n 1 1.0276 
09-May-2018_13:46:50 Exp 7307 22 female R 1 1 9 immoralSelf moralSelf mismatch m m 1 0.8170 
09-May-2018_13:46:52 Exp 7307 22 female R 1 1 10 immoralOther immoralOther match n n 1 0.9860 
09-May-2018_13:46:55 Exp 7307 22 female R 1 1 11 moralOther immoralSelf mismatch m m 1 0.9945 
09-May-2018_13:46:57 Exp 7307 22 female R 1 1 12 moralOther moralOther match n n 1 1.0512 
09-May-2018_13:47:00 Exp 7307 22 female R 1 1 13 immoralSelf immoralSelf match n n 1 0.6409 
09-May-2018_13:47:02 Exp 7307 22 female R 1 1 14 moralSelf immoralOther mismatch m m 1 0.8823 
09-May-2018_13:47:04 Exp 7307 22 female R 1 1 15 immoralSelf moralSelf mismatch m n 0 0.5569 
09-May-2018_13:47:07 Exp 7307 22 female R 1 1 16 immoralOther immoralOther match n m 0 0.7847 
09-May-2018_13:47:09 Exp 7307 22 female R 1 1 17 moralSelf immoralOther mismatch m m 1 0.8050 
09-May-2018_13:47:12 Exp 7307 22 female R 1 1 18 moralSelf moralSelf match n n 1 0.6980 
09-May-2018_13:47:14 Exp 7307 22 female R 1 1 19 moralOther immoralSelf mismatch m m 1 0.6564 
09-May-2018_13:47:16 Exp 7307 22 female R 1 1 20 moralSelf moralSelf match n n 1 0.5945 
09-May-2018_13:47:18 Exp 7307 22 female R 1 1 21 moralSelf moralSelf match n n 1 0.5551 
09-May-2018_13:47:21 Exp 7307 22 female R 1 1 22 moralOther moralOther match n m 0 0.6629 
09-May-2018_13:47:23 Exp 7307 22 female R 1 1 23 immoralOther moralOther mismatch m m 1 0.8649 
09-May-2018_13:47:25 Exp 7307 22 female R 1 1 24 immoralSelf immoralSelf match n n 1 0.6748 
09-May-2018_13:47:28 Exp 7307 22 female R 1 2 1 immoralOther immoralOther match n m 0 0.7573 
09-May-2018_13:47:30 Exp 7307 22 female R 1 2 2 moralOther moralSelf mismatch m m 1 0.8492 
09-May-2018_13:47:32 Exp 7307 22 female R 1 2 3 immoralSelf immoralSelf match n n 1 0.5669 
09-May-2018_13:47:35 Exp 7307 22 female R 1 2 4 moralSelf moralSelf match n n 1 0.7110 
09-May-2018_13:47:37 Exp 7307 22 female R 1 2 5 moralOther immoralOther mismatch m m 1 0.9459 
09-May-2018_13:47:40 Exp 7307 22 female R 1 2 6 moralSelf moralSelf match n n 1 0.6655 
09-May-2018_13:47:42 Exp 7307 22 female R 1 2 7 immoralOther immoralSelf mismatch m m 1 0.9476 
09-May-2018_13:47:45 Exp 7307 22 female R 1 2 8 immoralSelf moralOther mismatch m m 1 0.8192 
09-May-2018_13:47:47 Exp 7307 22 female R 1 2 9 moralOther immoralSelf mismatch m m 1 1.0362 
09-May-2018_13:47:50 Exp 7307 22 female R 1 2 10 immoralSelf immoralSelf match n n 1 0.8218 
09-May-2018_13:47:52 Exp 7307 22 female R 1 2 11 moralSelf moralSelf match n n 1 0.6271 
09-May-2018_13:47:54 Exp 7307 22 female R 1 2 12 immoralSelf immoralSelf match n n 1 0.7443 
09-May-2018_13:47:57 Exp 7307 22 female R 1 2 13 moralSelf immoralOther mismatch m m 1 0.8959 
09-May-2018_13:48:00 Exp 7307 22 female R 1 2 14 moralOther moralOther match n n 1 0.9827 
09-May-2018_13:48:02 Exp 7307 22 female R 1 2 15 immoralOther moralSelf mismatch m m 1 0.9309 
09-May-2018_13:48:05 Exp 7307 22 female R 1 2 16 moralSelf immoralSelf mismatch m n 0 0.7185 
09-May-2018_13:48:07 Exp 7307 22 female R 1 2 17 immoralOther immoralOther match n NA -1 1.0841 
09-May-2018_13:48:10 Exp 7307 22 female R 1 2 18 moralOther moralOther match n n 1 0.8880 
09-May-2018_13:48:12 Exp 7307 22 female R 1 2 19 moralOther moralOther match n n 1 0.5545 
09-May-2018_13:48:14 Exp 7307 22 female R 1 2 20 immoralOther immoralSelf mismatch m m 1 0.8543 
09-May-2018_13:48:17 Exp 7307 22 female R 1 2 21 immoralSelf moralSelf mismatch m m 1 0.6681 
09-May-2018_13:48:19 Exp 7307 22 female R 1 2 22 immoralOther immoralOther match n NA -1 1.0841 
09-May-2018_13:48:22 Exp 7307 22 female R 1 2 23 immoralSelf moralSelf mismatch m m 1 0.9968 
09-May-2018_13:48:25 Exp 7307 22 female R 1 2 24 moralSelf immoralSelf mismatch m m 1 0.8213 
09-May-2018_13:48:27 Exp 7307 22 female R 1 3 1 moralOther moralOther match n m 0 0.8350 
09-May-2018_13:48:29 Exp 7307 22 female R 1 3 2 moralOther moralSelf mismatch m n 0 0.6525 
09-May-2018_13:48:32 Exp 7307 22 female R 1 3 3 moralSelf moralOther mismatch m m 1 0.8103 
09-May-2018_13:48:34 Exp 7307 22 female R 1 3 4 immoralSelf immoralSelf match n n 1 0.5713 
09-May-2018_13:48:36 Exp 7307 22 female R 1 3 5 moralOther immoralSelf mismatch m n 0 0.5314 
09-May-2018_13:48:38 Exp 7307 22 female R 1 3 6 immoralSelf moralOther mismatch m n 0 0.6789 
09-May-2018_13:48:41 Exp 7307 22 female R 1 3 7 moralSelf moralOther mismatch m m 1 1.0530 
09-May-2018_13:48:44 Exp 7307 22 female R 1 3 8 immoralOther immoralOther match n n 1 0.8667 
09-May-2018_13:48:46 Exp 7307 22 female R 1 3 9 immoralOther immoralOther match n n 1 0.5168 
09-May-2018_13:48:48 Exp 7307 22 female R 1 3 10 immoralOther moralSelf mismatch m n 0 1.0040 
09-May-2018_13:48:51 Exp 7307 22 female R 1 3 11 moralSelf moralSelf match n n 1 0.6166 
09-May-2018_13:48:53 Exp 7307 22 female R 1 3 12 moralSelf moralSelf match n n 1 0.4739 
09-May-2018_13:48:55 Exp 7307 22 female R 1 3 13 immoralOther moralOther mismatch m n 0 0.4640 
09-May-2018_13:48:57 Exp 7307 22 female R 1 3 14 immoralOther moralOther mismatch m m 1 0.5139 
09-May-2018_13:48:59 Exp 7307 22 female R 1 3 15 moralSelf moralSelf match n n 1 0.6368 
09-May-2018_13:49:02 Exp 7307 22 female R 1 3 16 moralSelf moralOther mismatch m m 1 0.7663 
09-May-2018_13:49:04 Exp 7307 22 female R 1 3 17 immoralSelf immoralOther mismatch m m 1 0.7745 
09-May-2018_13:49:06 Exp 7307 22 female R 1 3 18 immoralOther immoralOther match n m 0 0.6988 
09-May-2018_13:49:09 Exp 7307 22 female R 1 3 19 immoralSelf immoralSelf match n n 1 0.6495 
09-May-2018_13:49:11 Exp 7307 22 female R 1 3 20 immoralSelf immoralOther mismatch m m 1 0.6232 
09-May-2018_13:49:13 Exp 7307 22 female R 1 3 21 moralOther moralSelf mismatch m n 0 0.6845 
09-May-2018_13:49:16 Exp 7307 22 female R 1 3 22 immoralSelf immoralSelf match n n 1 0.6469 
09-May-2018_13:49:18 Exp 7307 22 female R 1 3 23 moralOther moralOther match n n 1 0.8287 
09-May-2018_13:49:20 Exp 7307 22 female R 1 3 24 moralOther moralOther match n n 1 0.5619 
09-May-2018_13:49:45 Exp 7307 22 female R 1 4 1 moralSelf immoralOther mismatch m m 1 0.7366 
09-May-2018_13:49:47 Exp 7307 22 female R 1 4 2 immoralOther immoralOther match n n 1 0.8761 
09-May-2018_13:49:49 Exp 7307 22 female R 1 4 3 moralSelf moralSelf match n n 1 0.5062 
09-May-2018_13:49:52 Exp 7307 22 female R 1 4 4 immoralOther immoralOther match n n 1 0.8691 
09-May-2018_13:49:54 Exp 7307 22 female R 1 4 5 immoralOther moralOther mismatch m m 1 0.6834 
09-May-2018_13:49:56 Exp 7307 22 female R 1 4 6 moralOther moralOther match n n 1 0.5498 
09-May-2018_13:49:59 Exp 7307 22 female R 1 4 7 immoralOther immoralSelf mismatch m m 1 0.8054 
09-May-2018_13:50:01 Exp 7307 22 female R 1 4 8 immoralSelf moralSelf mismatch m n 0 0.4902 
09-May-2018_13:50:03 Exp 7307 22 female R 1 4 9 immoralSelf immoralSelf match n n 1 0.5487 
09-May-2018_13:50:05 Exp 7307 22 female R 1 4 10 immoralSelf immoralSelf match n n 1 0.4043 
09-May-2018_13:50:07 Exp 7307 22 female R 1 4 11 moralSelf moralSelf match n m 0 0.5852 
09-May-2018_13:50:10 Exp 7307 22 female R 1 4 12 immoralSelf moralSelf mismatch m m 1 0.6855 
09-May-2018_13:50:12 Exp 7307 22 female R 1 4 13 immoralSelf immoralSelf match n n 1 0.6558 
09-May-2018_13:50:15 Exp 7307 22 female R 1 4 14 moralOther moralOther match n n 1 0.9176 
09-May-2018_13:50:17 Exp 7307 22 female R 1 4 15 moralSelf immoralSelf mismatch m n 0 0.7328 
09-May-2018_13:50:19 Exp 7307 22 female R 1 4 16 immoralSelf immoralOther mismatch m m 1 0.7602 
09-May-2018_13:50:22 Exp 7307 22 female R 1 4 17 moralOther immoralOther mismatch m n 0 0.8440 
09-May-2018_13:50:24 Exp 7307 22 female R 1 4 18 moralOther moralOther match n n 1 0.5857 
09-May-2018_13:50:26 Exp 7307 22 female R 1 4 19 moralSelf moralSelf match n n 1 0.7304 
09-May-2018_13:50:29 Exp 7307 22 female R 1 4 20 moralOther immoralOther mismatch m n 0 0.8857 
09-May-2018_13:50:32 Exp 7307 22 female R 1 4 21 immoralOther immoralOther match n n 1 0.9442 
09-May-2018_13:50:34 Exp 7307 22 female R 1 4 22 immoralOther moralSelf mismatch m m 1 0.6959 
09-May-2018_13:50:37 Exp 7307 22 female R 1 4 23 moralOther moralSelf mismatch m m 1 1.0145 
09-May-2018_13:50:39 Exp 7307 22 female R 1 4 24 moralSelf moralOther mismatch m n 0 0.6716 
09-May-2018_13:50:41 Exp 7307 22 female R 1 5 1 moralSelf immoralOther mismatch m m 1 0.9577 
09-May-2018_13:50:44 Exp 7307 22 female R 1 5 2 moralOther immoralOther mismatch m m 1 0.9296 
09-May-2018_13:50:46 Exp 7307 22 female R 1 5 3 moralOther moralOther match n n 1 0.7091 
09-May-2018_13:50:49 Exp 7307 22 female R 1 5 4 immoralSelf immoralOther mismatch m n 0 0.7201 
09-May-2018_13:50:51 Exp 7307 22 female R 1 5 5 moralOther moralOther match n n 1 0.8071 
09-May-2018_13:50:53 Exp 7307 22 female R 1 5 6 immoralSelf immoralSelf match n n 1 0.6839 
09-May-2018_13:50:56 Exp 7307 22 female R 1 5 7 immoralOther immoralOther match n m 0 0.8783 
09-May-2018_13:50:58 Exp 7307 22 female R 1 5 8 immoralOther immoralOther match n n 1 0.4766 
09-May-2018_13:51:00 Exp 7307 22 female R 1 5 9 immoralSelf immoralOther mismatch m m 1 0.6509 
09-May-2018_13:51:02 Exp 7307 22 female R 1 5 10 immoralSelf immoralSelf match n n 1 0.5447 
09-May-2018_13:51:05 Exp 7307 22 female R 1 5 11 moralSelf moralSelf match n n 1 0.5601 
09-May-2018_13:51:07 Exp 7307 22 female R 1 5 12 moralSelf moralOther mismatch m m 1 0.7081 
09-May-2018_13:51:09 Exp 7307 22 female R 1 5 13 moralOther moralOther match n n 1 0.7029 
09-May-2018_13:51:12 Exp 7307 22 female R 1 5 14 moralOther immoralOther mismatch m m 1 0.8818 
09-May-2018_13:51:14 Exp 7307 22 female R 1 5 15 immoralSelf moralSelf mismatch m n 0 0.4603 
09-May-2018_13:51:16 Exp 7307 22 female R 1 5 16 immoralOther immoralSelf mismatch m m 1 0.6543 
09-May-2018_13:51:19 Exp 7307 22 female R 1 5 17 immoralSelf immoralSelf match n n 1 0.6840 
09-May-2018_13:51:21 Exp 7307 22 female R 1 5 18 moralOther immoralOther mismatch m m 1 0.7025 
09-May-2018_13:51:23 Exp 7307 22 female R 1 5 19 moralSelf moralOther mismatch m m 1 0.9171 
09-May-2018_13:51:26 Exp 7307 22 female R 1 5 20 immoralOther moralOther mismatch m m 1 0.8363 
09-May-2018_13:51:28 Exp 7307 22 female R 1 5 21 immoralOther immoralOther match n n 1 0.5658 
09-May-2018_13:51:31 Exp 7307 22 female R 1 5 22 moralSelf moralSelf match n n 1 0.7659 
09-May-2018_13:51:33 Exp 7307 22 female R 1 5 23 immoralOther immoralSelf mismatch m m 1 0.9340 
09-May-2018_13:51:35 Exp 7307 22 female R 1 5 24 moralSelf moralSelf match n n 1 0.7054 
09-May-2018_13:51:41 Exp 7307 22 female R 2 1 1 moralSelf moralSelf match n NA -1 1.0841 
09-May-2018_13:51:44 Exp 7307 22 female R 2 1 2 immoralOther immoralOther match n NA -1 1.0841 
09-May-2018_13:51:46 Exp 7307 22 female R 2 1 3 immoralSelf immoralSelf match n n 1 0.5740 
09-May-2018_13:51:48 Exp 7307 22 female R 2 1 4 immoralSelf moralOther mismatch m m 1 0.6664 
09-May-2018_13:51:51 Exp 7307 22 female R 2 1 5 moralOther moralOther match n m 0 0.7244 
09-May-2018_13:51:53 Exp 7307 22 female R 2 1 6 moralOther moralSelf mismatch m m 1 0.6516 
09-May-2018_13:51:55 Exp 7307 22 female R 2 1 7 immoralSelf moralSelf mismatch m m 1 0.6653 
09-May-2018_13:51:58 Exp 7307 22 female R 2 1 8 immoralOther moralSelf mismatch m m 1 0.7793 
09-May-2018_13:52:00 Exp 7307 22 female R 2 1 9 immoralOther immoralOther match n n 1 0.8156 
09-May-2018_13:52:02 Exp 7307 22 female R 2 1 10 immoralSelf immoralSelf match n n 1 0.6246 
09-May-2018_13:52:05 Exp 7307 22 female R 2 1 11 immoralSelf moralOther mismatch m m 1 0.8620 
09-May-2018_13:52:07 Exp 7307 22 female R 2 1 12 immoralOther immoralSelf mismatch m m 1 0.6159 
09-May-2018_13:52:09 Exp 7307 22 female R 2 1 13 moralOther moralOther match n m 0 0.5290 
09-May-2018_13:52:12 Exp 7307 22 female R 2 1 14 immoralSelf immoralSelf match n n 1 0.7003 
09-May-2018_13:52:14 Exp 7307 22 female R 2 1 15 moralSelf immoralSelf mismatch m m 1 0.9231 
09-May-2018_13:52:17 Exp 7307 22 female R 2 1 16 moralOther moralOther match n m 0 0.6821 
09-May-2018_13:52:19 Exp 7307 22 female R 2 1 17 moralOther immoralSelf mismatch m m 1 0.6766 
09-May-2018_13:52:21 Exp 7307 22 female R 2 1 18 moralSelf immoralSelf mismatch m m 1 0.5547 
09-May-2018_13:52:23 Exp 7307 22 female R 2 1 19 moralOther immoralSelf mismatch m m 1 0.7587 
09-May-2018_13:52:26 Exp 7307 22 female R 2 1 20 immoralOther immoralOther match n n 1 0.7626 
09-May-2018_13:52:28 Exp 7307 22 female R 2 1 21 moralSelf moralSelf match n n 1 0.5707 
09-May-2018_13:52:30 Exp 7307 22 female R 2 1 22 moralSelf moralSelf match n n 1 0.5227 
09-May-2018_13:52:32 Exp 7307 22 female R 2 1 23 moralSelf immoralOther mismatch m m 1 0.6499 
09-May-2018_13:52:35 Exp 7307 22 female R 2 1 24 immoralOther immoralSelf mismatch m m 1 0.8556 
09-May-2018_13:52:37 Exp 7307 22 female R 2 2 1 moralOther moralOther match n n 1 0.7494 
09-May-2018_13:52:40 Exp 7307 22 female R 2 2 2 immoralSelf immoralSelf match n n 1 0.8210 
09-May-2018_13:52:42 Exp 7307 22 female R 2 2 3 immoralSelf immoralOther mismatch m m 1 0.5703 
09-May-2018_13:52:44 Exp 7307 22 female R 2 2 4 moralSelf moralSelf match n n 1 0.6904 
09-May-2018_13:52:47 Exp 7307 22 female R 2 2 5 immoralSelf immoralSelf match n n 1 0.6048 
09-May-2018_13:52:49 Exp 7307 22 female R 2 2 6 immoralSelf immoralSelf match n n 1 0.5056 
09-May-2018_13:52:51 Exp 7307 22 female R 2 2 7 immoralOther immoralOther match n m 0 0.5246 
09-May-2018_13:52:53 Exp 7307 22 female R 2 2 8 moralOther immoralSelf mismatch m m 1 0.5877 
09-May-2018_13:52:56 Exp 7307 22 female R 2 2 9 moralOther moralOther match n n 1 1.0203 
09-May-2018_13:52:58 Exp 7307 22 female R 2 2 10 immoralOther immoralSelf mismatch m n 0 0.7253 
09-May-2018_13:53:00 Exp 7307 22 female R 2 2 11 immoralSelf moralSelf mismatch m n 0 0.4845 
09-May-2018_13:53:03 Exp 7307 22 female R 2 2 12 moralSelf immoralSelf mismatch m m 1 0.9989 
09-May-2018_13:53:05 Exp 7307 22 female R 2 2 13 immoralOther immoralOther match n n 1 0.6597 
09-May-2018_13:53:08 Exp 7307 22 female R 2 2 14 moralOther moralSelf mismatch m m 1 0.8218 
09-May-2018_13:53:10 Exp 7307 22 female R 2 2 15 moralSelf moralOther mismatch m m 1 0.9709 
09-May-2018_13:53:13 Exp 7307 22 female R 2 2 16 immoralOther immoralOther match n n 1 0.7870 
09-May-2018_13:53:15 Exp 7307 22 female R 2 2 17 moralOther moralSelf mismatch m n 0 0.5957 
09-May-2018_13:53:17 Exp 7307 22 female R 2 2 18 moralSelf immoralOther mismatch m m 1 0.8202 
09-May-2018_13:53:20 Exp 7307 22 female R 2 2 19 immoralSelf immoralOther mismatch m m 1 0.7092 
09-May-2018_13:53:22 Exp 7307 22 female R 2 2 20 moralSelf moralSelf match n NA -1 1.0841 
09-May-2018_13:53:25 Exp 7307 22 female R 2 2 21 immoralOther immoralSelf mismatch m m 1 0.7307 
09-May-2018_13:53:27 Exp 7307 22 female R 2 2 22 moralSelf moralSelf match n n 1 0.7501 
09-May-2018_13:53:30 Exp 7307 22 female R 2 2 23 moralOther moralOther match n m 0 1.0098 
09-May-2018_13:53:32 Exp 7307 22 female R 2 2 24 immoralOther immoralSelf mismatch m m 1 1.0109 
09-May-2018_13:53:35 Exp 7307 22 female R 2 3 1 immoralOther immoralOther match n n 1 0.5880 
09-May-2018_13:53:37 Exp 7307 22 female R 2 3 2 moralOther immoralOther mismatch m m 1 0.8686 
09-May-2018_13:53:39 Exp 7307 22 female R 2 3 3 moralSelf moralSelf match n n 1 0.6108 
09-May-2018_13:53:42 Exp 7307 22 female R 2 3 4 moralOther immoralSelf mismatch m m 1 0.7078 
09-May-2018_13:53:44 Exp 7307 22 female R 2 3 5 moralOther moralOther match n m 0 1.0067 
09-May-2018_13:53:47 Exp 7307 22 female R 2 3 6 immoralSelf immoralSelf match n n 1 0.8195 
09-May-2018_13:53:49 Exp 7307 22 female R 2 3 7 immoralOther immoralSelf mismatch m m 1 0.7566 
09-May-2018_13:53:52 Exp 7307 22 female R 2 3 8 immoralSelf immoralSelf match n n 1 1.0404 
09-May-2018_13:53:54 Exp 7307 22 female R 2 3 9 immoralSelf moralOther mismatch m m 1 0.6978 
09-May-2018_13:53:56 Exp 7307 22 female R 2 3 10 moralSelf moralSelf match n m 0 0.7046 
09-May-2018_13:53:59 Exp 7307 22 female R 2 3 11 immoralSelf moralOther mismatch m m 1 0.8916 
09-May-2018_13:54:02 Exp 7307 22 female R 2 3 12 immoralOther immoralOther match n m 0 0.9783 
09-May-2018_13:54:04 Exp 7307 22 female R 2 3 13 moralSelf immoralSelf mismatch m m 1 0.7506 
09-May-2018_13:54:07 Exp 7307 22 female R 2 3 14 immoralSelf immoralSelf match n n 1 0.8905 
09-May-2018_13:54:09 Exp 7307 22 female R 2 3 15 moralOther immoralSelf mismatch m m 1 0.6769 
09-May-2018_13:54:11 Exp 7307 22 female R 2 3 16 moralSelf immoralSelf mismatch m m 1 0.8192 
09-May-2018_13:54:14 Exp 7307 22 female R 2 3 17 immoralOther moralOther mismatch m n 0 0.7483 
09-May-2018_13:54:16 Exp 7307 22 female R 2 3 18 moralSelf moralSelf match n n 1 0.9079 
09-May-2018_13:54:19 Exp 7307 22 female R 2 3 19 moralSelf immoralOther mismatch m m 1 0.7108 
09-May-2018_13:54:21 Exp 7307 22 female R 2 3 20 moralOther moralOther match n n 1 1.0417 
09-May-2018_13:54:24 Exp 7307 22 female R 2 3 21 immoralSelf moralOther mismatch m m 1 0.7152 
09-May-2018_13:54:26 Exp 7307 22 female R 2 3 22 immoralOther immoralOther match n n 1 0.8664 
09-May-2018_13:54:28 Exp 7307 22 female R 2 3 23 immoralOther immoralSelf mismatch m m 1 0.6044 
09-May-2018_13:54:31 Exp 7307 22 female R 2 3 24 moralOther moralOther match n n 1 0.9371 
09-May-2018_13:55:11 Exp 7307 22 female R 2 4 1 moralOther moralOther match n n 1 0.7468 
09-May-2018_13:55:13 Exp 7307 22 female R 2 4 2 moralOther immoralSelf mismatch m m 1 0.5865 
09-May-2018_13:55:15 Exp 7307 22 female R 2 4 3 moralSelf moralSelf match n n 1 0.5790 
09-May-2018_13:55:17 Exp 7307 22 female R 2 4 4 immoralSelf immoralSelf match n n 1 0.5113 
09-May-2018_13:55:20 Exp 7307 22 female R 2 4 5 immoralSelf immoralSelf match n n 1 0.5062 
09-May-2018_13:55:22 Exp 7307 22 female R 2 4 6 immoralOther immoralSelf mismatch m m 1 0.5972 
09-May-2018_13:55:24 Exp 7307 22 female R 2 4 7 moralOther immoralSelf mismatch m m 1 0.6820 
09-May-2018_13:55:26 Exp 7307 22 female R 2 4 8 moralSelf immoralSelf mismatch m m 1 0.6445 
09-May-2018_13:55:29 Exp 7307 22 female R 2 4 9 immoralOther moralSelf mismatch m m 1 0.8262 
09-May-2018_13:55:31 Exp 7307 22 female R 2 4 10 moralOther moralOther match n n 1 0.5195 
09-May-2018_13:55:33 Exp 7307 22 female R 2 4 11 immoralSelf moralSelf mismatch m m 1 0.7346 
09-May-2018_13:55:36 Exp 7307 22 female R 2 4 12 moralSelf immoralSelf mismatch m m 1 0.7540 
09-May-2018_13:55:38 Exp 7307 22 female R 2 4 13 immoralOther immoralSelf mismatch m m 1 0.8539 
09-May-2018_13:55:41 Exp 7307 22 female R 2 4 14 moralSelf moralSelf match n n 1 0.6516 
09-May-2018_13:55:43 Exp 7307 22 female R 2 4 15 moralOther moralSelf mismatch m m 1 0.8413 
09-May-2018_13:55:45 Exp 7307 22 female R 2 4 16 moralSelf moralSelf match n n 1 0.6509 
09-May-2018_13:55:48 Exp 7307 22 female R 2 4 17 immoralOther immoralOther match n n 1 0.9846 
09-May-2018_13:55:50 Exp 7307 22 female R 2 4 18 moralSelf immoralOther mismatch m m 1 0.8412 
09-May-2018_13:55:53 Exp 7307 22 female R 2 4 19 immoralSelf immoralSelf match n n 1 0.7628 
09-May-2018_13:55:55 Exp 7307 22 female R 2 4 20 moralOther moralOther match n n 1 0.8748 
09-May-2018_13:55:58 Exp 7307 22 female R 2 4 21 immoralOther immoralOther match n n 1 0.7050 
09-May-2018_13:56:00 Exp 7307 22 female R 2 4 22 immoralSelf moralSelf mismatch m m 1 0.8119 
09-May-2018_13:56:03 Exp 7307 22 female R 2 4 23 immoralOther immoralOther match n n 1 0.9730 
09-May-2018_13:56:05 Exp 7307 22 female R 2 4 24 immoralSelf immoralOther mismatch m m 1 0.9331 
09-May-2018_13:56:08 Exp 7307 22 female R 2 5 1 immoralOther immoralOther match n m 0 0.6965 
09-May-2018_13:56:10 Exp 7307 22 female R 2 5 2 moralOther immoralSelf mismatch m m 1 0.9112 
09-May-2018_13:56:12 Exp 7307 22 female R 2 5 3 immoralSelf immoralSelf match n n 1 0.6261 
09-May-2018_13:56:15 Exp 7307 22 female R 2 5 4 immoralOther immoralSelf mismatch m m 1 0.9114 
09-May-2018_13:56:17 Exp 7307 22 female R 2 5 5 moralOther immoralOther mismatch m m 1 0.8503 
09-May-2018_13:56:20 Exp 7307 22 female R 2 5 6 moralOther moralOther match n m 0 0.7521 
09-May-2018_13:56:22 Exp 7307 22 female R 2 5 7 immoralOther immoralOther match n n 1 0.7559 
09-May-2018_13:56:25 Exp 7307 22 female R 2 5 8 moralSelf moralOther mismatch m m 1 0.7037 
09-May-2018_13:56:27 Exp 7307 22 female R 2 5 9 immoralSelf immoralOther mismatch m m 1 0.7387 
09-May-2018_13:56:29 Exp 7307 22 female R 2 5 10 immoralSelf moralSelf mismatch m m 1 0.7783 
09-May-2018_13:56:32 Exp 7307 22 female R 2 5 11 moralSelf moralOther mismatch m m 1 0.8547 
09-May-2018_13:56:34 Exp 7307 22 female R 2 5 12 moralSelf moralSelf match n n 1 0.6444 
09-May-2018_13:56:37 Exp 7307 22 female R 2 5 13 moralSelf immoralSelf mismatch m m 1 0.9941 
09-May-2018_13:56:39 Exp 7307 22 female R 2 5 14 immoralOther moralSelf mismatch m m 1 0.6987 
09-May-2018_13:56:41 Exp 7307 22 female R 2 5 15 moralSelf moralSelf match n n 1 0.7215 
09-May-2018_13:56:44 Exp 7307 22 female R 2 5 16 immoralSelf immoralSelf match n n 1 0.5926 
09-May-2018_13:56:46 Exp 7307 22 female R 2 5 17 immoralOther immoralOther match n m 0 0.7533 
09-May-2018_13:56:48 Exp 7307 22 female R 2 5 18 immoralSelf immoralOther mismatch m m 1 0.7810 
09-May-2018_13:56:51 Exp 7307 22 female R 2 5 19 immoralOther moralOther mismatch m m 1 0.7932 
09-May-2018_13:56:53 Exp 7307 22 female R 2 5 20 moralOther moralOther match n n 1 0.6179 
09-May-2018_13:56:56 Exp 7307 22 female R 2 5 21 immoralSelf immoralSelf match n n 1 0.9390 
09-May-2018_13:56:58 Exp 7307 22 female R 2 5 22 moralOther moralOther match n n 1 0.6267 
09-May-2018_13:57:00 Exp 7307 22 female R 2 5 23 moralOther immoralOther mismatch m n 0 0.7598 
09-May-2018_13:57:03 Exp 7307 22 female R 2 5 24 moralSelf moralSelf match n n 1 0.6038 
09-May-2018_13:57:08 Exp 7307 22 female R 3 1 1 moralSelf moralSelf match n NA -1 1.0841 
09-May-2018_13:57:11 Exp 7307 22 female R 3 1 2 moralOther immoralSelf mismatch m m 1 0.8878 
09-May-2018_13:57:13 Exp 7307 22 female R 3 1 3 immoralSelf immoralSelf match n n 1 0.5862 
09-May-2018_13:57:15 Exp 7307 22 female R 3 1 4 moralOther immoralOther mismatch m m 1 0.7308 
09-May-2018_13:57:18 Exp 7307 22 female R 3 1 5 immoralOther immoralSelf mismatch m m 1 0.6063 
09-May-2018_13:57:20 Exp 7307 22 female R 3 1 6 moralSelf immoralOther mismatch m m 1 0.7070 
09-May-2018_13:57:22 Exp 7307 22 female R 3 1 7 immoralOther immoralOther match n n 1 0.7739 
09-May-2018_13:57:25 Exp 7307 22 female R 3 1 8 moralOther moralOther match n n 1 0.4983 
09-May-2018_13:57:27 Exp 7307 22 female R 3 1 9 immoralOther moralSelf mismatch m m 1 0.6649 
09-May-2018_13:57:29 Exp 7307 22 female R 3 1 10 moralOther immoralSelf mismatch m m 1 0.6109 
09-May-2018_13:57:31 Exp 7307 22 female R 3 1 11 moralSelf moralSelf match n n 1 0.6280 
09-May-2018_13:57:34 Exp 7307 22 female R 3 1 12 immoralOther immoralOther match n n 1 0.7853 
09-May-2018_13:57:36 Exp 7307 22 female R 3 1 13 immoralSelf moralOther mismatch m m 1 0.5778 
09-May-2018_13:57:38 Exp 7307 22 female R 3 1 14 immoralSelf immoralSelf match n n 1 0.5021 
09-May-2018_13:57:40 Exp 7307 22 female R 3 1 15 moralSelf immoralSelf mismatch m m 1 0.7328 
09-May-2018_13:57:43 Exp 7307 22 female R 3 1 16 moralOther moralOther match n n 1 0.7522 
09-May-2018_13:57:45 Exp 7307 22 female R 3 1 17 moralOther moralOther match n n 1 0.5480 
09-May-2018_13:57:47 Exp 7307 22 female R 3 1 18 immoralSelf immoralSelf match n n 1 0.5317 
09-May-2018_13:57:49 Exp 7307 22 female R 3 1 19 immoralSelf moralOther mismatch m m 1 0.5351 
09-May-2018_13:57:52 Exp 7307 22 female R 3 1 20 moralSelf moralSelf match n n 1 0.6825 
09-May-2018_13:57:54 Exp 7307 22 female R 3 1 21 immoralSelf immoralOther mismatch m m 1 0.5249 
09-May-2018_13:57:56 Exp 7307 22 female R 3 1 22 immoralOther moralOther mismatch m m 1 0.8040 
09-May-2018_13:57:59 Exp 7307 22 female R 3 1 23 immoralOther immoralOther match n n 1 0.6489 
09-May-2018_13:58:01 Exp 7307 22 female R 3 1 24 moralSelf immoralSelf mismatch m m 1 0.7105 
09-May-2018_13:58:03 Exp 7307 22 female R 3 2 1 moralSelf moralOther mismatch m n 0 0.8496 
09-May-2018_13:58:06 Exp 7307 22 female R 3 2 2 moralOther moralOther match n n 1 0.6314 
09-May-2018_13:58:08 Exp 7307 22 female R 3 2 3 immoralOther immoralOther match n NA -1 1.0841 
09-May-2018_13:58:11 Exp 7307 22 female R 3 2 4 moralOther immoralOther mismatch m m 1 0.6951 
09-May-2018_13:58:13 Exp 7307 22 female R 3 2 5 moralOther moralOther match n n 1 0.5816 
09-May-2018_13:58:15 Exp 7307 22 female R 3 2 6 immoralSelf immoralSelf match n m 0 0.5780 
09-May-2018_13:58:17 Exp 7307 22 female R 3 2 7 moralOther moralSelf mismatch m n 0 0.4384 
09-May-2018_13:58:20 Exp 7307 22 female R 3 2 8 immoralSelf immoralOther mismatch m m 1 0.8958 
09-May-2018_13:58:22 Exp 7307 22 female R 3 2 9 immoralSelf immoralSelf match n n 1 0.7185 
09-May-2018_13:58:25 Exp 7307 22 female R 3 2 10 moralSelf moralSelf match n n 1 0.9897 
09-May-2018_13:58:27 Exp 7307 22 female R 3 2 11 immoralSelf immoralSelf match n n 1 0.5902 
09-May-2018_13:58:29 Exp 7307 22 female R 3 2 12 moralOther moralOther match n n 1 0.6788 
09-May-2018_13:58:32 Exp 7307 22 female R 3 2 13 moralSelf moralOther mismatch m m 1 0.8210 
09-May-2018_13:58:34 Exp 7307 22 female R 3 2 14 immoralOther moralSelf mismatch m m 1 0.8343 
09-May-2018_13:58:37 Exp 7307 22 female R 3 2 15 immoralOther moralSelf mismatch m n 0 1.0518 
09-May-2018_13:58:39 Exp 7307 22 female R 3 2 16 immoralOther moralOther mismatch m m 1 0.8335 
09-May-2018_13:58:42 Exp 7307 22 female R 3 2 17 moralSelf moralSelf match n n 1 0.6591 
09-May-2018_13:58:44 Exp 7307 22 female R 3 2 18 moralSelf moralOther mismatch m m 1 0.8530 
09-May-2018_13:58:46 Exp 7307 22 female R 3 2 19 immoralSelf moralSelf mismatch m m 1 0.6268 
09-May-2018_13:58:49 Exp 7307 22 female R 3 2 20 immoralSelf moralSelf mismatch m m 1 0.5842 
09-May-2018_13:58:51 Exp 7307 22 female R 3 2 21 moralSelf moralSelf match n m 0 0.5884 
09-May-2018_13:58:53 Exp 7307 22 female R 3 2 22 moralOther immoralOther mismatch m n 0 0.6850 
09-May-2018_13:58:56 Exp 7307 22 female R 3 2 23 immoralOther immoralOther match n NA -1 1.0841 
09-May-2018_13:58:58 Exp 7307 22 female R 3 2 24 immoralOther immoralOther match n n 1 0.8259 
09-May-2018_13:59:01 Exp 7307 22 female R 3 3 1 immoralSelf immoralSelf match n n 1 0.6792 
09-May-2018_13:59:03 Exp 7307 22 female R 3 3 2 immoralOther immoralOther match n m 0 0.6054 
09-May-2018_13:59:05 Exp 7307 22 female R 3 3 3 immoralOther immoralOther match n n 1 0.5782 
09-May-2018_13:59:07 Exp 7307 22 female R 3 3 4 immoralOther immoralSelf mismatch m n 0 0.7666 
09-May-2018_13:59:10 Exp 7307 22 female R 3 3 5 moralOther moralOther match n n 1 0.5186 
09-May-2018_13:59:12 Exp 7307 22 female R 3 3 6 immoralOther moralOther mismatch m m 1 0.6858 
09-May-2018_13:59:14 Exp 7307 22 female R 3 3 7 immoralSelf moralSelf mismatch m n 0 0.6643 
09-May-2018_13:59:16 Exp 7307 22 female R 3 3 8 moralOther immoralSelf mismatch m m 1 0.6742 
09-May-2018_13:59:19 Exp 7307 22 female R 3 3 9 moralOther moralSelf mismatch m m 1 0.8484 
09-May-2018_13:59:21 Exp 7307 22 female R 3 3 10 immoralSelf moralOther mismatch m m 1 0.6941 
09-May-2018_13:59:24 Exp 7307 22 female R 3 3 11 moralSelf immoralOther mismatch m m 1 0.8208 
09-May-2018_13:59:26 Exp 7307 22 female R 3 3 12 immoralSelf immoralSelf match n n 1 0.7302 
09-May-2018_13:59:28 Exp 7307 22 female R 3 3 13 immoralOther moralOther mismatch m m 1 0.7735 
09-May-2018_13:59:31 Exp 7307 22 female R 3 3 14 moralSelf moralSelf match n n 1 0.6258 
09-May-2018_13:59:33 Exp 7307 22 female R 3 3 15 moralSelf moralSelf match n n 1 0.6872 
09-May-2018_13:59:36 Exp 7307 22 female R 3 3 16 moralOther moralOther match n n 1 0.9136 
09-May-2018_13:59:38 Exp 7307 22 female R 3 3 17 moralSelf immoralOther mismatch m m 1 0.7645 
09-May-2018_13:59:40 Exp 7307 22 female R 3 3 18 moralOther immoralSelf mismatch m n 0 0.6765 
09-May-2018_13:59:43 Exp 7307 22 female R 3 3 19 immoralSelf immoralSelf match n n 1 0.5867 
09-May-2018_13:59:45 Exp 7307 22 female R 3 3 20 moralSelf moralSelf match n n 1 0.8274 
09-May-2018_13:59:47 Exp 7307 22 female R 3 3 21 immoralSelf moralOther mismatch m m 1 0.6087 
09-May-2018_13:59:50 Exp 7307 22 female R 3 3 22 moralOther moralOther match n n 1 0.6935 
09-May-2018_13:59:52 Exp 7307 22 female R 3 3 23 immoralOther immoralOther match n n 1 0.7482 
09-May-2018_13:59:55 Exp 7307 22 female R 3 3 24 moralSelf moralOther mismatch m m 1 0.9477 
09-May-2018_14:00:28 Exp 7307 22 female R 3 4 1 immoralSelf immoralSelf match n n 1 0.6381 
09-May-2018_14:00:30 Exp 7307 22 female R 3 4 2 immoralOther immoralSelf mismatch m m 1 0.7276 
09-May-2018_14:00:32 Exp 7307 22 female R 3 4 3 moralSelf moralSelf match n n 1 0.5070 
09-May-2018_14:00:35 Exp 7307 22 female R 3 4 4 immoralSelf immoralSelf match n n 1 0.5179 
09-May-2018_14:00:37 Exp 7307 22 female R 3 4 5 moralSelf moralSelf match n m 0 0.6291 
09-May-2018_14:00:39 Exp 7307 22 female R 3 4 6 immoralOther moralSelf mismatch m m 1 0.5863 
09-May-2018_14:00:41 Exp 7307 22 female R 3 4 7 immoralSelf immoralSelf match n n 1 0.6349 
09-May-2018_14:00:44 Exp 7307 22 female R 3 4 8 moralSelf immoralOther mismatch m m 1 0.6844 
09-May-2018_14:00:46 Exp 7307 22 female R 3 4 9 moralOther immoralOther mismatch m m 1 0.6309 
09-May-2018_14:00:48 Exp 7307 22 female R 3 4 10 immoralSelf moralOther mismatch m m 1 0.6121 
09-May-2018_14:00:50 Exp 7307 22 female R 3 4 11 moralOther moralOther match n n 1 0.5892 
09-May-2018_14:00:53 Exp 7307 22 female R 3 4 12 moralOther moralOther match n n 1 0.6858 
09-May-2018_14:00:55 Exp 7307 22 female R 3 4 13 moralOther immoralOther mismatch m m 1 0.5442 
09-May-2018_14:00:57 Exp 7307 22 female R 3 4 14 immoralSelf immoralOther mismatch m m 1 0.7598 
09-May-2018_14:00:59 Exp 7307 22 female R 3 4 15 moralSelf moralSelf match n n 1 0.5956 
09-May-2018_14:01:02 Exp 7307 22 female R 3 4 16 moralSelf immoralOther mismatch m m 1 0.6443 
09-May-2018_14:01:04 Exp 7307 22 female R 3 4 17 immoralOther immoralOther match n n 1 0.7541 
09-May-2018_14:01:06 Exp 7307 22 female R 3 4 18 immoralSelf moralOther mismatch m m 1 0.5659 
09-May-2018_14:01:09 Exp 7307 22 female R 3 4 19 moralOther moralOther match n n 1 0.6059 
09-May-2018_14:01:11 Exp 7307 22 female R 3 4 20 moralOther immoralOther mismatch m m 1 0.5627 
09-May-2018_14:01:13 Exp 7307 22 female R 3 4 21 immoralOther moralOther mismatch m m 1 0.6909 
09-May-2018_14:01:15 Exp 7307 22 female R 3 4 22 immoralOther immoralOther match n n 1 0.6373 
09-May-2018_14:01:18 Exp 7307 22 female R 3 4 23 immoralOther immoralOther match n n 1 0.7508 
09-May-2018_14:01:20 Exp 7307 22 female R 3 4 24 moralSelf moralOther mismatch m m 1 0.8586 
09-May-2018_14:01:23 Exp 7307 22 female R 3 5 1 moralSelf moralSelf match n n 1 0.6847 
09-May-2018_14:01:25 Exp 7307 22 female R 3 5 2 immoralSelf immoralSelf match n n 1 0.4631 
09-May-2018_14:01:27 Exp 7307 22 female R 3 5 3 immoralOther immoralOther match n m 0 0.6250 
09-May-2018_14:01:29 Exp 7307 22 female R 3 5 4 immoralSelf moralSelf mismatch m m 1 0.6064 
09-May-2018_14:01:31 Exp 7307 22 female R 3 5 5 moralSelf moralSelf match n n 1 0.5551 
09-May-2018_14:01:34 Exp 7307 22 female R 3 5 6 moralOther immoralSelf mismatch m m 1 0.6150 
09-May-2018_14:01:36 Exp 7307 22 female R 3 5 7 moralOther immoralOther mismatch m m 1 0.7760 
09-May-2018_14:01:38 Exp 7307 22 female R 3 5 8 immoralOther moralOther mismatch m m 1 0.8603 
09-May-2018_14:01:41 Exp 7307 22 female R 3 5 9 moralOther moralOther match n n 1 0.8623 
09-May-2018_14:01:43 Exp 7307 22 female R 3 5 10 immoralSelf moralOther mismatch m m 1 0.6243 
09-May-2018_14:01:45 Exp 7307 22 female R 3 5 11 immoralOther immoralOther match n n 1 0.6536 
09-May-2018_14:01:48 Exp 7307 22 female R 3 5 12 moralSelf immoralOther mismatch m m 1 0.6433 
09-May-2018_14:01:50 Exp 7307 22 female R 3 5 13 immoralOther immoralOther match n n 1 0.7489 
09-May-2018_14:01:52 Exp 7307 22 female R 3 5 14 moralOther moralSelf mismatch m n 0 0.6925 
09-May-2018_14:01:55 Exp 7307 22 female R 3 5 15 immoralSelf immoralSelf match n n 1 0.5232 
09-May-2018_14:01:57 Exp 7307 22 female R 3 5 16 moralSelf moralOther mismatch m n 0 0.5944 
09-May-2018_14:01:59 Exp 7307 22 female R 3 5 17 immoralSelf immoralSelf match n n 1 0.5629 
09-May-2018_14:02:01 Exp 7307 22 female R 3 5 18 moralOther moralOther match n n 1 0.8110 
09-May-2018_14:02:04 Exp 7307 22 female R 3 5 19 immoralOther moralOther mismatch m m 1 0.5800 
09-May-2018_14:02:06 Exp 7307 22 female R 3 5 20 moralSelf moralSelf match n n 1 0.7124 
09-May-2018_14:02:08 Exp 7307 22 female R 3 5 21 immoralSelf moralOther mismatch m m 1 0.8032 
09-May-2018_14:02:11 Exp 7307 22 female R 3 5 22 moralOther moralOther match n n 1 0.6081 
09-May-2018_14:02:13 Exp 7307 22 female R 3 5 23 immoralOther moralOther mismatch m m 1 0.5808 
09-May-2018_14:02:15 Exp 7307 22 female R 3 5 24 moralSelf immoralOther mismatch m m 1 0.7692 
Date Prac Sub Age Sex Hand Block Bin Trial Shape Label Match CorrResp Resp ACC RT
09-May-2018_14:07:23 Exp 7307 22 female R 1 1 1 moralSelf moralSelf match n n 1 0.9881 
09-May-2018_14:07:25 Exp 7307 22 female R 1 1 2 immoralOther moralOther mismatch m m 1 0.8927 
09-May-2018_14:07:27 Exp 7307 22 female R 1 1 3 immoralSelf moralSelf mismatch m m 1 0.7075 
09-May-2018_14:07:30 Exp 7307 22 female R 1 1 4 moralOther moralOther match n n 1 0.7822 
09-May-2018_14:07:32 Exp 7307 22 female R 1 1 5 moralSelf moralSelf match n n 1 0.8826 
09-May-2018_14:07:35 Exp 7307 22 female R 1 1 6 immoralSelf immoralSelf match n m 0 0.6930 
09-May-2018_14:07:37 Exp 7307 22 female R 1 1 7 moralSelf moralOther mismatch m m 1 0.7638 
09-May-2018_14:07:40 Exp 7307 22 female R 1 1 8 immoralSelf moralSelf mismatch m m 1 0.9718 
09-May-2018_14:07:42 Exp 7307 22 female R 1 1 9 immoralOther moralOther mismatch m m 1 0.8680 
09-May-2018_14:07:45 Exp 7307 22 female R 1 1 10 immoralOther immoralOther match n n 1 0.6182 
09-May-2018_14:07:47 Exp 7307 22 female R 1 1 11 immoralSelf immoralSelf match n n 1 0.7072 
09-May-2018_14:07:49 Exp 7307 22 female R 1 1 12 immoralOther immoralOther match n m 0 0.9741 
09-May-2018_14:07:52 Exp 7307 22 female R 1 1 13 immoralOther immoralOther match n n 1 1.0184 
09-May-2018_14:07:55 Exp 7307 22 female R 1 1 14 moralOther moralOther match n n 1 0.8116 
09-May-2018_14:07:57 Exp 7307 22 female R 1 1 15 moralOther immoralSelf mismatch m m 1 0.5807 
09-May-2018_14:07:59 Exp 7307 22 female R 1 1 16 moralSelf moralSelf match n n 1 0.6489 
09-May-2018_14:08:02 Exp 7307 22 female R 1 1 17 moralOther immoralOther mismatch m m 1 1.0386 
09-May-2018_14:08:04 Exp 7307 22 female R 1 1 18 moralOther moralOther match n n 1 0.9122 
09-May-2018_14:08:06 Exp 7307 22 female R 1 1 19 immoralSelf immoralSelf match n n 1 0.5312 
09-May-2018_14:08:09 Exp 7307 22 female R 1 1 20 moralOther immoralSelf mismatch m m 1 0.9985 
09-May-2018_14:08:12 Exp 7307 22 female R 1 1 21 moralSelf immoralOther mismatch m m 1 0.8593 
09-May-2018_14:08:14 Exp 7307 22 female R 1 1 22 immoralOther immoralSelf mismatch m m 1 0.7733 
09-May-2018_14:08:17 Exp 7307 22 female R 1 1 23 immoralSelf moralOther mismatch m NA -1 1.0841 
09-May-2018_14:08:19 Exp 7307 22 female R 1 1 24 moralSelf immoralOther mismatch m m 1 0.6879 
09-May-2018_14:08:21 Exp 7307 22 female R 1 2 1 moralOther moralSelf mismatch m n 0 0.6423 
09-May-2018_14:08:24 Exp 7307 22 female R 1 2 2 immoralSelf moralSelf mismatch m m 1 0.7478 
09-May-2018_14:08:26 Exp 7307 22 female R 1 2 3 immoralSelf immoralSelf match n n 1 0.5714 
09-May-2018_14:08:28 Exp 7307 22 female R 1 2 4 moralOther immoralOther mismatch m m 1 0.6276 
09-May-2018_14:08:30 Exp 7307 22 female R 1 2 5 moralOther moralOther match n n 1 0.7609 
09-May-2018_14:08:33 Exp 7307 22 female R 1 2 6 moralOther moralOther match n n 1 0.6127 
09-May-2018_14:08:35 Exp 7307 22 female R 1 2 7 immoralOther immoralOther match n n 1 0.7577 
09-May-2018_14:08:37 Exp 7307 22 female R 1 2 8 immoralOther moralSelf mismatch m m 1 0.6415 
09-May-2018_14:08:40 Exp 7307 22 female R 1 2 9 moralSelf immoralOther mismatch m m 1 0.7792 
09-May-2018_14:08:42 Exp 7307 22 female R 1 2 10 immoralSelf immoralOther mismatch m m 1 1.0474 
09-May-2018_14:08:45 Exp 7307 22 female R 1 2 11 moralOther moralOther match n n 1 0.6613 
09-May-2018_14:08:47 Exp 7307 22 female R 1 2 12 moralSelf moralSelf match n n 1 0.6631 
09-May-2018_14:08:49 Exp 7307 22 female R 1 2 13 immoralSelf moralSelf mismatch m m 1 0.6091 
09-May-2018_14:08:52 Exp 7307 22 female R 1 2 14 moralSelf moralOther mismatch m m 1 0.6982 
09-May-2018_14:08:54 Exp 7307 22 female R 1 2 15 immoralOther immoralOther match n n 1 0.9768 
09-May-2018_14:08:57 Exp 7307 22 female R 1 2 16 moralSelf immoralSelf mismatch m m 1 0.8051 
09-May-2018_14:08:59 Exp 7307 22 female R 1 2 17 immoralSelf immoralSelf match n n 1 0.5461 
09-May-2018_14:09:01 Exp 7307 22 female R 1 2 18 immoralSelf immoralSelf match n n 1 0.4656 
09-May-2018_14:09:03 Exp 7307 22 female R 1 2 19 moralOther immoralOther mismatch m m 1 0.6196 
09-May-2018_14:09:06 Exp 7307 22 female R 1 2 20 immoralOther immoralOther match n n 1 0.9006 
09-May-2018_14:09:08 Exp 7307 22 female R 1 2 21 moralSelf moralSelf match n m 0 0.6912 
09-May-2018_14:09:10 Exp 7307 22 female R 1 2 22 immoralOther moralOther mismatch m m 1 0.5381 
09-May-2018_14:09:12 Exp 7307 22 female R 1 2 23 moralSelf moralSelf match n n 1 0.6214 
09-May-2018_14:09:15 Exp 7307 22 female R 1 2 24 immoralOther moralSelf mismatch m m 1 0.6666 
Date Prac Sub Age Sex Hand Block Bin Trial Shape Label Match CorrResp Resp ACC RT
09-May-2018_14:14:30 Exp 7307 22 female R 1 1 1 immoralSelf immoralSelf match n n 1 0.5446 
09-May-2018_14:14:32 Exp 7307 22 female R 1 1 2 immoralOther immoralOther match n n 1 0.7123 
09-May-2018_14:14:34 Exp 7307 22 female R 1 1 3 immoralOther immoralSelf mismatch m m 1 0.5712 
09-May-2018_14:14:37 Exp 7307 22 female R 1 1 4 immoralSelf immoralOther mismatch m m 1 0.7553 
09-May-2018_14:14:39 Exp 7307 22 female R 1 1 5 moralOther immoralOther mismatch m m 1 0.7832 
09-May-2018_14:14:41 Exp 7307 22 female R 1 1 6 moralOther moralOther match n m 0 0.5076 
09-May-2018_14:14:44 Exp 7307 22 female R 1 1 7 moralOther immoralOther mismatch m m 1 0.5824 
09-May-2018_14:14:46 Exp 7307 22 female R 1 1 8 moralSelf moralOther mismatch m m 1 0.7548 
09-May-2018_14:14:48 Exp 7307 22 female R 1 1 9 moralSelf moralSelf match n m 0 0.7747 
09-May-2018_14:14:51 Exp 7307 22 female R 1 1 10 moralSelf immoralOther mismatch m m 1 1.0190 
09-May-2018_14:14:53 Exp 7307 22 female R 1 1 11 immoralSelf moralOther mismatch m n 0 0.5241 
09-May-2018_14:14:56 Exp 7307 22 female R 1 1 12 immoralOther immoralOther match n NA -1 1.0841 
09-May-2018_14:14:58 Exp 7307 22 female R 1 1 13 immoralOther immoralOther match n n 1 0.9576 
09-May-2018_14:15:01 Exp 7307 22 female R 1 1 14 moralOther immoralSelf mismatch m m 1 0.6016 
09-May-2018_14:15:03 Exp 7307 22 female R 1 1 15 moralOther moralOther match n n 1 0.5423 
09-May-2018_14:15:05 Exp 7307 22 female R 1 1 16 moralSelf immoralSelf mismatch m m 1 0.7579 
09-May-2018_14:15:08 Exp 7307 22 female R 1 1 17 moralSelf moralSelf match n n 1 0.5778 
09-May-2018_14:15:10 Exp 7307 22 female R 1 1 18 moralOther moralOther match n n 1 0.6702 
09-May-2018_14:15:12 Exp 7307 22 female R 1 1 19 immoralSelf moralSelf mismatch m m 1 0.5564 
09-May-2018_14:15:14 Exp 7307 22 female R 1 1 20 immoralOther moralSelf mismatch m m 1 0.7442 
09-May-2018_14:15:17 Exp 7307 22 female R 1 1 21 immoralOther immoralSelf mismatch m m 1 0.7439 
09-May-2018_14:15:19 Exp 7307 22 female R 1 1 22 immoralSelf immoralSelf match n n 1 0.7435 
09-May-2018_14:15:21 Exp 7307 22 female R 1 1 23 immoralSelf immoralSelf match n n 1 0.6392 
09-May-2018_14:15:24 Exp 7307 22 female R 1 1 24 moralSelf moralSelf match n n 1 0.6726 
09-May-2018_14:15:26 Exp 7307 22 female R 1 2 1 immoralSelf immoralSelf match n m 0 0.5027 
09-May-2018_14:15:28 Exp 7307 22 female R 1 2 2 immoralOther immoralOther match n m 0 0.7335 
09-May-2018_14:15:30 Exp 7307 22 female R 1 2 3 moralOther moralOther match n n 1 0.4409 
09-May-2018_14:15:33 Exp 7307 22 female R 1 2 4 moralOther immoralOther mismatch m m 1 0.6983 
09-May-2018_14:15:35 Exp 7307 22 female R 1 2 5 moralSelf moralOther mismatch m n 0 0.6810 
09-May-2018_14:15:37 Exp 7307 22 female R 1 2 6 immoralOther moralOther mismatch m m 1 0.8436 
09-May-2018_14:15:40 Exp 7307 22 female R 1 2 7 moralSelf moralSelf match n n 1 0.9810 
09-May-2018_14:15:42 Exp 7307 22 female R 1 2 8 immoralSelf immoralSelf match n n 1 0.5774 
09-May-2018_14:15:44 Exp 7307 22 female R 1 2 9 moralSelf moralSelf match n n 1 0.6298 
09-May-2018_14:15:47 Exp 7307 22 female R 1 2 10 moralSelf immoralSelf mismatch m m 1 0.8910 
09-May-2018_14:15:49 Exp 7307 22 female R 1 2 11 immoralSelf moralSelf mismatch m n 0 0.7057 
09-May-2018_14:15:52 Exp 7307 22 female R 1 2 12 immoralOther immoralSelf mismatch m m 1 0.7646 
09-May-2018_14:15:54 Exp 7307 22 female R 1 2 13 immoralSelf moralSelf mismatch m m 1 0.7967 
09-May-2018_14:15:56 Exp 7307 22 female R 1 2 14 immoralSelf immoralSelf match n n 1 0.6133 
09-May-2018_14:15:59 Exp 7307 22 female R 1 2 15 immoralOther immoralOther match n n 1 0.7982 
09-May-2018_14:16:01 Exp 7307 22 female R 1 2 16 moralOther immoralSelf mismatch m m 1 0.7471 
09-May-2018_14:16:03 Exp 7307 22 female R 1 2 17 moralOther immoralSelf mismatch m m 1 0.6428 
09-May-2018_14:16:06 Exp 7307 22 female R 1 2 18 moralSelf moralSelf match n n 1 0.6122 
09-May-2018_14:16:08 Exp 7307 22 female R 1 2 19 immoralSelf immoralOther mismatch m m 1 0.7652 
09-May-2018_14:16:10 Exp 7307 22 female R 1 2 20 immoralOther moralOther mismatch m m 1 0.7013 
09-May-2018_14:16:13 Exp 7307 22 female R 1 2 21 moralOther moralOther match n n 1 0.5481 
09-May-2018_14:16:15 Exp 7307 22 female R 1 2 22 moralSelf moralOther mismatch m m 1 0.6517 
09-May-2018_14:16:17 Exp 7307 22 female R 1 2 23 immoralOther immoralOther match n n 1 0.6733 
09-May-2018_14:16:20 Exp 7307 22 female R 1 2 24 moralOther moralOther match n n 1 0.8157 
Date Prac Sub Age Sex Hand Block Bin Trial Shape Label Match CorrResp Resp ACC RT
09-May-2018_14:20:50 Exp 7307 22 female R 1 1 1 moralOther moralSelf mismatch m m 1 0.8151 
09-May-2018_14:20:52 Exp 7307 22 female R 1 1 2 immoralSelf immoralSelf match n n 1 0.6802 
09-May-2018_14:20:55 Exp 7307 22 female R 1 1 3 moralSelf immoralOther mismatch m m 1 0.8826 
09-May-2018_14:20:57 Exp 7307 22 female R 1 1 4 immoralOther moralSelf mismatch m m 1 0.7650 
09-May-2018_14:20:59 Exp 7307 22 female R 1 1 5 moralOther immoralSelf mismatch m m 1 0.6052 
09-May-2018_14:21:02 Exp 7307 22 female R 1 1 6 immoralOther immoralOther match n n 1 1.0500 
09-May-2018_14:21:04 Exp 7307 22 female R 1 1 7 immoralSelf immoralSelf match n n 1 0.5037 
09-May-2018_14:21:06 Exp 7307 22 female R 1 1 8 moralOther moralOther match n n 1 0.6027 
09-May-2018_14:21:09 Exp 7307 22 female R 1 1 9 moralSelf immoralOther mismatch m m 1 0.7194 
09-May-2018_14:21:11 Exp 7307 22 female R 1 1 10 moralSelf moralSelf match n n 1 0.6547 
09-May-2018_14:21:13 Exp 7307 22 female R 1 1 11 immoralOther immoralOther match n n 1 0.6203 
09-May-2018_14:21:15 Exp 7307 22 female R 1 1 12 immoralOther immoralSelf mismatch m m 1 0.6214 
09-May-2018_14:21:18 Exp 7307 22 female R 1 1 13 moralOther moralOther match n n 1 0.9386 
09-May-2018_14:21:20 Exp 7307 22 female R 1 1 14 moralOther moralOther match n n 1 0.5223 
09-May-2018_14:21:22 Exp 7307 22 female R 1 1 15 moralSelf moralSelf match n n 1 0.6174 
09-May-2018_14:21:25 Exp 7307 22 female R 1 1 16 immoralSelf moralOther mismatch m m 1 0.6104 
09-May-2018_14:21:27 Exp 7307 22 female R 1 1 17 immoralSelf immoralOther mismatch m NA -1 1.0841 
09-May-2018_14:21:30 Exp 7307 22 female R 1 1 18 immoralOther immoralOther match n n 1 0.6219 
09-May-2018_14:21:32 Exp 7307 22 female R 1 1 19 moralSelf immoralOther mismatch m m 1 0.6912 
09-May-2018_14:21:34 Exp 7307 22 female R 1 1 20 moralSelf moralSelf match n n 1 0.5859 
09-May-2018_14:21:36 Exp 7307 22 female R 1 1 21 moralOther moralSelf mismatch m n 0 0.5146 
09-May-2018_14:21:39 Exp 7307 22 female R 1 1 22 immoralOther moralSelf mismatch m n 0 0.8294 
09-May-2018_14:21:41 Exp 7307 22 female R 1 1 23 immoralSelf immoralSelf match n n 1 0.7307 
09-May-2018_14:21:43 Exp 7307 22 female R 1 1 24 immoralSelf immoralOther mismatch m m 1 0.7419 
09-May-2018_14:21:46 Exp 7307 22 female R 1 2 1 moralSelf moralOther mismatch m n 0 0.5497 
09-May-2018_14:21:48 Exp 7307 22 female R 1 2 2 moralOther immoralSelf mismatch m m 1 0.7333 
09-May-2018_14:21:51 Exp 7307 22 female R 1 2 3 immoralSelf immoralSelf match n NA -1 1.0841 
09-May-2018_14:21:53 Exp 7307 22 female R 1 2 4 moralSelf moralSelf match n n 1 0.6112 
09-May-2018_14:21:55 Exp 7307 22 female R 1 2 5 immoralSelf moralOther mismatch m m 1 0.8122 
09-May-2018_14:21:58 Exp 7307 22 female R 1 2 6 moralSelf immoralSelf mismatch m m 1 0.7652 
09-May-2018_14:22:00 Exp 7307 22 female R 1 2 7 moralOther moralOther match n n 1 0.5413 
09-May-2018_14:22:02 Exp 7307 22 female R 1 2 8 moralSelf moralSelf match n n 1 0.5810 
09-May-2018_14:22:04 Exp 7307 22 female R 1 2 9 immoralOther immoralOther match n m 0 0.5853 
09-May-2018_14:22:07 Exp 7307 22 female R 1 2 10 immoralSelf immoralOther mismatch m m 1 0.6658 
09-May-2018_14:22:09 Exp 7307 22 female R 1 2 11 immoralOther immoralOther match n n 1 0.5799 
09-May-2018_14:22:11 Exp 7307 22 female R 1 2 12 immoralOther moralSelf mismatch m m 1 0.5762 
09-May-2018_14:22:13 Exp 7307 22 female R 1 2 13 immoralSelf immoralSelf match n n 1 0.5645 
09-May-2018_14:22:16 Exp 7307 22 female R 1 2 14 immoralOther moralOther mismatch m n 0 0.9647 
09-May-2018_14:22:18 Exp 7307 22 female R 1 2 15 moralSelf moralSelf match n n 1 0.4927 
09-May-2018_14:22:20 Exp 7307 22 female R 1 2 16 immoralSelf immoralSelf match n n 1 0.5554 
09-May-2018_14:22:23 Exp 7307 22 female R 1 2 17 moralSelf immoralSelf mismatch m n 0 0.8552 
09-May-2018_14:22:25 Exp 7307 22 female R 1 2 18 moralOther immoralOther mismatch m m 1 0.5330 
09-May-2018_14:22:27 Exp 7307 22 female R 1 2 19 immoralOther immoralSelf mismatch m n 0 0.6084 
09-May-2018_14:22:29 Exp 7307 22 female R 1 2 20 moralOther moralOther match n n 1 0.6611 
09-May-2018_14:22:32 Exp 7307 22 female R 1 2 21 moralOther immoralSelf mismatch m m 1 0.5270 
09-May-2018_14:22:34 Exp 7307 22 female R 1 2 22 moralOther moralOther match n n 1 0.5785 
09-May-2018_14:22:36 Exp 7307 22 female R 1 2 23 immoralSelf moralOther mismatch m m 1 0.6309 
09-May-2018_14:22:38 Exp 7307 22 female R 1 2 24 immoralOther immoralOther match n n 1 0.7641 
Date Prac Sub Age Sex Hand Block Bin Trial Shape Label Match CorrResp Resp ACC RT
09-May-2018_14:28:36 Exp 7307 22 female R 1 1 1 moralOther immoralOther mismatch m m 1 0.6580 
09-May-2018_14:28:38 Exp 7307 22 female R 1 1 2 moralSelf moralSelf match n n 1 0.5082 
09-May-2018_14:28:40 Exp 7307 22 female R 1 1 3 moralOther immoralSelf mismatch m m 1 0.4550 
09-May-2018_14:28:43 Exp 7307 22 female R 1 1 4 immoralOther immoralOther match n m 0 0.5728 
09-May-2018_14:28:45 Exp 7307 22 female R 1 1 5 immoralSelf immoralOther mismatch m m 1 0.9889 
09-May-2018_14:28:47 Exp 7307 22 female R 1 1 6 immoralSelf immoralSelf match n n 1 0.4774 
09-May-2018_14:28:50 Exp 7307 22 female R 1 1 7 immoralOther moralOther mismatch m m 1 0.6596 
09-May-2018_14:28:52 Exp 7307 22 female R 1 1 8 immoralSelf immoralOther mismatch m m 1 0.7816 
09-May-2018_14:28:54 Exp 7307 22 female R 1 1 9 immoralOther immoralOther match n n 1 0.4900 
09-May-2018_14:28:56 Exp 7307 22 female R 1 1 10 moralOther moralOther match n n 1 0.6764 
09-May-2018_14:28:59 Exp 7307 22 female R 1 1 11 immoralSelf immoralOther mismatch m m 1 0.6426 
09-May-2018_14:29:01 Exp 7307 22 female R 1 1 12 immoralOther moralOther mismatch m m 1 0.6681 
09-May-2018_14:29:03 Exp 7307 22 female R 1 1 13 moralSelf immoralSelf mismatch m m 1 0.9063 
09-May-2018_14:29:06 Exp 7307 22 female R 1 1 14 moralSelf immoralSelf mismatch m m 1 0.7972 
09-May-2018_14:29:08 Exp 7307 22 female R 1 1 15 immoralSelf immoralSelf match n n 1 0.7301 
09-May-2018_14:29:11 Exp 7307 22 female R 1 1 16 moralOther immoralSelf mismatch m m 1 1.0614 
09-May-2018_14:29:13 Exp 7307 22 female R 1 1 17 immoralSelf immoralSelf match n n 1 0.4954 
09-May-2018_14:29:15 Exp 7307 22 female R 1 1 18 immoralOther immoralOther match n n 1 0.6861 
09-May-2018_14:29:18 Exp 7307 22 female R 1 1 19 moralOther moralOther match n n 1 0.6566 
09-May-2018_14:29:20 Exp 7307 22 female R 1 1 20 moralOther moralOther match n n 1 0.6505 
09-May-2018_14:29:22 Exp 7307 22 female R 1 1 21 immoralOther moralOther mismatch m m 1 0.6962 
09-May-2018_14:29:25 Exp 7307 22 female R 1 1 22 moralSelf immoralOther mismatch m m 1 0.7029 
09-May-2018_14:29:27 Exp 7307 22 female R 1 1 23 moralSelf moralSelf match n m 0 0.7059 
09-May-2018_14:29:29 Exp 7307 22 female R 1 1 24 moralSelf moralSelf match n n 1 0.5968 
09-May-2018_14:29:32 Exp 7307 22 female R 1 2 1 moralOther moralSelf mismatch m n 0 0.6453 
09-May-2018_14:29:34 Exp 7307 22 female R 1 2 2 immoralOther immoralOther match n n 1 1.0271 
09-May-2018_14:29:36 Exp 7307 22 female R 1 2 3 moralSelf moralOther mismatch m n 0 0.6164 
09-May-2018_14:29:39 Exp 7307 22 female R 1 2 4 immoralSelf immoralOther mismatch m m 1 0.7058 
09-May-2018_14:29:41 Exp 7307 22 female R 1 2 5 immoralSelf immoralSelf match n n 1 0.6283 
09-May-2018_14:29:43 Exp 7307 22 female R 1 2 6 moralSelf moralOther mismatch m m 1 0.7136 
09-May-2018_14:29:46 Exp 7307 22 female R 1 2 7 immoralOther moralSelf mismatch m m 1 0.8365 
09-May-2018_14:29:48 Exp 7307 22 female R 1 2 8 immoralSelf immoralSelf match n n 1 0.7580 
09-May-2018_14:29:50 Exp 7307 22 female R 1 2 9 moralSelf moralSelf match n n 1 0.6499 
09-May-2018_14:29:53 Exp 7307 22 female R 1 2 10 moralSelf immoralSelf mismatch m m 1 0.6957 
09-May-2018_14:29:55 Exp 7307 22 female R 1 2 11 immoralOther immoralOther match n n 1 0.7344 
09-May-2018_14:29:58 Exp 7307 22 female R 1 2 12 immoralSelf moralOther mismatch m m 1 0.6817 
09-May-2018_14:30:00 Exp 7307 22 female R 1 2 13 moralOther moralOther match n m 0 0.7322 
09-May-2018_14:30:02 Exp 7307 22 female R 1 2 14 immoralOther immoralOther match n n 1 0.8476 
09-May-2018_14:30:05 Exp 7307 22 female R 1 2 15 moralOther moralOther match n n 1 0.7893 
09-May-2018_14:30:07 Exp 7307 22 female R 1 2 16 immoralSelf moralOther mismatch m n 0 0.5259 
09-May-2018_14:30:09 Exp 7307 22 female R 1 2 17 moralSelf moralSelf match n n 1 0.7810 
09-May-2018_14:30:12 Exp 7307 22 female R 1 2 18 moralOther moralSelf mismatch m m 1 0.7134 
09-May-2018_14:30:14 Exp 7307 22 female R 1 2 19 immoralOther moralSelf mismatch m m 1 0.6283 
09-May-2018_14:30:16 Exp 7307 22 female R 1 2 20 immoralSelf immoralSelf match n n 1 0.6495 
09-May-2018_14:30:18 Exp 7307 22 female R 1 2 21 moralOther immoralSelf mismatch m m 1 0.5514 
09-May-2018_14:30:21 Exp 7307 22 female R 1 2 22 immoralOther moralOther mismatch m m 1 0.6352 
09-May-2018_14:30:23 Exp 7307 22 female R 1 2 23 moralSelf moralSelf match n m 0 0.7727 
09-May-2018_14:30:25 Exp 7307 22 female R 1 2 24 moralOther moralOther match n m 0 0.5968 
Date Prac Sub Age Sex Hand Block Bin Trial Shape Label Match CorrResp Resp ACC RT
09-May-2018_14:35:06 Exp 7307 22 female R 1 1 1 immoralSelf immoralSelf match n n 1 0.6894 
09-May-2018_14:35:08 Exp 7307 22 female R 1 1 2 immoralOther moralSelf mismatch m m 1 0.5719 
09-May-2018_14:35:10 Exp 7307 22 female R 1 1 3 immoralOther moralOther mismatch m m 1 0.7080 
09-May-2018_14:35:13 Exp 7307 22 female R 1 1 4 immoralOther moralOther mismatch m m 1 0.7428 
09-May-2018_14:35:15 Exp 7307 22 female R 1 1 5 moralOther moralSelf mismatch m m 1 0.7826 
09-May-2018_14:35:17 Exp 7307 22 female R 1 1 6 immoralOther immoralOther match n n 1 0.7789 
09-May-2018_14:35:20 Exp 7307 22 female R 1 1 7 moralOther immoralSelf mismatch m m 1 0.6152 
09-May-2018_14:35:22 Exp 7307 22 female R 1 1 8 moralSelf moralSelf match n n 1 0.6962 
09-May-2018_14:35:24 Exp 7307 22 female R 1 1 9 immoralOther immoralOther match n n 1 0.7189 
09-May-2018_14:35:27 Exp 7307 22 female R 1 1 10 immoralSelf immoralSelf match n n 1 0.5661 
09-May-2018_14:35:29 Exp 7307 22 female R 1 1 11 moralSelf immoralSelf mismatch m m 1 0.9421 
09-May-2018_14:35:31 Exp 7307 22 female R 1 1 12 immoralSelf moralSelf mismatch m m 1 0.6778 
09-May-2018_14:35:34 Exp 7307 22 female R 1 1 13 immoralSelf immoralOther mismatch m m 1 0.6120 
09-May-2018_14:35:36 Exp 7307 22 female R 1 1 14 immoralSelf immoralSelf match n n 1 0.5651 
09-May-2018_14:35:38 Exp 7307 22 female R 1 1 15 moralSelf immoralSelf mismatch m m 1 0.8291 
09-May-2018_14:35:40 Exp 7307 22 female R 1 1 16 moralOther immoralOther mismatch m m 1 0.5304 
09-May-2018_14:35:43 Exp 7307 22 female R 1 1 17 immoralSelf immoralOther mismatch m m 1 0.7897 
09-May-2018_14:35:45 Exp 7307 22 female R 1 1 18 moralSelf moralSelf match n n 1 0.6384 
09-May-2018_14:35:48 Exp 7307 22 female R 1 1 19 immoralOther immoralOther match n n 1 0.7919 
09-May-2018_14:35:50 Exp 7307 22 female R 1 1 20 moralOther moralOther match n n 1 0.6084 
09-May-2018_14:35:52 Exp 7307 22 female R 1 1 21 moralOther moralOther match n n 1 0.5012 
09-May-2018_14:35:54 Exp 7307 22 female R 1 1 22 moralSelf moralSelf match n n 1 0.6040 
09-May-2018_14:35:57 Exp 7307 22 female R 1 1 23 moralSelf immoralSelf mismatch m m 1 0.8967 
09-May-2018_14:35:59 Exp 7307 22 female R 1 1 24 moralOther moralOther match n n 1 0.6394 
09-May-2018_14:36:01 Exp 7307 22 female R 1 2 1 moralOther moralOther match n n 1 0.5449 
09-May-2018_14:36:04 Exp 7307 22 female R 1 2 2 moralSelf immoralOther mismatch m m 1 0.8086 
09-May-2018_14:36:06 Exp 7307 22 female R 1 2 3 immoralSelf immoralSelf match n n 1 0.5733 
09-May-2018_14:36:08 Exp 7307 22 female R 1 2 4 moralOther moralOther match n n 1 0.6374 
09-May-2018_14:36:10 Exp 7307 22 female R 1 2 5 moralOther immoralSelf mismatch m m 1 0.6869 
09-May-2018_14:36:13 Exp 7307 22 female R 1 2 6 immoralOther immoralOther match n n 1 0.6814 
09-May-2018_14:36:15 Exp 7307 22 female R 1 2 7 immoralOther immoralSelf mismatch m m 1 0.7719 
09-May-2018_14:36:18 Exp 7307 22 female R 1 2 8 immoralSelf immoralSelf match n n 1 0.8199 
09-May-2018_14:36:20 Exp 7307 22 female R 1 2 9 immoralSelf moralOther mismatch m n 0 0.5729 
09-May-2018_14:36:22 Exp 7307 22 female R 1 2 10 immoralSelf immoralOther mismatch m m 1 1.0770 
09-May-2018_14:36:25 Exp 7307 22 female R 1 2 11 moralSelf immoralSelf mismatch m m 1 0.7234 
09-May-2018_14:36:27 Exp 7307 22 female R 1 2 12 moralSelf moralSelf match n n 1 0.5705 
09-May-2018_14:36:29 Exp 7307 22 female R 1 2 13 moralSelf moralSelf match n n 1 0.7066 
09-May-2018_14:36:32 Exp 7307 22 female R 1 2 14 immoralOther immoralSelf mismatch m m 1 0.7095 
09-May-2018_14:36:34 Exp 7307 22 female R 1 2 15 immoralOther immoralOther match n n 1 0.8084 
09-May-2018_14:36:36 Exp 7307 22 female R 1 2 16 immoralOther immoralOther match n n 1 0.7492 
09-May-2018_14:36:39 Exp 7307 22 female R 1 2 17 moralSelf moralOther mismatch m m 1 0.6128 
09-May-2018_14:36:41 Exp 7307 22 female R 1 2 18 immoralSelf immoralSelf match n n 1 0.5098 
09-May-2018_14:36:43 Exp 7307 22 female R 1 2 19 moralOther moralOther match n m 0 0.6327 
09-May-2018_14:36:45 Exp 7307 22 female R 1 2 20 moralOther moralSelf mismatch m m 1 0.6742 
09-May-2018_14:36:48 Exp 7307 22 female R 1 2 21 immoralOther immoralSelf mismatch m n 0 0.6005 
09-May-2018_14:36:50 Exp 7307 22 female R 1 2 22 moralOther immoralOther mismatch m n 0 0.6774 
09-May-2018_14:36:52 Exp 7307 22 female R 1 2 23 moralSelf moralSelf match n n 1 0.7155 
09-May-2018_14:36:55 Exp 7307 22 female R 1 2 24 immoralSelf moralSelf mismatch m NA -1 1.0841 
