Date Prac Sub Age Sex Hand Block Bin Trial Shape Label Match CorrResp Resp ACC RT
30-May-2018_13:47:18 Exp 7329 27 male R 1 1 1 moralSelf immoralOther mismatch m m 1 0.8292 
30-May-2018_13:47:21 Exp 7329 27 male R 1 1 2 moralOther immoralOther mismatch m n 0 0.9053 
30-May-2018_13:47:24 Exp 7329 27 male R 1 1 3 moralOther moralOther match n n 1 0.9754 
30-May-2018_13:47:26 Exp 7329 27 male R 1 1 4 immoralSelf immoralOther mismatch m m 1 0.7036 
30-May-2018_13:47:28 Exp 7329 27 male R 1 1 5 moralOther moralOther match n n 1 0.9097 
30-May-2018_13:47:31 Exp 7329 27 male R 1 1 6 immoralSelf immoralSelf match n m 0 0.7779 
30-May-2018_13:47:33 Exp 7329 27 male R 1 1 7 immoralOther immoralOther match n n 1 0.6720 
30-May-2018_13:47:36 Exp 7329 27 male R 1 1 8 immoralOther immoralOther match n n 1 0.7462 
30-May-2018_13:47:38 Exp 7329 27 male R 1 1 9 immoralSelf immoralOther mismatch m m 1 0.6563 
30-May-2018_13:47:40 Exp 7329 27 male R 1 1 10 immoralSelf immoralSelf match n n 1 1.0165 
30-May-2018_13:47:43 Exp 7329 27 male R 1 1 11 moralSelf moralSelf match n NA -1 1.0850 
30-May-2018_13:47:45 Exp 7329 27 male R 1 1 12 moralSelf moralOther mismatch m n 0 0.5467 
30-May-2018_13:47:48 Exp 7329 27 male R 1 1 13 moralOther moralOther match n n 1 0.7529 
30-May-2018_13:47:50 Exp 7329 27 male R 1 1 14 moralOther immoralOther mismatch m m 1 0.6450 
30-May-2018_13:47:52 Exp 7329 27 male R 1 1 15 immoralSelf moralSelf mismatch m n 0 0.7431 
30-May-2018_13:47:55 Exp 7329 27 male R 1 1 16 immoralOther immoralSelf mismatch m m 1 0.9493 
30-May-2018_13:47:58 Exp 7329 27 male R 1 1 17 immoralSelf immoralSelf match n NA -1 1.0850 
30-May-2018_13:48:00 Exp 7329 27 male R 1 1 18 moralOther immoralOther mismatch m m 1 0.7396 
30-May-2018_13:48:02 Exp 7329 27 male R 1 1 19 moralSelf moralOther mismatch m n 0 0.5617 
30-May-2018_13:48:04 Exp 7329 27 male R 1 1 20 immoralOther moralOther mismatch m n 0 0.6119 
30-May-2018_13:48:07 Exp 7329 27 male R 1 1 21 immoralOther immoralOther match n m 0 0.5879 
30-May-2018_13:48:09 Exp 7329 27 male R 1 1 22 moralSelf moralSelf match n n 1 0.8321 
30-May-2018_13:48:11 Exp 7329 27 male R 1 1 23 immoralOther immoralSelf mismatch m m 1 0.5883 
30-May-2018_13:48:14 Exp 7329 27 male R 1 1 24 moralSelf moralSelf match n m 0 0.6804 
30-May-2018_13:48:16 Exp 7329 27 male R 1 2 1 moralSelf moralSelf match n n 1 0.5145 
30-May-2018_13:48:18 Exp 7329 27 male R 1 2 2 immoralOther immoralOther match n n 1 0.6866 
30-May-2018_13:48:20 Exp 7329 27 male R 1 2 3 immoralSelf immoralSelf match n m 0 0.6168 
30-May-2018_13:48:23 Exp 7329 27 male R 1 2 4 immoralSelf moralOther mismatch m n 0 0.7049 
30-May-2018_13:48:25 Exp 7329 27 male R 1 2 5 moralOther moralOther match n n 1 0.7510 
30-May-2018_13:48:27 Exp 7329 27 male R 1 2 6 moralOther moralSelf mismatch m m 1 0.6831 
30-May-2018_13:48:30 Exp 7329 27 male R 1 2 7 immoralSelf moralSelf mismatch m n 0 0.7973 
30-May-2018_13:48:32 Exp 7329 27 male R 1 2 8 immoralOther moralSelf mismatch m m 1 0.6474 
30-May-2018_13:48:34 Exp 7329 27 male R 1 2 9 immoralOther immoralOther match n n 1 0.6236 
30-May-2018_13:48:37 Exp 7329 27 male R 1 2 10 immoralSelf immoralSelf match n m 0 0.8856 
30-May-2018_13:48:39 Exp 7329 27 male R 1 2 11 immoralSelf moralOther mismatch m m 1 0.6338 
30-May-2018_13:48:41 Exp 7329 27 male R 1 2 12 immoralOther immoralSelf mismatch m m 1 0.7020 
30-May-2018_13:48:44 Exp 7329 27 male R 1 2 13 moralOther moralOther match n n 1 0.5801 
30-May-2018_13:48:46 Exp 7329 27 male R 1 2 14 immoralSelf immoralSelf match n m 0 0.6102 
30-May-2018_13:48:48 Exp 7329 27 male R 1 2 15 moralSelf immoralSelf mismatch m n 0 0.6743 
30-May-2018_13:48:51 Exp 7329 27 male R 1 2 16 moralOther moralOther match n m 0 0.8144 
30-May-2018_13:48:53 Exp 7329 27 male R 1 2 17 moralOther immoralSelf mismatch m m 1 0.7026 
30-May-2018_13:48:55 Exp 7329 27 male R 1 2 18 moralSelf immoralSelf mismatch m m 1 0.7087 
30-May-2018_13:48:58 Exp 7329 27 male R 1 2 19 moralOther immoralSelf mismatch m m 1 1.0089 
30-May-2018_13:49:00 Exp 7329 27 male R 1 2 20 immoralOther immoralOther match n n 1 0.7530 
30-May-2018_13:49:03 Exp 7329 27 male R 1 2 21 moralSelf moralSelf match n n 1 0.6771 
30-May-2018_13:49:05 Exp 7329 27 male R 1 2 22 moralSelf moralSelf match n n 1 0.5993 
30-May-2018_13:49:07 Exp 7329 27 male R 1 2 23 moralSelf immoralOther mismatch m m 1 0.5614 
30-May-2018_13:49:09 Exp 7329 27 male R 1 2 24 immoralOther immoralSelf mismatch m n 0 0.7716 
30-May-2018_13:49:12 Exp 7329 27 male R 1 3 1 moralOther moralOther match n n 1 0.6437 
30-May-2018_13:49:14 Exp 7329 27 male R 1 3 2 immoralSelf immoralSelf match n m 0 0.7498 
30-May-2018_13:49:16 Exp 7329 27 male R 1 3 3 immoralSelf immoralOther mismatch m n 0 0.6179 
30-May-2018_13:49:19 Exp 7329 27 male R 1 3 4 moralSelf moralSelf match n n 1 0.5521 
30-May-2018_13:49:21 Exp 7329 27 male R 1 3 5 immoralSelf immoralSelf match n m 0 0.5961 
30-May-2018_13:49:23 Exp 7329 27 male R 1 3 6 immoralSelf immoralSelf match n n 1 0.6164 
30-May-2018_13:49:25 Exp 7329 27 male R 1 3 7 immoralOther immoralOther match n n 1 0.8084 
30-May-2018_13:49:28 Exp 7329 27 male R 1 3 8 moralOther immoralSelf mismatch m n 0 0.7206 
30-May-2018_13:49:30 Exp 7329 27 male R 1 3 9 moralOther moralOther match n m 0 0.7147 
30-May-2018_13:49:33 Exp 7329 27 male R 1 3 10 immoralOther immoralSelf mismatch m m 1 0.8229 
30-May-2018_13:49:35 Exp 7329 27 male R 1 3 11 immoralSelf moralSelf mismatch m n 0 0.7490 
30-May-2018_13:49:37 Exp 7329 27 male R 1 3 12 moralSelf immoralSelf mismatch m m 1 0.8651 
30-May-2018_13:49:40 Exp 7329 27 male R 1 3 13 immoralOther immoralOther match n n 1 0.7753 
30-May-2018_13:49:43 Exp 7329 27 male R 1 3 14 moralOther moralSelf mismatch m n 0 1.0394 
30-May-2018_13:49:45 Exp 7329 27 male R 1 3 15 moralSelf moralOther mismatch m m 1 0.8655 
30-May-2018_13:49:47 Exp 7329 27 male R 1 3 16 immoralOther immoralOther match n n 1 0.6957 
30-May-2018_13:49:50 Exp 7329 27 male R 1 3 17 moralOther moralSelf mismatch m n 0 0.7758 
30-May-2018_13:49:52 Exp 7329 27 male R 1 3 18 moralSelf immoralOther mismatch m m 1 0.6640 
30-May-2018_13:49:54 Exp 7329 27 male R 1 3 19 immoralSelf immoralOther mismatch m n 0 0.8301 
30-May-2018_13:49:57 Exp 7329 27 male R 1 3 20 moralSelf moralSelf match n n 1 0.6902 
30-May-2018_13:49:59 Exp 7329 27 male R 1 3 21 immoralOther immoralSelf mismatch m m 1 0.6884 
30-May-2018_13:50:01 Exp 7329 27 male R 1 3 22 moralSelf moralSelf match n n 1 0.6645 
30-May-2018_13:50:04 Exp 7329 27 male R 1 3 23 moralOther moralOther match n m 0 0.8866 
30-May-2018_13:50:06 Exp 7329 27 male R 1 3 24 immoralOther immoralSelf mismatch m m 1 0.8408 
30-May-2018_13:50:32 Exp 7329 27 male R 1 4 1 immoralOther immoralOther match n n 1 0.6703 
30-May-2018_13:50:34 Exp 7329 27 male R 1 4 2 moralOther immoralOther mismatch m m 1 0.8104 
30-May-2018_13:50:36 Exp 7329 27 male R 1 4 3 moralSelf moralSelf match n n 1 0.6105 
30-May-2018_13:50:39 Exp 7329 27 male R 1 4 4 moralOther immoralSelf mismatch m n 0 0.7867 
30-May-2018_13:50:41 Exp 7329 27 male R 1 4 5 moralOther moralOther match n n 1 0.8808 
30-May-2018_13:50:44 Exp 7329 27 male R 1 4 6 immoralSelf immoralSelf match n m 0 0.9950 
30-May-2018_13:50:46 Exp 7329 27 male R 1 4 7 immoralOther immoralSelf mismatch m m 1 0.7831 
30-May-2018_13:50:49 Exp 7329 27 male R 1 4 8 immoralSelf immoralSelf match n n 1 1.0693 
30-May-2018_13:50:51 Exp 7329 27 male R 1 4 9 immoralSelf moralOther mismatch m m 1 0.7134 
30-May-2018_13:50:54 Exp 7329 27 male R 1 4 10 moralSelf moralSelf match n n 1 0.6695 
30-May-2018_13:50:56 Exp 7329 27 male R 1 4 11 immoralSelf moralOther mismatch m m 1 0.9057 
30-May-2018_13:50:59 Exp 7329 27 male R 1 4 12 immoralOther immoralOther match n n 1 0.8318 
30-May-2018_13:51:01 Exp 7329 27 male R 1 4 13 moralSelf immoralSelf mismatch m m 1 0.7720 
30-May-2018_13:51:03 Exp 7329 27 male R 1 4 14 immoralSelf immoralSelf match n n 1 0.6121 
30-May-2018_13:51:06 Exp 7329 27 male R 1 4 15 moralOther immoralSelf mismatch m m 1 1.0682 
30-May-2018_13:51:08 Exp 7329 27 male R 1 4 16 moralSelf immoralSelf mismatch m m 1 0.9683 
30-May-2018_13:51:11 Exp 7329 27 male R 1 4 17 immoralOther moralOther mismatch m m 1 0.6964 
30-May-2018_13:51:13 Exp 7329 27 male R 1 4 18 moralSelf moralSelf match n n 1 0.6326 
30-May-2018_13:51:15 Exp 7329 27 male R 1 4 19 moralSelf immoralOther mismatch m m 1 0.6848 
30-May-2018_13:51:18 Exp 7329 27 male R 1 4 20 moralOther moralOther match n m 0 0.7749 
30-May-2018_13:51:20 Exp 7329 27 male R 1 4 21 immoralSelf moralOther mismatch m m 1 0.7910 
30-May-2018_13:51:23 Exp 7329 27 male R 1 4 22 immoralOther immoralOther match n n 1 0.7071 
30-May-2018_13:51:25 Exp 7329 27 male R 1 4 23 immoralOther immoralSelf mismatch m m 1 0.6873 
30-May-2018_13:51:27 Exp 7329 27 male R 1 4 24 moralOther moralOther match n n 1 0.6314 
30-May-2018_13:51:29 Exp 7329 27 male R 1 5 1 moralOther moralOther match n m 0 0.6196 
30-May-2018_13:51:32 Exp 7329 27 male R 1 5 2 moralOther immoralSelf mismatch m NA -1 1.0850 
30-May-2018_13:51:34 Exp 7329 27 male R 1 5 3 moralSelf moralSelf match n n 1 0.5238 
30-May-2018_13:51:37 Exp 7329 27 male R 1 5 4 immoralSelf immoralSelf match n m 0 0.7180 
30-May-2018_13:51:39 Exp 7329 27 male R 1 5 5 immoralSelf immoralSelf match n n 1 0.5201 
30-May-2018_13:51:41 Exp 7329 27 male R 1 5 6 immoralOther immoralSelf mismatch m m 1 0.5862 
30-May-2018_13:51:43 Exp 7329 27 male R 1 5 7 moralOther immoralSelf mismatch m m 1 0.7683 
30-May-2018_13:51:46 Exp 7329 27 male R 1 5 8 moralSelf immoralSelf mismatch m m 1 0.6165 
30-May-2018_13:51:48 Exp 7329 27 male R 1 5 9 immoralOther moralSelf mismatch m m 1 0.6646 
30-May-2018_13:51:50 Exp 7329 27 male R 1 5 10 moralOther moralOther match n n 1 0.8307 
30-May-2018_13:51:53 Exp 7329 27 male R 1 5 11 immoralSelf moralSelf mismatch m n 0 0.9069 
30-May-2018_13:51:55 Exp 7329 27 male R 1 5 12 moralSelf immoralSelf mismatch m n 0 0.6890 
30-May-2018_13:51:58 Exp 7329 27 male R 1 5 13 immoralOther immoralSelf mismatch m m 1 0.7372 
30-May-2018_13:52:00 Exp 7329 27 male R 1 5 14 moralSelf moralSelf match n m 0 0.6793 
30-May-2018_13:52:02 Exp 7329 27 male R 1 5 15 moralOther moralSelf mismatch m n 0 0.8014 
30-May-2018_13:52:05 Exp 7329 27 male R 1 5 16 moralSelf moralSelf match n n 1 0.6116 
30-May-2018_13:52:07 Exp 7329 27 male R 1 5 17 immoralOther immoralOther match n m 0 0.6677 
30-May-2018_13:52:09 Exp 7329 27 male R 1 5 18 moralSelf immoralOther mismatch m n 0 0.6238 
30-May-2018_13:52:12 Exp 7329 27 male R 1 5 19 immoralSelf immoralSelf match n m 0 0.9819 
30-May-2018_13:52:14 Exp 7329 27 male R 1 5 20 moralOther moralOther match n m 0 0.7241 
30-May-2018_13:52:16 Exp 7329 27 male R 1 5 21 immoralOther immoralOther match n n 1 0.6782 
30-May-2018_13:52:19 Exp 7329 27 male R 1 5 22 immoralSelf moralSelf mismatch m n 0 0.7844 
30-May-2018_13:52:21 Exp 7329 27 male R 1 5 23 immoralOther immoralOther match n n 1 0.6865 
30-May-2018_13:52:24 Exp 7329 27 male R 1 5 24 immoralSelf immoralOther mismatch m m 1 0.8486 
30-May-2018_13:52:31 Exp 7329 27 male R 2 1 1 immoralOther immoralOther match n NA -1 1.0850 
30-May-2018_13:52:33 Exp 7329 27 male R 2 1 2 moralOther immoralSelf mismatch m m 1 0.6952 
30-May-2018_13:52:35 Exp 7329 27 male R 2 1 3 immoralSelf immoralSelf match n n 1 0.7194 
30-May-2018_13:52:38 Exp 7329 27 male R 2 1 4 immoralOther immoralSelf mismatch m m 1 0.7455 
30-May-2018_13:52:40 Exp 7329 27 male R 2 1 5 moralOther immoralOther mismatch m m 1 0.7835 
30-May-2018_13:52:43 Exp 7329 27 male R 2 1 6 moralOther moralOther match n m 0 0.9417 
30-May-2018_13:52:45 Exp 7329 27 male R 2 1 7 immoralOther immoralOther match n n 1 0.7959 
30-May-2018_13:52:47 Exp 7329 27 male R 2 1 8 moralSelf moralOther mismatch m m 1 0.5840 
30-May-2018_13:52:50 Exp 7329 27 male R 2 1 9 immoralSelf immoralOther mismatch m n 0 0.8622 
30-May-2018_13:52:52 Exp 7329 27 male R 2 1 10 immoralSelf moralSelf mismatch m m 1 0.7963 
30-May-2018_13:52:54 Exp 7329 27 male R 2 1 11 moralSelf moralOther mismatch m n 0 0.5764 
30-May-2018_13:52:57 Exp 7329 27 male R 2 1 12 moralSelf moralSelf match n n 1 1.0005 
30-May-2018_13:52:59 Exp 7329 27 male R 2 1 13 moralSelf immoralSelf mismatch m m 1 0.7067 
30-May-2018_13:53:02 Exp 7329 27 male R 2 1 14 immoralOther moralSelf mismatch m m 1 0.7608 
30-May-2018_13:53:04 Exp 7329 27 male R 2 1 15 moralSelf moralSelf match n n 1 0.8269 
30-May-2018_13:53:06 Exp 7329 27 male R 2 1 16 immoralSelf immoralSelf match n m 0 0.6571 
30-May-2018_13:53:09 Exp 7329 27 male R 2 1 17 immoralOther immoralOther match n n 1 0.7352 
30-May-2018_13:53:11 Exp 7329 27 male R 2 1 18 immoralSelf immoralOther mismatch m m 1 1.0154 
30-May-2018_13:53:14 Exp 7329 27 male R 2 1 19 immoralOther moralOther mismatch m m 1 0.7116 
30-May-2018_13:53:16 Exp 7329 27 male R 2 1 20 moralOther moralOther match n n 1 0.7236 
30-May-2018_13:53:18 Exp 7329 27 male R 2 1 21 immoralSelf immoralSelf match n m 0 0.6698 
30-May-2018_13:53:21 Exp 7329 27 male R 2 1 22 moralOther moralOther match n n 1 0.5379 
30-May-2018_13:53:23 Exp 7329 27 male R 2 1 23 moralOther immoralOther mismatch m m 1 0.8480 
30-May-2018_13:53:25 Exp 7329 27 male R 2 1 24 moralSelf moralSelf match n n 1 0.6563 
30-May-2018_13:53:28 Exp 7329 27 male R 2 2 1 moralSelf moralSelf match n n 1 0.6483 
30-May-2018_13:53:30 Exp 7329 27 male R 2 2 2 moralOther immoralSelf mismatch m m 1 0.6805 
30-May-2018_13:53:32 Exp 7329 27 male R 2 2 3 immoralSelf immoralSelf match n n 1 0.5706 
30-May-2018_13:53:34 Exp 7329 27 male R 2 2 4 moralOther immoralOther mismatch m m 1 0.6668 
30-May-2018_13:53:37 Exp 7329 27 male R 2 2 5 immoralOther immoralSelf mismatch m m 1 0.6728 
30-May-2018_13:53:39 Exp 7329 27 male R 2 2 6 moralSelf immoralOther mismatch m m 1 0.8690 
30-May-2018_13:53:42 Exp 7329 27 male R 2 2 7 immoralOther immoralOther match n n 1 0.7371 
30-May-2018_13:53:44 Exp 7329 27 male R 2 2 8 moralOther moralOther match n m 0 0.6073 
30-May-2018_13:53:46 Exp 7329 27 male R 2 2 9 immoralOther moralSelf mismatch m n 0 0.7114 
30-May-2018_13:53:49 Exp 7329 27 male R 2 2 10 moralOther immoralSelf mismatch m m 1 0.9475 
30-May-2018_13:53:51 Exp 7329 27 male R 2 2 11 moralSelf moralSelf match n n 1 0.5356 
30-May-2018_13:53:53 Exp 7329 27 male R 2 2 12 immoralOther immoralOther match n m 0 0.5518 
30-May-2018_13:53:55 Exp 7329 27 male R 2 2 13 immoralSelf moralOther mismatch m m 1 0.5719 
30-May-2018_13:53:58 Exp 7329 27 male R 2 2 14 immoralSelf immoralSelf match n m 0 0.9160 
30-May-2018_13:54:00 Exp 7329 27 male R 2 2 15 moralSelf immoralSelf mismatch m n 0 0.6082 
30-May-2018_13:54:03 Exp 7329 27 male R 2 2 16 moralOther moralOther match n m 0 0.8163 
30-May-2018_13:54:05 Exp 7329 27 male R 2 2 17 moralOther moralOther match n n 1 0.9925 
30-May-2018_13:54:08 Exp 7329 27 male R 2 2 18 immoralSelf immoralSelf match n m 0 0.8366 
30-May-2018_13:54:10 Exp 7329 27 male R 2 2 19 immoralSelf moralOther mismatch m n 0 0.6249 
30-May-2018_13:54:12 Exp 7329 27 male R 2 2 20 moralSelf moralSelf match n n 1 0.5669 
30-May-2018_13:54:14 Exp 7329 27 male R 2 2 21 immoralSelf immoralOther mismatch m m 1 0.7450 
30-May-2018_13:54:17 Exp 7329 27 male R 2 2 22 immoralOther moralOther mismatch m m 1 0.6231 
30-May-2018_13:54:19 Exp 7329 27 male R 2 2 23 immoralOther immoralOther match n n 1 0.7493 
30-May-2018_13:54:22 Exp 7329 27 male R 2 2 24 moralSelf immoralSelf mismatch m m 1 0.8334 
30-May-2018_13:54:24 Exp 7329 27 male R 2 3 1 moralSelf moralOther mismatch m n 0 0.5335 
30-May-2018_13:54:26 Exp 7329 27 male R 2 3 2 moralOther moralOther match n n 1 0.8377 
30-May-2018_13:54:28 Exp 7329 27 male R 2 3 3 immoralOther immoralOther match n m 0 0.6798 
30-May-2018_13:54:31 Exp 7329 27 male R 2 3 4 moralOther immoralOther mismatch m m 1 0.6579 
30-May-2018_13:54:33 Exp 7329 27 male R 2 3 5 moralOther moralOther match n n 1 0.8721 
30-May-2018_13:54:36 Exp 7329 27 male R 2 3 6 immoralSelf immoralSelf match n m 0 0.7722 
30-May-2018_13:54:38 Exp 7329 27 male R 2 3 7 moralOther moralSelf mismatch m n 0 0.7403 
30-May-2018_13:54:40 Exp 7329 27 male R 2 3 8 immoralSelf immoralOther mismatch m n 0 0.5545 
30-May-2018_13:54:43 Exp 7329 27 male R 2 3 9 immoralSelf immoralSelf match n m 0 0.9666 
30-May-2018_13:54:45 Exp 7329 27 male R 2 3 10 moralSelf moralSelf match n n 1 0.5768 
30-May-2018_13:54:47 Exp 7329 27 male R 2 3 11 immoralSelf immoralSelf match n m 0 0.6729 
30-May-2018_13:54:50 Exp 7329 27 male R 2 3 12 moralOther moralOther match n n 1 0.7010 
30-May-2018_13:54:52 Exp 7329 27 male R 2 3 13 moralSelf moralOther mismatch m m 1 0.8912 
30-May-2018_13:54:55 Exp 7329 27 male R 2 3 14 immoralOther moralSelf mismatch m n 0 0.9073 
30-May-2018_13:54:57 Exp 7329 27 male R 2 3 15 immoralOther moralSelf mismatch m m 1 0.6635 
30-May-2018_13:54:59 Exp 7329 27 male R 2 3 16 immoralOther moralOther mismatch m m 1 0.7816 
30-May-2018_13:55:02 Exp 7329 27 male R 2 3 17 moralSelf moralSelf match n n 1 0.6437 
30-May-2018_13:55:04 Exp 7329 27 male R 2 3 18 moralSelf moralOther mismatch m m 1 0.8138 
30-May-2018_13:55:07 Exp 7329 27 male R 2 3 19 immoralSelf moralSelf mismatch m NA -1 1.0850 
30-May-2018_13:55:09 Exp 7329 27 male R 2 3 20 immoralSelf moralSelf mismatch m n 0 0.8241 
30-May-2018_13:55:12 Exp 7329 27 male R 2 3 21 moralSelf moralSelf match n n 1 0.7423 
30-May-2018_13:55:14 Exp 7329 27 male R 2 3 22 moralOther immoralOther mismatch m m 1 0.6124 
30-May-2018_13:55:16 Exp 7329 27 male R 2 3 23 immoralOther immoralOther match n n 1 0.5725 
30-May-2018_13:55:19 Exp 7329 27 male R 2 3 24 immoralOther immoralOther match n n 1 0.8207 
30-May-2018_13:55:41 Exp 7329 27 male R 2 4 1 immoralSelf immoralSelf match n n 1 0.8119 
30-May-2018_13:55:43 Exp 7329 27 male R 2 4 2 immoralOther immoralOther match n n 1 0.7481 
30-May-2018_13:55:45 Exp 7329 27 male R 2 4 3 immoralOther immoralOther match n n 1 0.5362 
30-May-2018_13:55:48 Exp 7329 27 male R 2 4 4 immoralOther immoralSelf mismatch m m 1 0.6963 
30-May-2018_13:55:50 Exp 7329 27 male R 2 4 5 moralOther moralOther match n n 1 0.7365 
30-May-2018_13:55:52 Exp 7329 27 male R 2 4 6 immoralOther moralOther mismatch m m 1 0.6326 
30-May-2018_13:55:55 Exp 7329 27 male R 2 4 7 immoralSelf moralSelf mismatch m n 0 0.7808 
30-May-2018_13:55:57 Exp 7329 27 male R 2 4 8 moralOther immoralSelf mismatch m n 0 0.8589 
30-May-2018_13:56:00 Exp 7329 27 male R 2 4 9 moralOther moralSelf mismatch m m 1 0.6330 
30-May-2018_13:56:02 Exp 7329 27 male R 2 4 10 immoralSelf moralOther mismatch m m 1 0.6931 
30-May-2018_13:56:04 Exp 7329 27 male R 2 4 11 moralSelf immoralOther mismatch m m 1 0.7173 
30-May-2018_13:56:07 Exp 7329 27 male R 2 4 12 immoralSelf immoralSelf match n n 1 0.7594 
30-May-2018_13:56:09 Exp 7329 27 male R 2 4 13 immoralOther moralOther mismatch m m 1 0.5776 
30-May-2018_13:56:11 Exp 7329 27 male R 2 4 14 moralSelf moralSelf match n n 1 0.8157 
30-May-2018_13:56:13 Exp 7329 27 male R 2 4 15 moralSelf moralSelf match n n 1 0.5518 
30-May-2018_13:56:16 Exp 7329 27 male R 2 4 16 moralOther moralOther match n n 1 0.5960 
30-May-2018_13:56:18 Exp 7329 27 male R 2 4 17 moralSelf immoralOther mismatch m m 1 0.6721 
30-May-2018_13:56:21 Exp 7329 27 male R 2 4 18 moralOther immoralSelf mismatch m m 1 0.9082 
30-May-2018_13:56:23 Exp 7329 27 male R 2 4 19 immoralSelf immoralSelf match n n 1 0.8003 
30-May-2018_13:56:25 Exp 7329 27 male R 2 4 20 moralSelf moralSelf match n n 1 0.6825 
30-May-2018_13:56:28 Exp 7329 27 male R 2 4 21 immoralSelf moralOther mismatch m m 1 0.8446 
30-May-2018_13:56:30 Exp 7329 27 male R 2 4 22 moralOther moralOther match n m 0 0.6708 
30-May-2018_13:56:32 Exp 7329 27 male R 2 4 23 immoralOther immoralOther match n n 1 0.7629 
30-May-2018_13:56:35 Exp 7329 27 male R 2 4 24 moralSelf moralOther mismatch m m 1 0.8530 
30-May-2018_13:56:37 Exp 7329 27 male R 2 5 1 immoralSelf immoralSelf match n n 1 0.6292 
30-May-2018_13:56:40 Exp 7329 27 male R 2 5 2 immoralOther immoralSelf mismatch m m 1 0.7693 
30-May-2018_13:56:42 Exp 7329 27 male R 2 5 3 moralSelf moralSelf match n n 1 0.6174 
30-May-2018_13:56:45 Exp 7329 27 male R 2 5 4 immoralSelf immoralSelf match n n 1 1.0476 
30-May-2018_13:56:47 Exp 7329 27 male R 2 5 5 moralSelf moralSelf match n m 0 0.8797 
30-May-2018_13:56:49 Exp 7329 27 male R 2 5 6 immoralOther moralSelf mismatch m m 1 0.7059 
30-May-2018_13:56:52 Exp 7329 27 male R 2 5 7 immoralSelf immoralSelf match n n 1 0.7360 
30-May-2018_13:56:54 Exp 7329 27 male R 2 5 8 moralSelf immoralOther mismatch m m 1 0.8321 
30-May-2018_13:56:57 Exp 7329 27 male R 2 5 9 moralOther immoralOther mismatch m m 1 0.9403 
30-May-2018_13:56:59 Exp 7329 27 male R 2 5 10 immoralSelf moralOther mismatch m m 1 0.8264 
30-May-2018_13:57:02 Exp 7329 27 male R 2 5 11 moralOther moralOther match n n 1 0.7606 
30-May-2018_13:57:04 Exp 7329 27 male R 2 5 12 moralOther moralOther match n n 1 1.0587 
30-May-2018_13:57:07 Exp 7329 27 male R 2 5 13 moralOther immoralOther mismatch m m 1 0.6248 
30-May-2018_13:57:09 Exp 7329 27 male R 2 5 14 immoralSelf immoralOther mismatch m m 1 1.0390 
30-May-2018_13:57:12 Exp 7329 27 male R 2 5 15 moralSelf moralSelf match n n 1 0.7291 
30-May-2018_13:57:14 Exp 7329 27 male R 2 5 16 moralSelf immoralOther mismatch m m 1 0.6973 
30-May-2018_13:57:16 Exp 7329 27 male R 2 5 17 immoralOther immoralOther match n m 0 0.6714 
30-May-2018_13:57:19 Exp 7329 27 male R 2 5 18 immoralSelf moralOther mismatch m m 1 0.7875 
30-May-2018_13:57:21 Exp 7329 27 male R 2 5 19 moralOther moralOther match n m 0 0.7517 
30-May-2018_13:57:23 Exp 7329 27 male R 2 5 20 moralOther immoralOther mismatch m m 1 0.8438 
30-May-2018_13:57:26 Exp 7329 27 male R 2 5 21 immoralOther moralOther mismatch m m 1 0.5980 
30-May-2018_13:57:28 Exp 7329 27 male R 2 5 22 immoralOther immoralOther match n n 1 0.6001 
30-May-2018_13:57:30 Exp 7329 27 male R 2 5 23 immoralOther immoralOther match n n 1 0.7942 
30-May-2018_13:57:33 Exp 7329 27 male R 2 5 24 moralSelf moralOther mismatch m m 1 0.6943 
30-May-2018_13:57:38 Exp 7329 27 male R 3 1 1 moralSelf moralSelf match n n 1 0.5607 
30-May-2018_13:57:40 Exp 7329 27 male R 3 1 2 immoralSelf immoralSelf match n m 0 0.5868 
30-May-2018_13:57:43 Exp 7329 27 male R 3 1 3 immoralOther immoralOther match n n 1 0.7929 
30-May-2018_13:57:45 Exp 7329 27 male R 3 1 4 immoralSelf moralSelf mismatch m m 1 0.7011 
30-May-2018_13:57:47 Exp 7329 27 male R 3 1 5 moralSelf moralSelf match n n 1 0.6352 
30-May-2018_13:57:50 Exp 7329 27 male R 3 1 6 moralOther immoralSelf mismatch m NA -1 1.0850 
30-May-2018_13:57:52 Exp 7329 27 male R 3 1 7 moralOther immoralOther mismatch m n 0 0.7055 
30-May-2018_13:57:55 Exp 7329 27 male R 3 1 8 immoralOther moralOther mismatch m m 1 0.7836 
30-May-2018_13:57:57 Exp 7329 27 male R 3 1 9 moralOther moralOther match n m 0 0.7417 
30-May-2018_13:57:59 Exp 7329 27 male R 3 1 10 immoralSelf moralOther mismatch m m 1 0.8198 
30-May-2018_13:58:02 Exp 7329 27 male R 3 1 11 immoralOther immoralOther match n n 1 0.9380 
30-May-2018_13:58:04 Exp 7329 27 male R 3 1 12 moralSelf immoralOther mismatch m m 1 0.7762 
30-May-2018_13:58:07 Exp 7329 27 male R 3 1 13 immoralOther immoralOther match n n 1 0.7523 
30-May-2018_13:58:09 Exp 7329 27 male R 3 1 14 moralOther moralSelf mismatch m m 1 0.8365 
30-May-2018_13:58:11 Exp 7329 27 male R 3 1 15 immoralSelf immoralSelf match n n 1 0.6726 
30-May-2018_13:58:14 Exp 7329 27 male R 3 1 16 moralSelf moralOther mismatch m m 1 0.7807 
30-May-2018_13:58:16 Exp 7329 27 male R 3 1 17 immoralSelf immoralSelf match n n 1 0.8429 
30-May-2018_13:58:19 Exp 7329 27 male R 3 1 18 moralOther moralOther match n n 1 0.7410 
30-May-2018_13:58:21 Exp 7329 27 male R 3 1 19 immoralOther moralOther mismatch m m 1 0.7311 
30-May-2018_13:58:23 Exp 7329 27 male R 3 1 20 moralSelf moralSelf match n n 1 0.5713 
30-May-2018_13:58:26 Exp 7329 27 male R 3 1 21 immoralSelf moralOther mismatch m m 1 0.7234 
30-May-2018_13:58:28 Exp 7329 27 male R 3 1 22 moralOther moralOther match n n 1 0.6055 
30-May-2018_13:58:30 Exp 7329 27 male R 3 1 23 immoralOther moralOther mismatch m m 1 0.6557 
30-May-2018_13:58:33 Exp 7329 27 male R 3 1 24 moralSelf immoralOther mismatch m n 0 0.7918 
30-May-2018_13:58:35 Exp 7329 27 male R 3 2 1 moralSelf moralSelf match n n 1 0.7080 
30-May-2018_13:58:37 Exp 7329 27 male R 3 2 2 moralOther immoralSelf mismatch m m 1 0.7041 
30-May-2018_13:58:40 Exp 7329 27 male R 3 2 3 immoralOther moralSelf mismatch m n 0 0.7022 
30-May-2018_13:58:42 Exp 7329 27 male R 3 2 4 moralSelf moralSelf match n n 1 0.5324 
30-May-2018_13:58:44 Exp 7329 27 male R 3 2 5 moralOther moralSelf mismatch m m 1 0.6765 
30-May-2018_13:58:46 Exp 7329 27 male R 3 2 6 moralSelf moralSelf match n n 1 0.7286 
30-May-2018_13:58:49 Exp 7329 27 male R 3 2 7 moralOther immoralSelf mismatch m m 1 0.5847 
30-May-2018_13:58:51 Exp 7329 27 male R 3 2 8 moralOther moralOther match n m 0 0.7188 
30-May-2018_13:58:53 Exp 7329 27 male R 3 2 9 immoralSelf immoralSelf match n n 1 0.5370 
30-May-2018_13:58:56 Exp 7329 27 male R 3 2 10 immoralSelf moralOther mismatch m m 1 0.7931 
30-May-2018_13:58:58 Exp 7329 27 male R 3 2 11 immoralOther moralOther mismatch m m 1 0.6772 
30-May-2018_13:59:00 Exp 7329 27 male R 3 2 12 immoralSelf moralSelf mismatch m n 0 0.6234 
30-May-2018_13:59:02 Exp 7329 27 male R 3 2 13 moralSelf immoralSelf mismatch m n 0 0.4935 
30-May-2018_13:59:04 Exp 7329 27 male R 3 2 14 moralOther moralOther match n m 0 0.6456 
30-May-2018_13:59:07 Exp 7329 27 male R 3 2 15 immoralSelf immoralOther mismatch m m 1 0.8158 
30-May-2018_13:59:09 Exp 7329 27 male R 3 2 16 moralSelf immoralSelf mismatch m m 1 0.6880 
30-May-2018_13:59:11 Exp 7329 27 male R 3 2 17 immoralSelf immoralSelf match n n 1 0.5680 
30-May-2018_13:59:14 Exp 7329 27 male R 3 2 18 immoralOther immoralOther match n n 1 0.8322 
30-May-2018_13:59:16 Exp 7329 27 male R 3 2 19 moralSelf immoralSelf mismatch m m 1 0.7323 
30-May-2018_13:59:19 Exp 7329 27 male R 3 2 20 immoralOther immoralSelf mismatch m m 1 0.7565 
30-May-2018_13:59:21 Exp 7329 27 male R 3 2 21 immoralSelf immoralSelf match n n 1 0.8807 
30-May-2018_13:59:23 Exp 7329 27 male R 3 2 22 immoralOther immoralOther match n n 1 0.6348 
30-May-2018_13:59:26 Exp 7329 27 male R 3 2 23 moralOther moralOther match n n 1 0.7909 
30-May-2018_13:59:28 Exp 7329 27 male R 3 2 24 immoralOther immoralOther match n n 1 0.6990 
30-May-2018_13:59:30 Exp 7329 27 male R 3 3 1 immoralOther immoralOther match n n 1 0.6571 
30-May-2018_13:59:33 Exp 7329 27 male R 3 3 2 moralOther moralOther match n n 1 0.7352 
30-May-2018_13:59:35 Exp 7329 27 male R 3 3 3 moralOther moralSelf mismatch m m 1 0.6394 
30-May-2018_13:59:37 Exp 7329 27 male R 3 3 4 immoralOther moralOther mismatch m n 0 0.5775 
30-May-2018_13:59:40 Exp 7329 27 male R 3 3 5 immoralOther moralSelf mismatch m m 1 0.7036 
30-May-2018_13:59:42 Exp 7329 27 male R 3 3 6 moralOther immoralSelf mismatch m m 1 0.6778 
30-May-2018_13:59:45 Exp 7329 27 male R 3 3 7 moralOther moralSelf mismatch m m 1 0.9839 
30-May-2018_13:59:47 Exp 7329 27 male R 3 3 8 moralSelf immoralOther mismatch m m 1 0.7340 
30-May-2018_13:59:49 Exp 7329 27 male R 3 3 9 moralOther moralOther match n n 1 0.7422 
30-May-2018_13:59:52 Exp 7329 27 male R 3 3 10 immoralSelf immoralSelf match n n 1 0.7244 
30-May-2018_13:59:54 Exp 7329 27 male R 3 3 11 moralSelf immoralOther mismatch m m 1 0.6304 
30-May-2018_13:59:56 Exp 7329 27 male R 3 3 12 immoralOther immoralOther match n n 1 0.7466 
30-May-2018_13:59:59 Exp 7329 27 male R 3 3 13 immoralSelf moralSelf mismatch m m 1 0.9847 
30-May-2018_14:00:01 Exp 7329 27 male R 3 3 14 immoralOther moralSelf mismatch m m 1 0.7429 
30-May-2018_14:00:03 Exp 7329 27 male R 3 3 15 moralOther moralOther match n n 1 0.6050 
30-May-2018_14:00:06 Exp 7329 27 male R 3 3 16 moralSelf immoralOther mismatch m m 1 1.0151 
30-May-2018_14:00:08 Exp 7329 27 male R 3 3 17 moralSelf moralSelf match n n 1 0.7193 
30-May-2018_14:00:11 Exp 7329 27 male R 3 3 18 immoralOther immoralOther match n n 1 0.7374 
30-May-2018_14:00:13 Exp 7329 27 male R 3 3 19 immoralSelf moralOther mismatch m n 0 0.5996 
30-May-2018_14:00:15 Exp 7329 27 male R 3 3 20 immoralSelf immoralSelf match n n 1 0.6337 
30-May-2018_14:00:18 Exp 7329 27 male R 3 3 21 immoralSelf immoralSelf match n m 0 0.7579 
30-May-2018_14:00:20 Exp 7329 27 male R 3 3 22 moralSelf moralSelf match n n 1 0.4639 
30-May-2018_14:00:22 Exp 7329 27 male R 3 3 23 immoralSelf moralOther mismatch m n 0 0.5661 
30-May-2018_14:00:24 Exp 7329 27 male R 3 3 24 moralSelf moralSelf match n n 1 0.7522 
30-May-2018_14:00:34 Exp 7329 27 male R 3 4 1 immoralSelf immoralSelf match n n 1 0.5547 
30-May-2018_14:00:36 Exp 7329 27 male R 3 4 2 moralOther moralSelf mismatch m m 1 0.6869 
30-May-2018_14:00:38 Exp 7329 27 male R 3 4 3 immoralSelf moralSelf mismatch m m 1 0.8570 
30-May-2018_14:00:41 Exp 7329 27 male R 3 4 4 moralSelf moralOther mismatch m n 0 0.6251 
30-May-2018_14:00:43 Exp 7329 27 male R 3 4 5 moralOther immoralOther mismatch m m 1 0.7033 
30-May-2018_14:00:45 Exp 7329 27 male R 3 4 6 immoralOther immoralOther match n n 1 0.8294 
30-May-2018_14:00:48 Exp 7329 27 male R 3 4 7 moralSelf immoralOther mismatch m m 1 0.7296 
30-May-2018_14:00:50 Exp 7329 27 male R 3 4 8 moralOther immoralSelf mismatch m n 0 0.6497 
30-May-2018_14:00:53 Exp 7329 27 male R 3 4 9 moralSelf moralSelf match n n 1 0.7698 
30-May-2018_14:00:55 Exp 7329 27 male R 3 4 10 immoralOther immoralSelf mismatch m m 1 0.7139 
30-May-2018_14:00:57 Exp 7329 27 male R 3 4 11 immoralSelf moralOther mismatch m n 0 0.8780 
30-May-2018_14:01:00 Exp 7329 27 male R 3 4 12 moralOther moralOther match n n 1 0.8642 
30-May-2018_14:01:02 Exp 7329 27 male R 3 4 13 immoralOther moralSelf mismatch m m 1 0.6064 
30-May-2018_14:01:04 Exp 7329 27 male R 3 4 14 moralSelf moralSelf match n n 1 0.5445 
30-May-2018_14:01:07 Exp 7329 27 male R 3 4 15 immoralOther immoralOther match n n 1 0.7026 
30-May-2018_14:01:09 Exp 7329 27 male R 3 4 16 moralOther moralOther match n n 1 1.0128 
30-May-2018_14:01:12 Exp 7329 27 male R 3 4 17 moralOther moralOther match n n 1 0.6869 
30-May-2018_14:01:14 Exp 7329 27 male R 3 4 18 immoralOther immoralSelf mismatch m m 1 0.6090 
30-May-2018_14:01:16 Exp 7329 27 male R 3 4 19 immoralSelf immoralSelf match n n 1 0.9212 
30-May-2018_14:01:19 Exp 7329 27 male R 3 4 20 immoralOther immoralOther match n n 1 0.6193 
30-May-2018_14:01:21 Exp 7329 27 male R 3 4 21 moralSelf moralOther mismatch m m 1 0.6895 
30-May-2018_14:01:24 Exp 7329 27 male R 3 4 22 immoralSelf moralSelf mismatch m n 0 1.0336 
30-May-2018_14:01:26 Exp 7329 27 male R 3 4 23 immoralSelf immoralSelf match n n 1 0.7258 
30-May-2018_14:01:28 Exp 7329 27 male R 3 4 24 moralSelf moralSelf match n m 0 0.6958 
30-May-2018_14:01:30 Exp 7329 27 male R 3 5 1 immoralSelf immoralSelf match n n 1 0.4081 
30-May-2018_14:01:33 Exp 7329 27 male R 3 5 2 moralOther immoralOther mismatch m n 0 0.5841 
30-May-2018_14:01:35 Exp 7329 27 male R 3 5 3 immoralOther moralSelf mismatch m m 1 0.6943 
30-May-2018_14:01:37 Exp 7329 27 male R 3 5 4 moralOther moralOther match n n 1 0.8384 
30-May-2018_14:01:40 Exp 7329 27 male R 3 5 5 immoralOther moralSelf mismatch m m 1 0.7766 
30-May-2018_14:01:42 Exp 7329 27 male R 3 5 6 immoralOther immoralOther match n n 1 0.7526 
30-May-2018_14:01:45 Exp 7329 27 male R 3 5 7 immoralSelf immoralOther mismatch m m 1 0.8768 
30-May-2018_14:01:47 Exp 7329 27 male R 3 5 8 moralSelf moralSelf match n n 1 0.6169 
30-May-2018_14:01:49 Exp 7329 27 male R 3 5 9 moralSelf immoralSelf mismatch m m 1 0.5691 
30-May-2018_14:01:51 Exp 7329 27 male R 3 5 10 moralSelf moralSelf match n m 0 0.7932 
30-May-2018_14:01:53 Exp 7329 27 male R 3 5 11 moralOther moralOther match n n 1 0.2934 
30-May-2018_14:01:55 Exp 7329 27 male R 3 5 12 immoralOther moralOther mismatch m n 0 0.3575 
30-May-2018_14:01:58 Exp 7329 27 male R 3 5 13 immoralSelf immoralSelf match n m 0 0.5916 
30-May-2018_14:02:00 Exp 7329 27 male R 3 5 14 moralSelf moralSelf match n n 1 0.5397 
30-May-2018_14:02:02 Exp 7329 27 male R 3 5 15 moralOther immoralOther mismatch m m 1 0.8498 
30-May-2018_14:02:05 Exp 7329 27 male R 3 5 16 immoralSelf moralSelf mismatch m n 0 0.8739 
30-May-2018_14:02:07 Exp 7329 27 male R 3 5 17 moralOther moralOther match n m 0 0.6622 
30-May-2018_14:02:09 Exp 7329 27 male R 3 5 18 immoralSelf immoralSelf match n n 1 0.6922 
30-May-2018_14:02:12 Exp 7329 27 male R 3 5 19 immoralOther immoralOther match n m 0 0.7403 
30-May-2018_14:02:14 Exp 7329 27 male R 3 5 20 moralOther immoralSelf mismatch m n 0 0.7625 
30-May-2018_14:02:16 Exp 7329 27 male R 3 5 21 moralSelf moralOther mismatch m n 0 0.4686 
30-May-2018_14:02:19 Exp 7329 27 male R 3 5 22 moralSelf immoralOther mismatch m m 1 0.7048 
30-May-2018_14:02:21 Exp 7329 27 male R 3 5 23 immoralSelf moralSelf mismatch m n 0 0.8949 
30-May-2018_14:02:24 Exp 7329 27 male R 3 5 24 immoralOther immoralOther match n n 1 0.8630 
Date Prac Sub Age Sex Hand Block Bin Trial Shape Label Match CorrResp Resp ACC RT
30-May-2018_14:07:31 Exp 7329 27 male R 1 1 1 immoralOther moralSelf mismatch m n 0 0.8507 
30-May-2018_14:07:34 Exp 7329 27 male R 1 1 2 immoralOther immoralOther match n n 1 0.6008 
30-May-2018_14:07:36 Exp 7329 27 male R 1 1 3 immoralSelf immoralSelf match n n 1 0.8590 
30-May-2018_14:07:39 Exp 7329 27 male R 1 1 4 moralSelf immoralSelf mismatch m n 0 0.9212 
30-May-2018_14:07:41 Exp 7329 27 male R 1 1 5 moralOther moralOther match n n 1 0.7393 
30-May-2018_14:07:43 Exp 7329 27 male R 1 1 6 immoralSelf immoralOther mismatch m m 1 0.6174 
30-May-2018_14:07:46 Exp 7329 27 male R 1 1 7 moralOther moralOther match n n 1 0.6396 
30-May-2018_14:07:48 Exp 7329 27 male R 1 1 8 moralOther immoralOther mismatch m m 1 0.9857 
30-May-2018_14:07:51 Exp 7329 27 male R 1 1 9 immoralSelf immoralSelf match n n 1 0.8878 
30-May-2018_14:07:53 Exp 7329 27 male R 1 1 10 moralSelf moralSelf match n n 1 0.6719 
30-May-2018_14:07:55 Exp 7329 27 male R 1 1 11 moralSelf moralSelf match n n 1 0.7401 
30-May-2018_14:07:58 Exp 7329 27 male R 1 1 12 immoralOther immoralSelf mismatch m m 1 0.6742 
30-May-2018_14:08:00 Exp 7329 27 male R 1 1 13 immoralSelf moralSelf mismatch m n 0 0.6703 
30-May-2018_14:08:02 Exp 7329 27 male R 1 1 14 moralSelf immoralOther mismatch m m 1 0.7465 
30-May-2018_14:08:05 Exp 7329 27 male R 1 1 15 moralOther moralSelf mismatch m n 0 0.6967 
30-May-2018_14:08:07 Exp 7329 27 male R 1 1 16 moralSelf moralOther mismatch m m 1 0.6407 
30-May-2018_14:08:09 Exp 7329 27 male R 1 1 17 immoralOther immoralOther match n n 1 0.7789 
30-May-2018_14:08:12 Exp 7329 27 male R 1 1 18 moralOther immoralOther mismatch m m 1 0.6331 
30-May-2018_14:08:14 Exp 7329 27 male R 1 1 19 immoralOther moralOther mismatch m m 1 0.7651 
30-May-2018_14:08:16 Exp 7329 27 male R 1 1 20 immoralSelf immoralSelf match n n 1 0.8073 
30-May-2018_14:08:19 Exp 7329 27 male R 1 1 21 moralSelf moralSelf match n n 1 0.7754 
30-May-2018_14:08:21 Exp 7329 27 male R 1 1 22 immoralSelf moralOther mismatch m n 0 0.6476 
30-May-2018_14:08:23 Exp 7329 27 male R 1 1 23 moralOther moralOther match n n 1 0.6957 
30-May-2018_14:08:26 Exp 7329 27 male R 1 1 24 immoralOther immoralOther match n m 0 0.7519 
30-May-2018_14:08:28 Exp 7329 27 male R 1 2 1 immoralOther immoralOther match n n 1 0.6600 
30-May-2018_14:08:30 Exp 7329 27 male R 1 2 2 immoralOther immoralSelf mismatch m m 1 0.6421 
30-May-2018_14:08:32 Exp 7329 27 male R 1 2 3 immoralSelf immoralSelf match n n 1 0.5082 
30-May-2018_14:08:35 Exp 7329 27 male R 1 2 4 moralSelf moralSelf match n n 1 0.6883 
30-May-2018_14:08:37 Exp 7329 27 male R 1 2 5 immoralOther immoralSelf mismatch m m 1 0.5525 
30-May-2018_14:08:40 Exp 7329 27 male R 1 2 6 immoralSelf moralOther mismatch m m 1 1.0286 
30-May-2018_14:08:42 Exp 7329 27 male R 1 2 7 moralOther moralSelf mismatch m m 1 0.8008 
30-May-2018_14:08:45 Exp 7329 27 male R 1 2 8 moralOther moralOther match n n 1 0.9229 
30-May-2018_14:08:47 Exp 7329 27 male R 1 2 9 immoralOther moralOther mismatch m m 1 0.6050 
30-May-2018_14:08:49 Exp 7329 27 male R 1 2 10 moralOther immoralSelf mismatch m n 0 0.7992 
30-May-2018_14:08:52 Exp 7329 27 male R 1 2 11 immoralSelf immoralOther mismatch m n 0 0.9293 
30-May-2018_14:08:54 Exp 7329 27 male R 1 2 12 immoralOther immoralOther match n n 1 0.7934 
30-May-2018_14:08:57 Exp 7329 27 male R 1 2 13 immoralOther immoralOther match n m 0 0.6615 
30-May-2018_14:08:59 Exp 7329 27 male R 1 2 14 moralOther moralOther match n n 1 0.7398 
30-May-2018_14:09:01 Exp 7329 27 male R 1 2 15 moralSelf immoralSelf mismatch m m 1 0.5779 
30-May-2018_14:09:03 Exp 7329 27 male R 1 2 16 moralSelf moralSelf match n n 1 0.6000 
30-May-2018_14:09:06 Exp 7329 27 male R 1 2 17 immoralSelf immoralSelf match n n 1 0.5941 
30-May-2018_14:09:08 Exp 7329 27 male R 1 2 18 moralOther moralOther match n n 1 0.8462 
30-May-2018_14:09:10 Exp 7329 27 male R 1 2 19 immoralSelf immoralSelf match n m 0 0.5924 
30-May-2018_14:09:12 Exp 7329 27 male R 1 2 20 moralOther moralSelf mismatch m n 0 0.5246 
30-May-2018_14:09:15 Exp 7329 27 male R 1 2 21 moralSelf immoralOther mismatch m m 1 0.7267 
30-May-2018_14:09:17 Exp 7329 27 male R 1 2 22 moralSelf moralSelf match n n 1 0.6168 
30-May-2018_14:09:19 Exp 7329 27 male R 1 2 23 immoralSelf moralOther mismatch m m 1 0.6729 
30-May-2018_14:09:22 Exp 7329 27 male R 1 2 24 moralSelf moralOther mismatch m m 1 0.6530 
Date Prac Sub Age Sex Hand Block Bin Trial Shape Label Match CorrResp Resp ACC RT
30-May-2018_14:14:33 Exp 7329 27 male R 1 1 1 immoralOther immoralOther match n n 1 0.7329 
30-May-2018_14:14:36 Exp 7329 27 male R 1 1 2 moralSelf moralOther mismatch m m 1 0.8350 
30-May-2018_14:14:38 Exp 7329 27 male R 1 1 3 immoralSelf immoralSelf match n n 1 0.8872 
30-May-2018_14:14:41 Exp 7329 27 male R 1 1 4 moralSelf immoralOther mismatch m m 1 0.7753 
30-May-2018_14:14:43 Exp 7329 27 male R 1 1 5 immoralSelf immoralSelf match n n 1 0.6235 
30-May-2018_14:14:46 Exp 7329 27 male R 1 1 6 moralSelf moralSelf match n n 1 0.9177 
30-May-2018_14:14:48 Exp 7329 27 male R 1 1 7 immoralOther moralOther mismatch m m 1 0.6958 
30-May-2018_14:14:50 Exp 7329 27 male R 1 1 8 moralOther moralOther match n n 1 0.6719 
30-May-2018_14:14:52 Exp 7329 27 male R 1 1 9 immoralOther immoralSelf mismatch m m 1 0.6360 
30-May-2018_14:14:55 Exp 7329 27 male R 1 1 10 moralOther immoralOther mismatch m n 0 0.5842 
30-May-2018_14:14:57 Exp 7329 27 male R 1 1 11 immoralOther immoralOther match n n 1 0.6943 
30-May-2018_14:14:59 Exp 7329 27 male R 1 1 12 moralOther immoralSelf mismatch m m 1 0.6464 
30-May-2018_14:15:02 Exp 7329 27 male R 1 1 13 moralSelf moralSelf match n n 1 0.7286 
30-May-2018_14:15:04 Exp 7329 27 male R 1 1 14 immoralOther immoralSelf mismatch m m 1 0.6806 
30-May-2018_14:15:06 Exp 7329 27 male R 1 1 15 immoralSelf immoralSelf match n n 1 0.7868 
30-May-2018_14:15:09 Exp 7329 27 male R 1 1 16 moralOther moralOther match n n 1 0.7690 
30-May-2018_14:15:11 Exp 7329 27 male R 1 1 17 immoralOther immoralOther match n n 1 0.7612 
30-May-2018_14:15:13 Exp 7329 27 male R 1 1 18 moralOther moralSelf mismatch m n 0 0.7632 
30-May-2018_14:15:16 Exp 7329 27 male R 1 1 19 moralSelf moralSelf match n n 1 0.6134 
30-May-2018_14:15:18 Exp 7329 27 male R 1 1 20 immoralSelf moralOther mismatch m m 1 0.8535 
30-May-2018_14:15:21 Exp 7329 27 male R 1 1 21 moralSelf immoralSelf mismatch m m 1 0.7977 
30-May-2018_14:15:23 Exp 7329 27 male R 1 1 22 immoralSelf moralOther mismatch m n 0 0.6317 
30-May-2018_14:15:25 Exp 7329 27 male R 1 1 23 moralOther moralOther match n n 1 0.7479 
30-May-2018_14:15:28 Exp 7329 27 male R 1 1 24 immoralSelf moralOther mismatch m m 1 0.8720 
30-May-2018_14:15:30 Exp 7329 27 male R 1 2 1 immoralOther immoralSelf mismatch m m 1 0.8202 
30-May-2018_14:15:33 Exp 7329 27 male R 1 2 2 moralSelf moralSelf match n n 1 0.7623 
30-May-2018_14:15:35 Exp 7329 27 male R 1 2 3 moralSelf immoralOther mismatch m m 1 0.5805 
30-May-2018_14:15:37 Exp 7329 27 male R 1 2 4 immoralOther immoralOther match n n 1 0.7225 
30-May-2018_14:15:39 Exp 7329 27 male R 1 2 5 moralOther moralOther match n n 1 0.6848 
30-May-2018_14:15:42 Exp 7329 27 male R 1 2 6 moralSelf moralSelf match n n 1 0.6948 
30-May-2018_14:15:44 Exp 7329 27 male R 1 2 7 immoralOther immoralSelf mismatch m m 1 0.6469 
30-May-2018_14:15:46 Exp 7329 27 male R 1 2 8 immoralOther immoralOther match n n 1 0.5611 
30-May-2018_14:15:48 Exp 7329 27 male R 1 2 9 immoralSelf moralSelf mismatch m m 1 0.5873 
30-May-2018_14:15:51 Exp 7329 27 male R 1 2 10 moralOther immoralOther mismatch m n 0 0.7194 
30-May-2018_14:15:53 Exp 7329 27 male R 1 2 11 moralSelf moralOther mismatch m m 1 0.6255 
30-May-2018_14:15:55 Exp 7329 27 male R 1 2 12 immoralSelf immoralSelf match n n 1 0.8156 
30-May-2018_14:15:58 Exp 7329 27 male R 1 2 13 moralSelf immoralSelf mismatch m n 0 0.6158 
30-May-2018_14:16:00 Exp 7329 27 male R 1 2 14 immoralSelf immoralOther mismatch m m 1 0.7759 
30-May-2018_14:16:02 Exp 7329 27 male R 1 2 15 immoralSelf immoralSelf match n n 1 0.7201 
30-May-2018_14:16:05 Exp 7329 27 male R 1 2 16 moralOther moralOther match n n 1 0.6422 
30-May-2018_14:16:07 Exp 7329 27 male R 1 2 17 immoralSelf moralOther mismatch m NA -1 1.0850 
30-May-2018_14:16:10 Exp 7329 27 male R 1 2 18 moralOther immoralSelf mismatch m n 0 0.5905 
30-May-2018_14:16:12 Exp 7329 27 male R 1 2 19 immoralOther immoralOther match n n 1 0.7306 
30-May-2018_14:16:14 Exp 7329 27 male R 1 2 20 moralOther moralOther match n m 0 0.6507 
30-May-2018_14:16:17 Exp 7329 27 male R 1 2 21 moralOther immoralOther mismatch m n 0 0.6269 
30-May-2018_14:16:19 Exp 7329 27 male R 1 2 22 immoralOther immoralSelf mismatch m m 1 0.5930 
30-May-2018_14:16:21 Exp 7329 27 male R 1 2 23 moralSelf moralSelf match n n 1 0.5731 
30-May-2018_14:16:23 Exp 7329 27 male R 1 2 24 immoralSelf immoralSelf match n m 0 0.6612 
Date Prac Sub Age Sex Hand Block Bin Trial Shape Label Match CorrResp Resp ACC RT
30-May-2018_14:21:00 Exp 7329 27 male R 1 1 1 moralOther moralOther match n m 0 0.7231 
30-May-2018_14:21:02 Exp 7329 27 male R 1 1 2 immoralSelf immoralOther mismatch m n 0 0.7492 
30-May-2018_14:21:05 Exp 7329 27 male R 1 1 3 immoralOther immoralOther match n n 1 0.7214 
30-May-2018_14:21:07 Exp 7329 27 male R 1 1 4 moralSelf moralSelf match n n 1 0.5075 
30-May-2018_14:21:09 Exp 7329 27 male R 1 1 5 immoralSelf moralOther mismatch m m 1 0.8157 
30-May-2018_14:21:12 Exp 7329 27 male R 1 1 6 moralSelf immoralSelf mismatch m m 1 0.6958 
30-May-2018_14:21:14 Exp 7329 27 male R 1 1 7 moralSelf moralOther mismatch m m 1 0.6399 
30-May-2018_14:21:16 Exp 7329 27 male R 1 1 8 immoralSelf moralSelf mismatch m m 1 0.8820 
30-May-2018_14:21:19 Exp 7329 27 male R 1 1 9 immoralOther moralOther mismatch m m 1 0.6522 
30-May-2018_14:21:21 Exp 7329 27 male R 1 1 10 moralSelf moralSelf match n n 1 0.6043 
30-May-2018_14:21:23 Exp 7329 27 male R 1 1 11 immoralOther immoralOther match n n 1 0.8224 
30-May-2018_14:21:26 Exp 7329 27 male R 1 1 12 immoralSelf immoralSelf match n m 0 0.8286 
30-May-2018_14:21:28 Exp 7329 27 male R 1 1 13 moralOther moralOther match n n 1 0.6727 
30-May-2018_14:21:30 Exp 7329 27 male R 1 1 14 immoralOther immoralOther match n n 1 0.6209 
30-May-2018_14:21:33 Exp 7329 27 male R 1 1 15 moralOther immoralSelf mismatch m NA -1 1.0850 
30-May-2018_14:21:35 Exp 7329 27 male R 1 1 16 moralOther immoralSelf mismatch m m 1 0.5491 
30-May-2018_14:21:37 Exp 7329 27 male R 1 1 17 moralOther immoralOther mismatch m n 0 0.5373 
30-May-2018_14:21:40 Exp 7329 27 male R 1 1 18 immoralOther immoralSelf mismatch m m 1 0.5755 
30-May-2018_14:21:42 Exp 7329 27 male R 1 1 19 immoralSelf immoralSelf match n n 1 0.7355 
30-May-2018_14:21:44 Exp 7329 27 male R 1 1 20 moralSelf immoralOther mismatch m m 1 0.7437 
30-May-2018_14:21:47 Exp 7329 27 male R 1 1 21 immoralOther moralOther mismatch m NA -1 1.0850 
30-May-2018_14:21:49 Exp 7329 27 male R 1 1 22 immoralSelf immoralSelf match n n 1 0.8320 
30-May-2018_14:21:52 Exp 7329 27 male R 1 1 23 moralSelf moralSelf match n n 1 0.7161 
30-May-2018_14:21:54 Exp 7329 27 male R 1 1 24 moralOther moralOther match n m 0 0.7282 
30-May-2018_14:21:56 Exp 7329 27 male R 1 2 1 immoralSelf immoralSelf match n n 1 0.7044 
30-May-2018_14:21:59 Exp 7329 27 male R 1 2 2 moralSelf moralSelf match n n 1 0.6465 
30-May-2018_14:22:01 Exp 7329 27 male R 1 2 3 moralOther moralOther match n n 1 0.6646 
30-May-2018_14:22:03 Exp 7329 27 male R 1 2 4 moralOther moralSelf mismatch m n 0 0.7988 
30-May-2018_14:22:06 Exp 7329 27 male R 1 2 5 moralOther moralSelf mismatch m m 1 0.6409 
30-May-2018_14:22:08 Exp 7329 27 male R 1 2 6 moralOther moralSelf mismatch m m 1 0.6510 
30-May-2018_14:22:10 Exp 7329 27 male R 1 2 7 immoralOther immoralSelf mismatch m m 1 0.6431 
30-May-2018_14:22:13 Exp 7329 27 male R 1 2 8 immoralOther immoralOther match n n 1 0.7014 
30-May-2018_14:22:15 Exp 7329 27 male R 1 2 9 moralOther moralOther match n n 1 0.7954 
30-May-2018_14:22:17 Exp 7329 27 male R 1 2 10 moralSelf moralSelf match n n 1 0.6236 
30-May-2018_14:22:20 Exp 7329 27 male R 1 2 11 immoralSelf immoralOther mismatch m m 1 0.8937 
30-May-2018_14:22:22 Exp 7329 27 male R 1 2 12 moralSelf moralOther mismatch m m 1 0.6698 
30-May-2018_14:22:24 Exp 7329 27 male R 1 2 13 moralOther moralOther match n m 0 0.6100 
30-May-2018_14:22:27 Exp 7329 27 male R 1 2 14 immoralOther immoralOther match n n 1 0.6181 
30-May-2018_14:22:29 Exp 7329 27 male R 1 2 15 immoralSelf immoralOther mismatch m m 1 0.6482 
30-May-2018_14:22:31 Exp 7329 27 male R 1 2 16 immoralOther immoralSelf mismatch m n 0 0.7603 
30-May-2018_14:22:34 Exp 7329 27 male R 1 2 17 immoralOther immoralOther match n n 1 0.6985 
30-May-2018_14:22:36 Exp 7329 27 male R 1 2 18 moralSelf moralOther mismatch m m 1 0.7926 
30-May-2018_14:22:38 Exp 7329 27 male R 1 2 19 moralSelf moralSelf match n n 1 0.6928 
30-May-2018_14:22:41 Exp 7329 27 male R 1 2 20 immoralSelf moralOther mismatch m m 1 0.6690 
30-May-2018_14:22:43 Exp 7329 27 male R 1 2 21 moralSelf moralOther mismatch m n 0 0.5530 
30-May-2018_14:22:45 Exp 7329 27 male R 1 2 22 immoralSelf immoralSelf match n n 1 0.7971 
30-May-2018_14:22:47 Exp 7329 27 male R 1 2 23 immoralOther moralSelf mismatch m m 1 0.6393 
30-May-2018_14:22:50 Exp 7329 27 male R 1 2 24 immoralSelf immoralSelf match n n 1 0.5775 
Date Prac Sub Age Sex Hand Block Bin Trial Shape Label Match CorrResp Resp ACC RT
30-May-2018_14:27:16 Exp 7329 27 male R 1 1 1 moralOther moralOther match n n 1 0.5767 
30-May-2018_14:27:18 Exp 7329 27 male R 1 1 2 moralOther immoralSelf mismatch m m 1 0.5769 
30-May-2018_14:27:20 Exp 7329 27 male R 1 1 3 moralSelf immoralOther mismatch m m 1 0.7370 
30-May-2018_14:27:23 Exp 7329 27 male R 1 1 4 moralSelf moralSelf match n n 1 0.7292 
30-May-2018_14:27:25 Exp 7329 27 male R 1 1 5 moralSelf immoralSelf mismatch m n 0 0.8732 
30-May-2018_14:27:28 Exp 7329 27 male R 1 1 6 immoralOther immoralSelf mismatch m m 1 0.7494 
30-May-2018_14:27:30 Exp 7329 27 male R 1 1 7 immoralSelf moralSelf mismatch m n 0 0.5935 
30-May-2018_14:27:32 Exp 7329 27 male R 1 1 8 immoralSelf moralOther mismatch m m 1 0.8137 
30-May-2018_14:27:35 Exp 7329 27 male R 1 1 9 immoralSelf immoralOther mismatch m m 1 0.7658 
30-May-2018_14:27:37 Exp 7329 27 male R 1 1 10 immoralOther immoralOther match n n 1 0.6960 
30-May-2018_14:27:40 Exp 7329 27 male R 1 1 11 immoralOther moralOther mismatch m n 0 0.8161 
30-May-2018_14:27:42 Exp 7329 27 male R 1 1 12 moralSelf moralSelf match n n 1 0.6482 
30-May-2018_14:27:44 Exp 7329 27 male R 1 1 13 immoralOther immoralOther match n n 1 0.7683 
30-May-2018_14:27:47 Exp 7329 27 male R 1 1 14 moralSelf immoralOther mismatch m m 1 0.7445 
30-May-2018_14:27:49 Exp 7329 27 male R 1 1 15 moralOther moralOther match n n 1 0.6626 
30-May-2018_14:27:51 Exp 7329 27 male R 1 1 16 immoralSelf immoralSelf match n n 1 0.7088 
30-May-2018_14:27:54 Exp 7329 27 male R 1 1 17 moralOther immoralOther mismatch m m 1 0.6809 
30-May-2018_14:27:56 Exp 7329 27 male R 1 1 18 immoralOther moralOther mismatch m m 1 0.7790 
30-May-2018_14:27:58 Exp 7329 27 male R 1 1 19 moralOther moralOther match n n 1 0.7611 
30-May-2018_14:28:01 Exp 7329 27 male R 1 1 20 immoralOther immoralOther match n n 1 0.7073 
30-May-2018_14:28:03 Exp 7329 27 male R 1 1 21 moralSelf moralSelf match n n 1 0.6394 
30-May-2018_14:28:05 Exp 7329 27 male R 1 1 22 immoralSelf immoralSelf match n m 0 0.6256 
30-May-2018_14:28:07 Exp 7329 27 male R 1 1 23 immoralSelf immoralSelf match n n 1 0.3437 
30-May-2018_14:28:10 Exp 7329 27 male R 1 1 24 moralOther moralSelf mismatch m m 1 0.8459 
30-May-2018_14:28:12 Exp 7329 27 male R 1 2 1 moralSelf moralSelf match n n 1 0.5440 
30-May-2018_14:28:14 Exp 7329 27 male R 1 2 2 immoralOther immoralSelf mismatch m n 0 0.6301 
30-May-2018_14:28:17 Exp 7329 27 male R 1 2 3 immoralSelf immoralSelf match n n 1 0.8822 
30-May-2018_14:28:19 Exp 7329 27 male R 1 2 4 immoralSelf immoralSelf match n NA -1 1.0850 
30-May-2018_14:28:21 Exp 7329 27 male R 1 2 5 immoralSelf immoralSelf match n n 1 0.3345 
30-May-2018_14:28:24 Exp 7329 27 male R 1 2 6 moralSelf immoralOther mismatch m n 0 0.8546 
30-May-2018_14:28:26 Exp 7329 27 male R 1 2 7 immoralOther immoralSelf mismatch m NA -1 1.0850 
30-May-2018_14:28:28 Exp 7329 27 male R 1 2 8 immoralOther immoralOther match n m 0 0.4090 
30-May-2018_14:28:31 Exp 7329 27 male R 1 2 9 moralOther moralOther match n n 1 0.5451 
30-May-2018_14:28:33 Exp 7329 27 male R 1 2 10 moralOther moralOther match n n 1 0.5992 
30-May-2018_14:28:35 Exp 7329 27 male R 1 2 11 immoralOther immoralOther match n n 1 0.7373 
30-May-2018_14:28:38 Exp 7329 27 male R 1 2 12 moralOther moralSelf mismatch m m 1 0.7194 
30-May-2018_14:28:40 Exp 7329 27 male R 1 2 13 moralOther immoralSelf mismatch m m 1 0.7615 
30-May-2018_14:28:42 Exp 7329 27 male R 1 2 14 moralSelf immoralOther mismatch m m 1 0.6198 
30-May-2018_14:28:44 Exp 7329 27 male R 1 2 15 moralSelf immoralOther mismatch m m 1 0.5938 
30-May-2018_14:28:47 Exp 7329 27 male R 1 2 16 moralOther moralOther match n n 1 0.6060 
30-May-2018_14:28:49 Exp 7329 27 male R 1 2 17 moralSelf moralSelf match n n 1 0.8481 
30-May-2018_14:28:51 Exp 7329 27 male R 1 2 18 moralOther immoralSelf mismatch m m 1 0.4882 
30-May-2018_14:28:54 Exp 7329 27 male R 1 2 19 immoralOther immoralOther match n n 1 0.7684 
30-May-2018_14:28:56 Exp 7329 27 male R 1 2 20 immoralSelf moralOther mismatch m m 1 0.6164 
30-May-2018_14:28:58 Exp 7329 27 male R 1 2 21 immoralSelf moralOther mismatch m n 0 0.5606 
30-May-2018_14:29:00 Exp 7329 27 male R 1 2 22 moralSelf moralSelf match n n 1 0.4348 
30-May-2018_14:29:02 Exp 7329 27 male R 1 2 23 immoralSelf immoralOther mismatch m m 1 0.5669 
30-May-2018_14:29:05 Exp 7329 27 male R 1 2 24 immoralOther moralOther mismatch m m 1 0.7210 
Date Prac Sub Age Sex Hand Block Bin Trial Shape Label Match CorrResp Resp ACC RT
30-May-2018_14:33:25 Exp 7329 27 male R 1 1 1 immoralSelf immoralSelf match n n 1 0.8179 
30-May-2018_14:33:27 Exp 7329 27 male R 1 1 2 moralSelf immoralSelf mismatch m m 1 0.7281 
30-May-2018_14:33:30 Exp 7329 27 male R 1 1 3 immoralOther immoralOther match n n 1 0.7602 
30-May-2018_14:33:32 Exp 7329 27 male R 1 1 4 moralOther immoralSelf mismatch m m 1 0.7223 
30-May-2018_14:33:34 Exp 7329 27 male R 1 1 5 moralSelf moralSelf match n n 1 0.6845 
30-May-2018_14:33:36 Exp 7329 27 male R 1 1 6 moralSelf moralSelf match n n 1 0.5665 
30-May-2018_14:33:39 Exp 7329 27 male R 1 1 7 moralSelf immoralSelf mismatch m m 1 0.6167 
30-May-2018_14:33:41 Exp 7329 27 male R 1 1 8 immoralSelf moralOther mismatch m m 1 0.8249 
30-May-2018_14:33:43 Exp 7329 27 male R 1 1 9 moralOther moralOther match n n 1 0.6150 
30-May-2018_14:33:46 Exp 7329 27 male R 1 1 10 moralSelf moralSelf match n n 1 0.5911 
30-May-2018_14:33:48 Exp 7329 27 male R 1 1 11 immoralOther moralOther mismatch m m 1 0.5713 
30-May-2018_14:33:50 Exp 7329 27 male R 1 1 12 moralOther moralSelf mismatch m n 0 0.4914 
30-May-2018_14:33:52 Exp 7329 27 male R 1 1 13 immoralSelf immoralSelf match n n 1 0.6355 
30-May-2018_14:33:54 Exp 7329 27 male R 1 1 14 immoralOther moralSelf mismatch m m 1 0.5436 
30-May-2018_14:33:56 Exp 7329 27 male R 1 1 15 moralOther moralOther match n n 1 0.5418 
30-May-2018_14:33:59 Exp 7329 27 male R 1 1 16 moralOther immoralOther mismatch m m 1 0.5639 
30-May-2018_14:34:01 Exp 7329 27 male R 1 1 17 immoralSelf immoralOther mismatch m m 1 0.8300 
30-May-2018_14:34:03 Exp 7329 27 male R 1 1 18 immoralOther immoralOther match n n 1 0.7062 
30-May-2018_14:34:06 Exp 7329 27 male R 1 1 19 immoralOther immoralOther match n n 1 0.6482 
30-May-2018_14:34:08 Exp 7329 27 male R 1 1 20 immoralSelf immoralSelf match n n 1 0.7444 
30-May-2018_14:34:10 Exp 7329 27 male R 1 1 21 immoralSelf moralOther mismatch m m 1 0.5505 
30-May-2018_14:34:12 Exp 7329 27 male R 1 1 22 moralOther moralOther match n n 1 0.4987 
30-May-2018_14:34:15 Exp 7329 27 male R 1 1 23 moralSelf moralOther mismatch m n 0 0.5768 
30-May-2018_14:34:17 Exp 7329 27 male R 1 1 24 immoralOther moralOther mismatch m m 1 0.5530 
30-May-2018_14:34:19 Exp 7329 27 male R 1 2 1 immoralOther immoralOther match n n 1 0.6851 
30-May-2018_14:34:21 Exp 7329 27 male R 1 2 2 immoralSelf immoralSelf match n m 0 0.6712 
30-May-2018_14:34:24 Exp 7329 27 male R 1 2 3 immoralOther immoralOther match n n 1 0.5313 
30-May-2018_14:34:26 Exp 7329 27 male R 1 2 4 moralSelf immoralOther mismatch m n 0 0.6914 
30-May-2018_14:34:28 Exp 7329 27 male R 1 2 5 immoralOther moralOther mismatch m n 0 0.5075 
30-May-2018_14:34:30 Exp 7329 27 male R 1 2 6 immoralSelf moralOther mismatch m m 1 0.6557 
30-May-2018_14:34:32 Exp 7329 27 male R 1 2 7 moralSelf moralSelf match n n 1 0.5358 
30-May-2018_14:34:35 Exp 7329 27 male R 1 2 8 immoralSelf immoralSelf match n n 1 0.8559 
30-May-2018_14:34:37 Exp 7329 27 male R 1 2 9 immoralSelf moralSelf mismatch m m 1 0.8320 
30-May-2018_14:34:40 Exp 7329 27 male R 1 2 10 moralSelf immoralOther mismatch m m 1 0.7162 
30-May-2018_14:34:42 Exp 7329 27 male R 1 2 11 moralOther moralOther match n n 1 0.5763 
30-May-2018_14:34:44 Exp 7329 27 male R 1 2 12 moralOther immoralSelf mismatch m m 1 0.5845 
30-May-2018_14:34:46 Exp 7329 27 male R 1 2 13 moralSelf immoralSelf mismatch m n 0 0.5986 
30-May-2018_14:34:49 Exp 7329 27 male R 1 2 14 moralOther moralOther match n n 1 0.6167 
30-May-2018_14:34:51 Exp 7329 27 male R 1 2 15 immoralSelf immoralOther mismatch m m 1 0.6729 
30-May-2018_14:34:53 Exp 7329 27 male R 1 2 16 moralSelf moralSelf match n n 1 0.5891 
30-May-2018_14:34:55 Exp 7329 27 male R 1 2 17 moralOther moralSelf mismatch m m 1 0.6651 
30-May-2018_14:34:58 Exp 7329 27 male R 1 2 18 immoralOther moralOther mismatch m n 0 0.4793 
30-May-2018_14:35:00 Exp 7329 27 male R 1 2 19 immoralOther immoralOther match n n 1 0.7454 
30-May-2018_14:35:02 Exp 7329 27 male R 1 2 20 immoralSelf immoralSelf match n n 1 0.7196 
30-May-2018_14:35:04 Exp 7329 27 male R 1 2 21 moralOther moralOther match n n 1 0.5536 
30-May-2018_14:35:07 Exp 7329 27 male R 1 2 22 moralOther immoralSelf mismatch m m 1 0.6858 
30-May-2018_14:35:09 Exp 7329 27 male R 1 2 23 moralSelf moralSelf match n n 1 0.4879 
30-May-2018_14:35:11 Exp 7329 27 male R 1 2 24 immoralOther immoralSelf mismatch m m 1 0.5603 
