Date Prac Sub Age Sex Hand Block Bin Trial Shape Label Match CorrResp Resp ACC RT
02-Jun-2018_13:47:44 Exp 73370 18 female R 1 1 1 moralSelf immoralOther mismatch m m 1 0.7396 
02-Jun-2018_13:47:46 Exp 73370 18 female R 1 1 2 moralOther immoralOther mismatch m m 1 0.6034 
02-Jun-2018_13:47:48 Exp 73370 18 female R 1 1 3 moralOther moralOther match n m 0 0.4802 
02-Jun-2018_13:47:50 Exp 73370 18 female R 1 1 4 immoralSelf immoralOther mismatch m m 1 0.7385 
02-Jun-2018_13:47:53 Exp 73370 18 female R 1 1 5 moralOther moralOther match n m 0 0.7863 
02-Jun-2018_13:47:55 Exp 73370 18 female R 1 1 6 immoralSelf immoralSelf match n m 0 0.7308 
02-Jun-2018_13:47:58 Exp 73370 18 female R 1 1 7 immoralOther immoralOther match n n 1 0.9583 
02-Jun-2018_13:48:00 Exp 73370 18 female R 1 1 8 immoralOther immoralOther match n n 1 0.5701 
02-Jun-2018_13:48:02 Exp 73370 18 female R 1 1 9 immoralSelf immoralOther mismatch m m 1 0.6501 
02-Jun-2018_13:48:05 Exp 73370 18 female R 1 1 10 immoralSelf immoralSelf match n n 1 0.8558 
02-Jun-2018_13:48:07 Exp 73370 18 female R 1 1 11 moralSelf moralSelf match n n 1 0.4658 
02-Jun-2018_13:48:09 Exp 73370 18 female R 1 1 12 moralSelf moralOther mismatch m m 1 0.6359 
02-Jun-2018_13:48:12 Exp 73370 18 female R 1 1 13 moralOther moralOther match n n 1 1.0373 
02-Jun-2018_13:48:14 Exp 73370 18 female R 1 1 14 moralOther immoralOther mismatch m m 1 0.5508 
02-Jun-2018_13:48:16 Exp 73370 18 female R 1 1 15 immoralSelf moralSelf mismatch m m 1 0.8987 
02-Jun-2018_13:48:19 Exp 73370 18 female R 1 1 16 immoralOther immoralSelf mismatch m m 1 0.8334 
02-Jun-2018_13:48:21 Exp 73370 18 female R 1 1 17 immoralSelf immoralSelf match n n 1 0.9709 
02-Jun-2018_13:48:24 Exp 73370 18 female R 1 1 18 moralOther immoralOther mismatch m n 0 0.7871 
02-Jun-2018_13:48:26 Exp 73370 18 female R 1 1 19 moralSelf moralOther mismatch m m 1 0.6756 
02-Jun-2018_13:48:29 Exp 73370 18 female R 1 1 20 immoralOther moralOther mismatch m m 1 1.0818 
02-Jun-2018_13:48:31 Exp 73370 18 female R 1 1 21 immoralOther immoralOther match n n 1 0.8522 
02-Jun-2018_13:48:34 Exp 73370 18 female R 1 1 22 moralSelf moralSelf match n n 1 0.5460 
02-Jun-2018_13:48:36 Exp 73370 18 female R 1 1 23 immoralOther immoralSelf mismatch m m 1 0.9377 
02-Jun-2018_13:48:39 Exp 73370 18 female R 1 1 24 moralSelf moralSelf match n n 1 0.9491 
02-Jun-2018_13:48:41 Exp 73370 18 female R 1 2 1 moralSelf moralSelf match n n 1 0.6447 
02-Jun-2018_13:48:43 Exp 73370 18 female R 1 2 2 immoralOther immoralOther match n n 1 0.7624 
02-Jun-2018_13:48:46 Exp 73370 18 female R 1 2 3 immoralSelf immoralSelf match n m 0 0.7305 
02-Jun-2018_13:48:48 Exp 73370 18 female R 1 2 4 immoralSelf moralOther mismatch m NA -1 1.0841 
02-Jun-2018_13:48:51 Exp 73370 18 female R 1 2 5 moralOther moralOther match n n 1 0.8083 
02-Jun-2018_13:48:53 Exp 73370 18 female R 1 2 6 moralOther moralSelf mismatch m n 0 0.3972 
02-Jun-2018_13:48:55 Exp 73370 18 female R 1 2 7 immoralSelf moralSelf mismatch m m 1 0.6179 
02-Jun-2018_13:48:57 Exp 73370 18 female R 1 2 8 immoralOther moralSelf mismatch m m 1 0.6110 
02-Jun-2018_13:49:00 Exp 73370 18 female R 1 2 9 immoralOther immoralOther match n n 1 0.6121 
02-Jun-2018_13:49:02 Exp 73370 18 female R 1 2 10 immoralSelf immoralSelf match n n 1 0.9331 
02-Jun-2018_13:49:05 Exp 73370 18 female R 1 2 11 immoralSelf moralOther mismatch m m 1 0.6404 
02-Jun-2018_13:49:07 Exp 73370 18 female R 1 2 12 immoralOther immoralSelf mismatch m m 1 0.9140 
02-Jun-2018_13:49:09 Exp 73370 18 female R 1 2 13 moralOther moralOther match n m 0 0.7810 
02-Jun-2018_13:49:12 Exp 73370 18 female R 1 2 14 immoralSelf immoralSelf match n n 1 0.7292 
02-Jun-2018_13:49:14 Exp 73370 18 female R 1 2 15 moralSelf immoralSelf mismatch m m 1 0.8366 
02-Jun-2018_13:49:17 Exp 73370 18 female R 1 2 16 moralOther moralOther match n n 1 0.7902 
02-Jun-2018_13:49:19 Exp 73370 18 female R 1 2 17 moralOther immoralSelf mismatch m m 1 0.7187 
02-Jun-2018_13:49:21 Exp 73370 18 female R 1 2 18 moralSelf immoralSelf mismatch m m 1 0.7660 
02-Jun-2018_13:49:24 Exp 73370 18 female R 1 2 19 moralOther immoralSelf mismatch m n 0 0.9581 
02-Jun-2018_13:49:27 Exp 73370 18 female R 1 2 20 immoralOther immoralOther match n n 1 0.9138 
02-Jun-2018_13:49:29 Exp 73370 18 female R 1 2 21 moralSelf moralSelf match n n 1 0.5968 
02-Jun-2018_13:49:31 Exp 73370 18 female R 1 2 22 moralSelf moralSelf match n n 1 0.5493 
02-Jun-2018_13:49:33 Exp 73370 18 female R 1 2 23 moralSelf immoralOther mismatch m m 1 0.5969 
02-Jun-2018_13:49:36 Exp 73370 18 female R 1 2 24 immoralOther immoralSelf mismatch m m 1 0.9575 
02-Jun-2018_13:49:38 Exp 73370 18 female R 1 3 1 moralOther moralOther match n n 1 0.7933 
02-Jun-2018_13:49:41 Exp 73370 18 female R 1 3 2 immoralSelf immoralSelf match n m 0 0.9379 
02-Jun-2018_13:49:43 Exp 73370 18 female R 1 3 3 immoralSelf immoralOther mismatch m m 1 0.8133 
02-Jun-2018_13:49:45 Exp 73370 18 female R 1 3 4 moralSelf moralSelf match n n 1 0.5584 
02-Jun-2018_13:49:48 Exp 73370 18 female R 1 3 5 immoralSelf immoralSelf match n n 1 0.8902 
02-Jun-2018_13:49:50 Exp 73370 18 female R 1 3 6 immoralSelf immoralSelf match n n 1 0.6527 
02-Jun-2018_13:49:53 Exp 73370 18 female R 1 3 7 immoralOther immoralOther match n n 1 1.0504 
02-Jun-2018_13:49:56 Exp 73370 18 female R 1 3 8 moralOther immoralSelf mismatch m m 1 1.0402 
02-Jun-2018_13:49:58 Exp 73370 18 female R 1 3 9 moralOther moralOther match n NA -1 1.0841 
02-Jun-2018_13:50:01 Exp 73370 18 female R 1 3 10 immoralOther immoralSelf mismatch m m 1 0.7721 
02-Jun-2018_13:50:03 Exp 73370 18 female R 1 3 11 immoralSelf moralSelf mismatch m m 1 0.8842 
02-Jun-2018_13:50:06 Exp 73370 18 female R 1 3 12 moralSelf immoralSelf mismatch m m 1 0.7266 
02-Jun-2018_13:50:08 Exp 73370 18 female R 1 3 13 immoralOther immoralOther match n n 1 0.8902 
02-Jun-2018_13:50:11 Exp 73370 18 female R 1 3 14 moralOther moralSelf mismatch m m 1 0.9166 
02-Jun-2018_13:50:13 Exp 73370 18 female R 1 3 15 moralSelf moralOther mismatch m m 1 0.6678 
02-Jun-2018_13:50:15 Exp 73370 18 female R 1 3 16 immoralOther immoralOther match n n 1 0.7619 
02-Jun-2018_13:50:18 Exp 73370 18 female R 1 3 17 moralOther moralSelf mismatch m m 1 0.7380 
02-Jun-2018_13:50:20 Exp 73370 18 female R 1 3 18 moralSelf immoralOther mismatch m m 1 0.6694 
02-Jun-2018_13:50:22 Exp 73370 18 female R 1 3 19 immoralSelf immoralOther mismatch m m 1 0.7476 
02-Jun-2018_13:50:25 Exp 73370 18 female R 1 3 20 moralSelf moralSelf match n n 1 0.5793 
02-Jun-2018_13:50:27 Exp 73370 18 female R 1 3 21 immoralOther immoralSelf mismatch m m 1 0.6235 
02-Jun-2018_13:50:29 Exp 73370 18 female R 1 3 22 moralSelf moralSelf match n n 1 0.7169 
02-Jun-2018_13:50:32 Exp 73370 18 female R 1 3 23 moralOther moralOther match n m 0 0.6520 
02-Jun-2018_13:50:34 Exp 73370 18 female R 1 3 24 immoralOther immoralSelf mismatch m m 1 0.7858 
02-Jun-2018_13:50:46 Exp 73370 18 female R 1 4 1 immoralOther immoralOther match n m 0 0.6240 
02-Jun-2018_13:50:48 Exp 73370 18 female R 1 4 2 moralOther immoralOther mismatch m m 1 0.9251 
02-Jun-2018_13:50:51 Exp 73370 18 female R 1 4 3 moralSelf moralSelf match n n 1 0.6844 
02-Jun-2018_13:50:53 Exp 73370 18 female R 1 4 4 moralOther immoralSelf mismatch m m 1 0.6868 
02-Jun-2018_13:50:55 Exp 73370 18 female R 1 4 5 moralOther moralOther match n m 0 0.7933 
02-Jun-2018_13:50:58 Exp 73370 18 female R 1 4 6 immoralSelf immoralSelf match n NA -1 1.0841 
02-Jun-2018_13:51:00 Exp 73370 18 female R 1 4 7 immoralOther immoralSelf mismatch m m 1 0.5403 
02-Jun-2018_13:51:03 Exp 73370 18 female R 1 4 8 immoralSelf immoralSelf match n n 1 0.7239 
02-Jun-2018_13:51:05 Exp 73370 18 female R 1 4 9 immoralSelf moralOther mismatch m m 1 0.7710 
02-Jun-2018_13:51:07 Exp 73370 18 female R 1 4 10 moralSelf moralSelf match n n 1 0.6112 
02-Jun-2018_13:51:10 Exp 73370 18 female R 1 4 11 immoralSelf moralOther mismatch m m 1 0.7641 
02-Jun-2018_13:51:12 Exp 73370 18 female R 1 4 12 immoralOther immoralOther match n n 1 0.7723 
02-Jun-2018_13:51:15 Exp 73370 18 female R 1 4 13 moralSelf immoralSelf mismatch m m 1 0.9884 
02-Jun-2018_13:51:17 Exp 73370 18 female R 1 4 14 immoralSelf immoralSelf match n n 1 0.8130 
02-Jun-2018_13:51:20 Exp 73370 18 female R 1 4 15 moralOther immoralSelf mismatch m m 1 0.8780 
02-Jun-2018_13:51:22 Exp 73370 18 female R 1 4 16 moralSelf immoralSelf mismatch m m 1 0.8523 
02-Jun-2018_13:51:24 Exp 73370 18 female R 1 4 17 immoralOther moralOther mismatch m m 1 0.8339 
02-Jun-2018_13:51:27 Exp 73370 18 female R 1 4 18 moralSelf moralSelf match n n 1 0.6514 
02-Jun-2018_13:51:29 Exp 73370 18 female R 1 4 19 moralSelf immoralOther mismatch m m 1 0.5693 
02-Jun-2018_13:51:31 Exp 73370 18 female R 1 4 20 moralOther moralOther match n m 0 0.8254 
02-Jun-2018_13:51:34 Exp 73370 18 female R 1 4 21 immoralSelf moralOther mismatch m m 1 0.8785 
02-Jun-2018_13:51:36 Exp 73370 18 female R 1 4 22 immoralOther immoralOther match n n 1 0.8048 
02-Jun-2018_13:51:39 Exp 73370 18 female R 1 4 23 immoralOther immoralSelf mismatch m m 1 0.6656 
02-Jun-2018_13:51:41 Exp 73370 18 female R 1 4 24 moralOther moralOther match n m 0 0.8116 
02-Jun-2018_13:51:43 Exp 73370 18 female R 1 5 1 moralOther moralOther match n n 1 0.5727 
02-Jun-2018_13:51:46 Exp 73370 18 female R 1 5 2 moralOther immoralSelf mismatch m m 1 0.6047 
02-Jun-2018_13:51:48 Exp 73370 18 female R 1 5 3 moralSelf moralSelf match n n 1 0.4656 
02-Jun-2018_13:51:50 Exp 73370 18 female R 1 5 4 immoralSelf immoralSelf match n n 1 0.8194 
02-Jun-2018_13:51:52 Exp 73370 18 female R 1 5 5 immoralSelf immoralSelf match n n 1 0.6125 
02-Jun-2018_13:51:55 Exp 73370 18 female R 1 5 6 immoralOther immoralSelf mismatch m m 1 0.6536 
02-Jun-2018_13:51:57 Exp 73370 18 female R 1 5 7 moralOther immoralSelf mismatch m m 1 0.8593 
02-Jun-2018_13:51:59 Exp 73370 18 female R 1 5 8 moralSelf immoralSelf mismatch m m 1 0.7413 
02-Jun-2018_13:52:02 Exp 73370 18 female R 1 5 9 immoralOther moralSelf mismatch m m 1 0.9250 
02-Jun-2018_13:52:04 Exp 73370 18 female R 1 5 10 moralOther moralOther match n n 1 0.6121 
02-Jun-2018_13:52:07 Exp 73370 18 female R 1 5 11 immoralSelf moralSelf mismatch m m 1 1.0131 
02-Jun-2018_13:52:09 Exp 73370 18 female R 1 5 12 moralSelf immoralSelf mismatch m m 1 0.6543 
02-Jun-2018_13:52:12 Exp 73370 18 female R 1 5 13 immoralOther immoralSelf mismatch m m 1 0.7880 
02-Jun-2018_13:52:14 Exp 73370 18 female R 1 5 14 moralSelf moralSelf match n n 1 0.6605 
02-Jun-2018_13:52:16 Exp 73370 18 female R 1 5 15 moralOther moralSelf mismatch m m 1 0.5424 
02-Jun-2018_13:52:18 Exp 73370 18 female R 1 5 16 moralSelf moralSelf match n n 1 0.6061 
02-Jun-2018_13:52:21 Exp 73370 18 female R 1 5 17 immoralOther immoralOther match n m 0 0.6349 
02-Jun-2018_13:52:23 Exp 73370 18 female R 1 5 18 moralSelf immoralOther mismatch m NA -1 1.0841 
02-Jun-2018_13:52:26 Exp 73370 18 female R 1 5 19 immoralSelf immoralSelf match n m 0 0.5268 
02-Jun-2018_13:52:28 Exp 73370 18 female R 1 5 20 moralOther moralOther match n n 1 0.5782 
02-Jun-2018_13:52:30 Exp 73370 18 female R 1 5 21 immoralOther immoralOther match n m 0 0.9345 
02-Jun-2018_13:52:33 Exp 73370 18 female R 1 5 22 immoralSelf moralSelf mismatch m m 1 0.8739 
02-Jun-2018_13:52:35 Exp 73370 18 female R 1 5 23 immoralOther immoralOther match n n 1 0.8082 
02-Jun-2018_13:52:38 Exp 73370 18 female R 1 5 24 immoralSelf immoralOther mismatch m m 1 0.7570 
02-Jun-2018_13:52:43 Exp 73370 18 female R 2 1 1 immoralOther immoralOther match n m 0 0.9017 
02-Jun-2018_13:52:46 Exp 73370 18 female R 2 1 2 moralOther immoralSelf mismatch m n 0 0.9244 
02-Jun-2018_13:52:48 Exp 73370 18 female R 2 1 3 immoralSelf immoralSelf match n n 1 1.0676 
02-Jun-2018_13:52:51 Exp 73370 18 female R 2 1 4 immoralOther immoralSelf mismatch m m 1 0.7219 
02-Jun-2018_13:52:53 Exp 73370 18 female R 2 1 5 moralOther immoralOther mismatch m m 1 1.0328 
02-Jun-2018_13:52:56 Exp 73370 18 female R 2 1 6 moralOther moralOther match n n 1 0.9465 
02-Jun-2018_13:52:58 Exp 73370 18 female R 2 1 7 immoralOther immoralOther match n m 0 0.7381 
02-Jun-2018_13:53:01 Exp 73370 18 female R 2 1 8 moralSelf moralOther mismatch m NA -1 1.0841 
02-Jun-2018_13:53:04 Exp 73370 18 female R 2 1 9 immoralSelf immoralOther mismatch m m 1 0.7402 
02-Jun-2018_13:53:06 Exp 73370 18 female R 2 1 10 immoralSelf moralSelf mismatch m m 1 1.0037 
02-Jun-2018_13:53:08 Exp 73370 18 female R 2 1 11 moralSelf moralOther mismatch m m 1 0.6965 
02-Jun-2018_13:53:11 Exp 73370 18 female R 2 1 12 moralSelf moralSelf match n n 1 0.7832 
02-Jun-2018_13:53:13 Exp 73370 18 female R 2 1 13 moralSelf immoralSelf mismatch m m 1 0.7316 
02-Jun-2018_13:53:16 Exp 73370 18 female R 2 1 14 immoralOther moralSelf mismatch m n 0 0.7510 
02-Jun-2018_13:53:18 Exp 73370 18 female R 2 1 15 moralSelf moralSelf match n n 1 0.4188 
02-Jun-2018_13:53:20 Exp 73370 18 female R 2 1 16 immoralSelf immoralSelf match n n 1 0.6839 
02-Jun-2018_13:53:23 Exp 73370 18 female R 2 1 17 immoralOther immoralOther match n m 0 1.0303 
02-Jun-2018_13:53:25 Exp 73370 18 female R 2 1 18 immoralSelf immoralOther mismatch m m 1 0.7636 
02-Jun-2018_13:53:27 Exp 73370 18 female R 2 1 19 immoralOther moralOther mismatch m m 1 0.7477 
02-Jun-2018_13:53:30 Exp 73370 18 female R 2 1 20 moralOther moralOther match n n 1 0.8273 
02-Jun-2018_13:53:32 Exp 73370 18 female R 2 1 21 immoralSelf immoralSelf match n n 1 0.9207 
02-Jun-2018_13:53:35 Exp 73370 18 female R 2 1 22 moralOther moralOther match n m 0 0.7918 
02-Jun-2018_13:53:37 Exp 73370 18 female R 2 1 23 moralOther immoralOther mismatch m m 1 0.8725 
02-Jun-2018_13:53:40 Exp 73370 18 female R 2 1 24 moralSelf moralSelf match n n 1 0.6785 
02-Jun-2018_13:53:42 Exp 73370 18 female R 2 2 1 moralSelf moralSelf match n n 1 0.6608 
02-Jun-2018_13:53:44 Exp 73370 18 female R 2 2 2 moralOther immoralSelf mismatch m n 0 0.8147 
02-Jun-2018_13:53:47 Exp 73370 18 female R 2 2 3 immoralSelf immoralSelf match n n 1 0.7919 
02-Jun-2018_13:53:50 Exp 73370 18 female R 2 2 4 moralOther immoralOther mismatch m n 0 1.0644 
02-Jun-2018_13:53:52 Exp 73370 18 female R 2 2 5 immoralOther immoralSelf mismatch m m 1 1.0024 
02-Jun-2018_13:53:55 Exp 73370 18 female R 2 2 6 moralSelf immoralOther mismatch m m 1 0.8231 
02-Jun-2018_13:53:57 Exp 73370 18 female R 2 2 7 immoralOther immoralOther match n NA -1 1.0841 
02-Jun-2018_13:54:00 Exp 73370 18 female R 2 2 8 moralOther moralOther match n m 0 0.8950 
02-Jun-2018_13:54:02 Exp 73370 18 female R 2 2 9 immoralOther moralSelf mismatch m n 0 0.6296 
02-Jun-2018_13:54:05 Exp 73370 18 female R 2 2 10 moralOther immoralSelf mismatch m n 0 1.0429 
02-Jun-2018_13:54:07 Exp 73370 18 female R 2 2 11 moralSelf moralSelf match n n 1 0.7405 
02-Jun-2018_13:54:10 Exp 73370 18 female R 2 2 12 immoralOther immoralOther match n n 1 0.9400 
02-Jun-2018_13:54:12 Exp 73370 18 female R 2 2 13 immoralSelf moralOther mismatch m m 1 0.7637 
02-Jun-2018_13:54:15 Exp 73370 18 female R 2 2 14 immoralSelf immoralSelf match n m 0 0.8038 
02-Jun-2018_13:54:17 Exp 73370 18 female R 2 2 15 moralSelf immoralSelf mismatch m m 1 0.7445 
02-Jun-2018_13:54:19 Exp 73370 18 female R 2 2 16 moralOther moralOther match n n 1 0.8642 
02-Jun-2018_13:54:22 Exp 73370 18 female R 2 2 17 moralOther moralOther match n n 1 0.8261 
02-Jun-2018_13:54:24 Exp 73370 18 female R 2 2 18 immoralSelf immoralSelf match n n 1 0.8314 
02-Jun-2018_13:54:27 Exp 73370 18 female R 2 2 19 immoralSelf moralOther mismatch m NA -1 1.0841 
02-Jun-2018_13:54:29 Exp 73370 18 female R 2 2 20 moralSelf moralSelf match n n 1 0.5272 
02-Jun-2018_13:54:32 Exp 73370 18 female R 2 2 21 immoralSelf immoralOther mismatch m m 1 0.6825 
02-Jun-2018_13:54:34 Exp 73370 18 female R 2 2 22 immoralOther moralOther mismatch m m 1 1.0530 
02-Jun-2018_13:54:37 Exp 73370 18 female R 2 2 23 immoralOther immoralOther match n m 0 0.6908 
02-Jun-2018_13:54:39 Exp 73370 18 female R 2 2 24 moralSelf immoralSelf mismatch m m 1 0.6693 
02-Jun-2018_13:54:41 Exp 73370 18 female R 2 3 1 moralSelf moralOther mismatch m m 1 0.7794 
02-Jun-2018_13:54:44 Exp 73370 18 female R 2 3 2 moralOther moralOther match n m 0 0.7197 
02-Jun-2018_13:54:46 Exp 73370 18 female R 2 3 3 immoralOther immoralOther match n n 1 0.6310 
02-Jun-2018_13:54:48 Exp 73370 18 female R 2 3 4 moralOther immoralOther mismatch m m 1 0.6043 
02-Jun-2018_13:54:51 Exp 73370 18 female R 2 3 5 moralOther moralOther match n n 1 0.7690 
02-Jun-2018_13:54:53 Exp 73370 18 female R 2 3 6 immoralSelf immoralSelf match n m 0 0.5931 
02-Jun-2018_13:54:55 Exp 73370 18 female R 2 3 7 moralOther moralSelf mismatch m n 0 0.6416 
02-Jun-2018_13:54:57 Exp 73370 18 female R 2 3 8 immoralSelf immoralOther mismatch m n 0 0.6271 
02-Jun-2018_13:55:00 Exp 73370 18 female R 2 3 9 immoralSelf immoralSelf match n n 1 0.8724 
02-Jun-2018_13:55:02 Exp 73370 18 female R 2 3 10 moralSelf moralSelf match n n 1 0.5748 
02-Jun-2018_13:55:04 Exp 73370 18 female R 2 3 11 immoralSelf immoralSelf match n n 1 0.7789 
02-Jun-2018_13:55:07 Exp 73370 18 female R 2 3 12 moralOther moralOther match n NA -1 1.0841 
02-Jun-2018_13:55:10 Exp 73370 18 female R 2 3 13 moralSelf moralOther mismatch m m 1 0.7697 
02-Jun-2018_13:55:12 Exp 73370 18 female R 2 3 14 immoralOther moralSelf mismatch m m 1 0.9538 
02-Jun-2018_13:55:14 Exp 73370 18 female R 2 3 15 immoralOther moralSelf mismatch m m 1 0.5978 
02-Jun-2018_13:55:17 Exp 73370 18 female R 2 3 16 immoralOther moralOther mismatch m m 1 1.0586 
02-Jun-2018_13:55:20 Exp 73370 18 female R 2 3 17 moralSelf moralSelf match n n 1 0.9165 
02-Jun-2018_13:55:22 Exp 73370 18 female R 2 3 18 moralSelf moralOther mismatch m m 1 0.6598 
02-Jun-2018_13:55:24 Exp 73370 18 female R 2 3 19 immoralSelf moralSelf mismatch m m 1 0.8056 
02-Jun-2018_13:55:27 Exp 73370 18 female R 2 3 20 immoralSelf moralSelf mismatch m m 1 0.8745 
02-Jun-2018_13:55:29 Exp 73370 18 female R 2 3 21 moralSelf moralSelf match n n 1 0.6487 
02-Jun-2018_13:55:32 Exp 73370 18 female R 2 3 22 moralOther immoralOther mismatch m NA -1 1.0841 
02-Jun-2018_13:55:34 Exp 73370 18 female R 2 3 23 immoralOther immoralOther match n n 1 0.8329 
02-Jun-2018_13:55:37 Exp 73370 18 female R 2 3 24 immoralOther immoralOther match n n 1 0.6504 
02-Jun-2018_13:55:45 Exp 73370 18 female R 2 4 1 immoralSelf immoralSelf match n m 0 0.6634 
02-Jun-2018_13:55:48 Exp 73370 18 female R 2 4 2 immoralOther immoralOther match n NA -1 1.0841 
02-Jun-2018_13:55:50 Exp 73370 18 female R 2 4 3 immoralOther immoralOther match n n 1 0.5560 
02-Jun-2018_13:55:52 Exp 73370 18 female R 2 4 4 immoralOther immoralSelf mismatch m m 1 0.6157 
02-Jun-2018_13:55:55 Exp 73370 18 female R 2 4 5 moralOther moralOther match n NA -1 1.0841 
02-Jun-2018_13:55:57 Exp 73370 18 female R 2 4 6 immoralOther moralOther mismatch m m 1 0.6513 
02-Jun-2018_13:56:00 Exp 73370 18 female R 2 4 7 immoralSelf moralSelf mismatch m m 1 1.0169 
02-Jun-2018_13:56:03 Exp 73370 18 female R 2 4 8 moralOther immoralSelf mismatch m NA -1 1.0841 
02-Jun-2018_13:56:05 Exp 73370 18 female R 2 4 9 moralOther moralSelf mismatch m m 1 0.8525 
02-Jun-2018_13:56:08 Exp 73370 18 female R 2 4 10 immoralSelf moralOther mismatch m NA -1 1.0841 
02-Jun-2018_13:56:10 Exp 73370 18 female R 2 4 11 moralSelf immoralOther mismatch m m 1 0.6288 
02-Jun-2018_13:56:13 Exp 73370 18 female R 2 4 12 immoralSelf immoralSelf match n n 1 0.8900 
02-Jun-2018_13:56:15 Exp 73370 18 female R 2 4 13 immoralOther moralOther mismatch m m 1 0.9004 
02-Jun-2018_13:56:18 Exp 73370 18 female R 2 4 14 moralSelf moralSelf match n n 1 0.8112 
02-Jun-2018_13:56:20 Exp 73370 18 female R 2 4 15 moralSelf moralSelf match n n 1 0.5642 
02-Jun-2018_13:56:22 Exp 73370 18 female R 2 4 16 moralOther moralOther match n n 1 0.9243 
02-Jun-2018_13:56:25 Exp 73370 18 female R 2 4 17 moralSelf immoralOther mismatch m m 1 0.6515 
02-Jun-2018_13:56:27 Exp 73370 18 female R 2 4 18 moralOther immoralSelf mismatch m m 1 0.7291 
02-Jun-2018_13:56:29 Exp 73370 18 female R 2 4 19 immoralSelf immoralSelf match n n 1 0.5485 
02-Jun-2018_13:56:31 Exp 73370 18 female R 2 4 20 moralSelf moralSelf match n n 1 0.6442 
02-Jun-2018_13:56:34 Exp 73370 18 female R 2 4 21 immoralSelf moralOther mismatch m m 1 0.8419 
02-Jun-2018_13:56:36 Exp 73370 18 female R 2 4 22 moralOther moralOther match n m 0 0.6914 
02-Jun-2018_13:56:39 Exp 73370 18 female R 2 4 23 immoralOther immoralOther match n m 0 0.8100 
02-Jun-2018_13:56:41 Exp 73370 18 female R 2 4 24 moralSelf moralOther mismatch m m 1 0.7071 
02-Jun-2018_13:56:44 Exp 73370 18 female R 2 5 1 immoralSelf immoralSelf match n n 1 0.9181 
02-Jun-2018_13:56:46 Exp 73370 18 female R 2 5 2 immoralOther immoralSelf mismatch m m 1 0.7812 
02-Jun-2018_13:56:49 Exp 73370 18 female R 2 5 3 moralSelf moralSelf match n n 1 0.9535 
02-Jun-2018_13:56:51 Exp 73370 18 female R 2 5 4 immoralSelf immoralSelf match n n 1 0.7094 
02-Jun-2018_13:56:53 Exp 73370 18 female R 2 5 5 moralSelf moralSelf match n n 1 0.5763 
02-Jun-2018_13:56:55 Exp 73370 18 female R 2 5 6 immoralOther moralSelf mismatch m m 1 0.7166 
02-Jun-2018_13:56:58 Exp 73370 18 female R 2 5 7 immoralSelf immoralSelf match n n 1 0.8918 
02-Jun-2018_13:57:00 Exp 73370 18 female R 2 5 8 moralSelf immoralOther mismatch m m 1 0.6825 
02-Jun-2018_13:57:03 Exp 73370 18 female R 2 5 9 moralOther immoralOther mismatch m m 1 0.8849 
02-Jun-2018_13:57:05 Exp 73370 18 female R 2 5 10 immoralSelf moralOther mismatch m m 1 0.7835 
02-Jun-2018_13:57:08 Exp 73370 18 female R 2 5 11 moralOther moralOther match n n 1 0.7798 
02-Jun-2018_13:57:10 Exp 73370 18 female R 2 5 12 moralOther moralOther match n n 1 0.5442 
02-Jun-2018_13:57:12 Exp 73370 18 female R 2 5 13 moralOther immoralOther mismatch m m 1 0.5997 
02-Jun-2018_13:57:14 Exp 73370 18 female R 2 5 14 immoralSelf immoralOther mismatch m m 1 0.8364 
02-Jun-2018_13:57:17 Exp 73370 18 female R 2 5 15 moralSelf moralSelf match n n 1 0.5740 
02-Jun-2018_13:57:19 Exp 73370 18 female R 2 5 16 moralSelf immoralOther mismatch m m 1 0.6983 
02-Jun-2018_13:57:21 Exp 73370 18 female R 2 5 17 immoralOther immoralOther match n m 0 0.7291 
02-Jun-2018_13:57:24 Exp 73370 18 female R 2 5 18 immoralSelf moralOther mismatch m m 1 1.0284 
02-Jun-2018_13:57:27 Exp 73370 18 female R 2 5 19 moralOther moralOther match n n 1 0.8817 
02-Jun-2018_13:57:29 Exp 73370 18 female R 2 5 20 moralOther immoralOther mismatch m m 1 0.7161 
02-Jun-2018_13:57:32 Exp 73370 18 female R 2 5 21 immoralOther moralOther mismatch m m 1 1.0673 
02-Jun-2018_13:57:34 Exp 73370 18 female R 2 5 22 immoralOther immoralOther match n m 0 0.7253 
02-Jun-2018_13:57:37 Exp 73370 18 female R 2 5 23 immoralOther immoralOther match n m 0 0.9405 
02-Jun-2018_13:57:39 Exp 73370 18 female R 2 5 24 moralSelf moralOther mismatch m m 1 0.8281 
02-Jun-2018_13:57:45 Exp 73370 18 female R 3 1 1 moralSelf moralSelf match n n 1 0.9380 
02-Jun-2018_13:57:47 Exp 73370 18 female R 3 1 2 immoralSelf immoralSelf match n n 1 0.8374 
02-Jun-2018_13:57:50 Exp 73370 18 female R 3 1 3 immoralOther immoralOther match n n 1 0.8308 
02-Jun-2018_13:57:52 Exp 73370 18 female R 3 1 4 immoralSelf moralSelf mismatch m m 1 0.8281 
02-Jun-2018_13:57:54 Exp 73370 18 female R 3 1 5 moralSelf moralSelf match n n 1 0.6094 
02-Jun-2018_13:57:57 Exp 73370 18 female R 3 1 6 moralOther immoralSelf mismatch m n 0 0.6825 
02-Jun-2018_13:57:59 Exp 73370 18 female R 3 1 7 moralOther immoralOther mismatch m m 1 1.0769 
02-Jun-2018_13:58:02 Exp 73370 18 female R 3 1 8 immoralOther moralOther mismatch m NA -1 1.0841 
02-Jun-2018_13:58:04 Exp 73370 18 female R 3 1 9 moralOther moralOther match n m 0 0.6295 
02-Jun-2018_13:58:07 Exp 73370 18 female R 3 1 10 immoralSelf moralOther mismatch m m 1 0.7388 
02-Jun-2018_13:58:09 Exp 73370 18 female R 3 1 11 immoralOther immoralOther match n n 1 0.8425 
02-Jun-2018_13:58:11 Exp 73370 18 female R 3 1 12 moralSelf immoralOther mismatch m m 1 0.7240 
02-Jun-2018_13:58:14 Exp 73370 18 female R 3 1 13 immoralOther immoralOther match n m 0 0.5632 
02-Jun-2018_13:58:16 Exp 73370 18 female R 3 1 14 moralOther moralSelf mismatch m n 0 0.7552 
02-Jun-2018_13:58:18 Exp 73370 18 female R 3 1 15 immoralSelf immoralSelf match n n 1 0.6631 
02-Jun-2018_13:58:21 Exp 73370 18 female R 3 1 16 moralSelf moralOther mismatch m m 1 0.6570 
02-Jun-2018_13:58:23 Exp 73370 18 female R 3 1 17 immoralSelf immoralSelf match n n 1 0.7311 
02-Jun-2018_13:58:25 Exp 73370 18 female R 3 1 18 moralOther moralOther match n m 0 0.7504 
02-Jun-2018_13:58:28 Exp 73370 18 female R 3 1 19 immoralOther moralOther mismatch m m 1 0.6103 
02-Jun-2018_13:58:30 Exp 73370 18 female R 3 1 20 moralSelf moralSelf match n n 1 0.5873 
02-Jun-2018_13:58:32 Exp 73370 18 female R 3 1 21 immoralSelf moralOther mismatch m m 1 0.8038 
02-Jun-2018_13:58:35 Exp 73370 18 female R 3 1 22 moralOther moralOther match n n 1 1.0247 
02-Jun-2018_13:58:37 Exp 73370 18 female R 3 1 23 immoralOther moralOther mismatch m m 1 0.6219 
02-Jun-2018_13:58:40 Exp 73370 18 female R 3 1 24 moralSelf immoralOther mismatch m m 1 0.7873 
02-Jun-2018_13:58:42 Exp 73370 18 female R 3 2 1 moralSelf moralSelf match n n 1 0.6437 
02-Jun-2018_13:58:44 Exp 73370 18 female R 3 2 2 moralOther immoralSelf mismatch m m 1 0.9173 
02-Jun-2018_13:58:47 Exp 73370 18 female R 3 2 3 immoralOther moralSelf mismatch m m 1 0.8366 
02-Jun-2018_13:58:49 Exp 73370 18 female R 3 2 4 moralSelf moralSelf match n n 1 0.7500 
02-Jun-2018_13:58:52 Exp 73370 18 female R 3 2 5 moralOther moralSelf mismatch m n 0 0.6658 
02-Jun-2018_13:58:54 Exp 73370 18 female R 3 2 6 moralSelf moralSelf match n n 1 0.5798 
02-Jun-2018_13:58:56 Exp 73370 18 female R 3 2 7 moralOther immoralSelf mismatch m m 1 1.0402 
02-Jun-2018_13:58:59 Exp 73370 18 female R 3 2 8 moralOther moralOther match n NA -1 1.0841 
02-Jun-2018_13:59:02 Exp 73370 18 female R 3 2 9 immoralSelf immoralSelf match n n 1 1.0761 
02-Jun-2018_13:59:04 Exp 73370 18 female R 3 2 10 immoralSelf moralOther mismatch m m 1 0.7624 
02-Jun-2018_13:59:07 Exp 73370 18 female R 3 2 11 immoralOther moralOther mismatch m n 0 0.9705 
02-Jun-2018_13:59:09 Exp 73370 18 female R 3 2 12 immoralSelf moralSelf mismatch m m 1 0.8266 
02-Jun-2018_13:59:12 Exp 73370 18 female R 3 2 13 moralSelf immoralSelf mismatch m n 0 0.7838 
02-Jun-2018_13:59:14 Exp 73370 18 female R 3 2 14 moralOther moralOther match n m 0 0.8442 
02-Jun-2018_13:59:17 Exp 73370 18 female R 3 2 15 immoralSelf immoralOther mismatch m m 1 0.8580 
02-Jun-2018_13:59:19 Exp 73370 18 female R 3 2 16 moralSelf immoralSelf mismatch m m 1 0.7239 
02-Jun-2018_13:59:22 Exp 73370 18 female R 3 2 17 immoralSelf immoralSelf match n n 1 0.8111 
02-Jun-2018_13:59:24 Exp 73370 18 female R 3 2 18 immoralOther immoralOther match n n 1 0.8921 
02-Jun-2018_13:59:26 Exp 73370 18 female R 3 2 19 moralSelf immoralSelf mismatch m n 0 0.7389 
02-Jun-2018_13:59:29 Exp 73370 18 female R 3 2 20 immoralOther immoralSelf mismatch m m 1 1.0345 
02-Jun-2018_13:59:32 Exp 73370 18 female R 3 2 21 immoralSelf immoralSelf match n n 1 0.8200 
02-Jun-2018_13:59:34 Exp 73370 18 female R 3 2 22 immoralOther immoralOther match n n 1 0.9010 
02-Jun-2018_13:59:37 Exp 73370 18 female R 3 2 23 moralOther moralOther match n m 0 0.9317 
02-Jun-2018_13:59:39 Exp 73370 18 female R 3 2 24 immoralOther immoralOther match n n 1 0.7910 
02-Jun-2018_13:59:41 Exp 73370 18 female R 3 3 1 immoralOther immoralOther match n n 1 0.6075 
02-Jun-2018_13:59:44 Exp 73370 18 female R 3 3 2 moralOther moralOther match n m 0 0.6364 
02-Jun-2018_13:59:46 Exp 73370 18 female R 3 3 3 moralOther moralSelf mismatch m n 0 0.7100 
02-Jun-2018_13:59:48 Exp 73370 18 female R 3 3 4 immoralOther moralOther mismatch m m 1 0.8408 
02-Jun-2018_13:59:51 Exp 73370 18 female R 3 3 5 immoralOther moralSelf mismatch m m 1 0.7303 
02-Jun-2018_13:59:53 Exp 73370 18 female R 3 3 6 moralOther immoralSelf mismatch m n 0 1.0297 
02-Jun-2018_13:59:56 Exp 73370 18 female R 3 3 7 moralOther moralSelf mismatch m m 1 0.7469 
02-Jun-2018_13:59:58 Exp 73370 18 female R 3 3 8 moralSelf immoralOther mismatch m m 1 0.6827 
02-Jun-2018_14:00:01 Exp 73370 18 female R 3 3 9 moralOther moralOther match n n 1 0.9251 
02-Jun-2018_14:00:03 Exp 73370 18 female R 3 3 10 immoralSelf immoralSelf match n n 1 0.7403 
02-Jun-2018_14:00:05 Exp 73370 18 female R 3 3 11 moralSelf immoralOther mismatch m m 1 0.6999 
02-Jun-2018_14:00:08 Exp 73370 18 female R 3 3 12 immoralOther immoralOther match n n 1 1.0347 
02-Jun-2018_14:00:10 Exp 73370 18 female R 3 3 13 immoralSelf moralSelf mismatch m m 1 0.7242 
02-Jun-2018_14:00:13 Exp 73370 18 female R 3 3 14 immoralOther moralSelf mismatch m m 1 0.7473 
02-Jun-2018_14:00:15 Exp 73370 18 female R 3 3 15 moralOther moralOther match n n 1 0.8909 
02-Jun-2018_14:00:18 Exp 73370 18 female R 3 3 16 moralSelf immoralOther mismatch m m 1 0.9174 
02-Jun-2018_14:00:20 Exp 73370 18 female R 3 3 17 moralSelf moralSelf match n n 1 0.8685 
02-Jun-2018_14:00:23 Exp 73370 18 female R 3 3 18 immoralOther immoralOther match n n 1 0.7867 
02-Jun-2018_14:00:25 Exp 73370 18 female R 3 3 19 immoralSelf moralOther mismatch m m 1 1.0033 
02-Jun-2018_14:00:28 Exp 73370 18 female R 3 3 20 immoralSelf immoralSelf match n n 1 0.7442 
02-Jun-2018_14:00:30 Exp 73370 18 female R 3 3 21 immoralSelf immoralSelf match n n 1 0.7997 
02-Jun-2018_14:00:33 Exp 73370 18 female R 3 3 22 moralSelf moralSelf match n n 1 0.8045 
02-Jun-2018_14:00:35 Exp 73370 18 female R 3 3 23 immoralSelf moralOther mismatch m m 1 0.8653 
02-Jun-2018_14:00:38 Exp 73370 18 female R 3 3 24 moralSelf moralSelf match n n 1 0.7793 
02-Jun-2018_14:00:51 Exp 73370 18 female R 3 4 1 immoralSelf immoralSelf match n n 1 0.7851 
02-Jun-2018_14:00:54 Exp 73370 18 female R 3 4 2 moralOther moralSelf mismatch m m 1 0.7093 
02-Jun-2018_14:00:56 Exp 73370 18 female R 3 4 3 immoralSelf moralSelf mismatch m m 1 0.9843 
02-Jun-2018_14:00:59 Exp 73370 18 female R 3 4 4 moralSelf moralOther mismatch m m 1 0.8126 
02-Jun-2018_14:01:01 Exp 73370 18 female R 3 4 5 moralOther immoralOther mismatch m m 1 1.0056 
02-Jun-2018_14:01:04 Exp 73370 18 female R 3 4 6 immoralOther immoralOther match n n 1 0.8025 
02-Jun-2018_14:01:06 Exp 73370 18 female R 3 4 7 moralSelf immoralOther mismatch m m 1 0.7594 
02-Jun-2018_14:01:09 Exp 73370 18 female R 3 4 8 moralOther immoralSelf mismatch m m 1 1.0112 
02-Jun-2018_14:01:11 Exp 73370 18 female R 3 4 9 moralSelf moralSelf match n n 1 0.6923 
02-Jun-2018_14:01:14 Exp 73370 18 female R 3 4 10 immoralOther immoralSelf mismatch m m 1 0.7149 
02-Jun-2018_14:01:16 Exp 73370 18 female R 3 4 11 immoralSelf moralOther mismatch m m 1 1.0500 
02-Jun-2018_14:01:19 Exp 73370 18 female R 3 4 12 moralOther moralOther match n NA -1 1.0841 
02-Jun-2018_14:01:22 Exp 73370 18 female R 3 4 13 immoralOther moralSelf mismatch m m 1 0.9703 
02-Jun-2018_14:01:24 Exp 73370 18 female R 3 4 14 moralSelf moralSelf match n n 1 0.6504 
02-Jun-2018_14:01:27 Exp 73370 18 female R 3 4 15 immoralOther immoralOther match n n 1 1.0241 
02-Jun-2018_14:01:29 Exp 73370 18 female R 3 4 16 moralOther moralOther match n m 0 0.8054 
02-Jun-2018_14:01:31 Exp 73370 18 female R 3 4 17 moralOther moralOther match n n 1 0.5142 
02-Jun-2018_14:01:34 Exp 73370 18 female R 3 4 18 immoralOther immoralSelf mismatch m m 1 1.0612 
02-Jun-2018_14:01:36 Exp 73370 18 female R 3 4 19 immoralSelf immoralSelf match n n 1 0.8632 
02-Jun-2018_14:01:39 Exp 73370 18 female R 3 4 20 immoralOther immoralOther match n n 1 0.9292 
02-Jun-2018_14:01:41 Exp 73370 18 female R 3 4 21 moralSelf moralOther mismatch m n 0 0.7245 
02-Jun-2018_14:01:44 Exp 73370 18 female R 3 4 22 immoralSelf moralSelf mismatch m m 1 0.8277 
02-Jun-2018_14:01:46 Exp 73370 18 female R 3 4 23 immoralSelf immoralSelf match n n 1 0.7609 
02-Jun-2018_14:01:48 Exp 73370 18 female R 3 4 24 moralSelf moralSelf match n n 1 0.6769 
02-Jun-2018_14:01:51 Exp 73370 18 female R 3 5 1 immoralSelf immoralSelf match n NA -1 1.0841 
02-Jun-2018_14:01:54 Exp 73370 18 female R 3 5 2 moralOther immoralOther mismatch m m 1 0.9015 
02-Jun-2018_14:01:56 Exp 73370 18 female R 3 5 3 immoralOther moralSelf mismatch m m 1 0.7722 
02-Jun-2018_14:01:58 Exp 73370 18 female R 3 5 4 moralOther moralOther match n n 1 0.7242 
02-Jun-2018_14:02:01 Exp 73370 18 female R 3 5 5 immoralOther moralSelf mismatch m m 1 0.6994 
02-Jun-2018_14:02:03 Exp 73370 18 female R 3 5 6 immoralOther immoralOther match n n 1 0.9061 
02-Jun-2018_14:02:06 Exp 73370 18 female R 3 5 7 immoralSelf immoralOther mismatch m m 1 0.9730 
02-Jun-2018_14:02:08 Exp 73370 18 female R 3 5 8 moralSelf moralSelf match n n 1 0.8371 
02-Jun-2018_14:02:11 Exp 73370 18 female R 3 5 9 moralSelf immoralSelf mismatch m m 1 1.0626 
02-Jun-2018_14:02:13 Exp 73370 18 female R 3 5 10 moralSelf moralSelf match n n 1 0.5926 
02-Jun-2018_14:02:16 Exp 73370 18 female R 3 5 11 moralOther moralOther match n NA -1 1.0841 
02-Jun-2018_14:02:18 Exp 73370 18 female R 3 5 12 immoralOther moralOther mismatch m m 1 0.9157 
02-Jun-2018_14:02:21 Exp 73370 18 female R 3 5 13 immoralSelf immoralSelf match n n 1 0.7629 
02-Jun-2018_14:02:23 Exp 73370 18 female R 3 5 14 moralSelf moralSelf match n n 1 0.7709 
02-Jun-2018_14:02:26 Exp 73370 18 female R 3 5 15 moralOther immoralOther mismatch m m 1 0.6510 
02-Jun-2018_14:02:28 Exp 73370 18 female R 3 5 16 immoralSelf moralSelf mismatch m m 1 0.8087 
02-Jun-2018_14:02:31 Exp 73370 18 female R 3 5 17 moralOther moralOther match n NA -1 1.0841 
02-Jun-2018_14:02:33 Exp 73370 18 female R 3 5 18 immoralSelf immoralSelf match n n 1 0.7002 
02-Jun-2018_14:02:36 Exp 73370 18 female R 3 5 19 immoralOther immoralOther match n NA -1 1.0841 
02-Jun-2018_14:02:38 Exp 73370 18 female R 3 5 20 moralOther immoralSelf mismatch m m 1 0.6294 
02-Jun-2018_14:02:40 Exp 73370 18 female R 3 5 21 moralSelf moralOther mismatch m m 1 0.7706 
02-Jun-2018_14:02:43 Exp 73370 18 female R 3 5 22 moralSelf immoralOther mismatch m n 0 0.9547 
02-Jun-2018_14:02:46 Exp 73370 18 female R 3 5 23 immoralSelf moralSelf mismatch m m 1 0.9826 
02-Jun-2018_14:02:48 Exp 73370 18 female R 3 5 24 immoralOther immoralOther match n n 1 0.7709 
Date Prac Sub Age Sex Hand Block Bin Trial Shape Label Match CorrResp Resp ACC RT
02-Jun-2018_14:07:40 Exp 73370 18 female R 1 1 1 immoralOther moralSelf mismatch m m 1 0.9087 
02-Jun-2018_14:07:43 Exp 73370 18 female R 1 1 2 immoralOther immoralOther match n n 1 0.9117 
02-Jun-2018_14:07:46 Exp 73370 18 female R 1 1 3 immoralSelf immoralSelf match n n 1 0.9307 
02-Jun-2018_14:07:48 Exp 73370 18 female R 1 1 4 moralSelf immoralSelf mismatch m m 1 0.9821 
02-Jun-2018_14:07:51 Exp 73370 18 female R 1 1 5 moralOther moralOther match n n 1 0.7944 
02-Jun-2018_14:07:53 Exp 73370 18 female R 1 1 6 immoralSelf immoralOther mismatch m m 1 0.9310 
02-Jun-2018_14:07:56 Exp 73370 18 female R 1 1 7 moralOther moralOther match n m 0 0.8304 
02-Jun-2018_14:07:58 Exp 73370 18 female R 1 1 8 moralOther immoralOther mismatch m m 1 0.7315 
02-Jun-2018_14:08:00 Exp 73370 18 female R 1 1 9 immoralSelf immoralSelf match n n 1 0.8070 
02-Jun-2018_14:08:03 Exp 73370 18 female R 1 1 10 moralSelf moralSelf match n n 1 0.6598 
02-Jun-2018_14:08:05 Exp 73370 18 female R 1 1 11 moralSelf moralSelf match n n 1 0.6699 
02-Jun-2018_14:08:07 Exp 73370 18 female R 1 1 12 immoralOther immoralSelf mismatch m m 1 0.7080 
02-Jun-2018_14:08:10 Exp 73370 18 female R 1 1 13 immoralSelf moralSelf mismatch m n 0 0.7509 
02-Jun-2018_14:08:12 Exp 73370 18 female R 1 1 14 moralSelf immoralOther mismatch m m 1 0.7468 
02-Jun-2018_14:08:15 Exp 73370 18 female R 1 1 15 moralOther moralSelf mismatch m n 0 0.9145 
02-Jun-2018_14:08:17 Exp 73370 18 female R 1 1 16 moralSelf moralOther mismatch m m 1 0.7013 
02-Jun-2018_14:08:20 Exp 73370 18 female R 1 1 17 immoralOther immoralOther match n n 1 0.8441 
02-Jun-2018_14:08:22 Exp 73370 18 female R 1 1 18 moralOther immoralOther mismatch m m 1 0.9137 
02-Jun-2018_14:08:25 Exp 73370 18 female R 1 1 19 immoralOther moralOther mismatch m NA -1 1.0841 
02-Jun-2018_14:08:27 Exp 73370 18 female R 1 1 20 immoralSelf immoralSelf match n n 1 0.7672 
02-Jun-2018_14:08:29 Exp 73370 18 female R 1 1 21 moralSelf moralSelf match n n 1 0.6792 
02-Jun-2018_14:08:32 Exp 73370 18 female R 1 1 22 immoralSelf moralOther mismatch m m 1 0.7494 
02-Jun-2018_14:08:35 Exp 73370 18 female R 1 1 23 moralOther moralOther match n NA -1 1.0841 
02-Jun-2018_14:08:37 Exp 73370 18 female R 1 1 24 immoralOther immoralOther match n NA -1 1.0841 
02-Jun-2018_14:08:40 Exp 73370 18 female R 1 2 1 immoralOther immoralOther match n n 1 0.5940 
02-Jun-2018_14:08:42 Exp 73370 18 female R 1 2 2 immoralOther immoralSelf mismatch m m 1 0.6506 
02-Jun-2018_14:08:44 Exp 73370 18 female R 1 2 3 immoralSelf immoralSelf match n n 1 0.7604 
02-Jun-2018_14:08:46 Exp 73370 18 female R 1 2 4 moralSelf moralSelf match n n 1 0.5881 
02-Jun-2018_14:08:49 Exp 73370 18 female R 1 2 5 immoralOther immoralSelf mismatch m m 1 0.7807 
02-Jun-2018_14:08:52 Exp 73370 18 female R 1 2 6 immoralSelf moralOther mismatch m NA -1 1.0841 
02-Jun-2018_14:08:54 Exp 73370 18 female R 1 2 7 moralOther moralSelf mismatch m m 1 0.8916 
02-Jun-2018_14:08:56 Exp 73370 18 female R 1 2 8 moralOther moralOther match n m 0 0.7383 
02-Jun-2018_14:08:59 Exp 73370 18 female R 1 2 9 immoralOther moralOther mismatch m m 1 0.6978 
02-Jun-2018_14:09:01 Exp 73370 18 female R 1 2 10 moralOther immoralSelf mismatch m m 1 0.7125 
02-Jun-2018_14:09:04 Exp 73370 18 female R 1 2 11 immoralSelf immoralOther mismatch m n 0 1.0514 
02-Jun-2018_14:09:06 Exp 73370 18 female R 1 2 12 immoralOther immoralOther match n n 1 1.0252 
02-Jun-2018_14:09:09 Exp 73370 18 female R 1 2 13 immoralOther immoralOther match n n 1 0.6225 
02-Jun-2018_14:09:11 Exp 73370 18 female R 1 2 14 moralOther moralOther match n NA -1 1.0841 
02-Jun-2018_14:09:14 Exp 73370 18 female R 1 2 15 moralSelf immoralSelf mismatch m m 1 1.0142 
02-Jun-2018_14:09:16 Exp 73370 18 female R 1 2 16 moralSelf moralSelf match n n 1 0.7033 
02-Jun-2018_14:09:19 Exp 73370 18 female R 1 2 17 immoralSelf immoralSelf match n m 0 0.9862 
02-Jun-2018_14:09:21 Exp 73370 18 female R 1 2 18 moralOther moralOther match n n 1 0.7786 
02-Jun-2018_14:09:24 Exp 73370 18 female R 1 2 19 immoralSelf immoralSelf match n NA -1 1.0841 
02-Jun-2018_14:09:27 Exp 73370 18 female R 1 2 20 moralOther moralSelf mismatch m m 1 0.7216 
02-Jun-2018_14:09:29 Exp 73370 18 female R 1 2 21 moralSelf immoralOther mismatch m m 1 0.8006 
02-Jun-2018_14:09:31 Exp 73370 18 female R 1 2 22 moralSelf moralSelf match n n 1 0.7735 
02-Jun-2018_14:09:34 Exp 73370 18 female R 1 2 23 immoralSelf moralOther mismatch m NA -1 1.0841 
02-Jun-2018_14:09:36 Exp 73370 18 female R 1 2 24 moralSelf moralOther mismatch m m 1 0.7322 
Date Prac Sub Age Sex Hand Block Bin Trial Shape Label Match CorrResp Resp ACC RT
02-Jun-2018_14:14:01 Exp 73370 18 female R 1 1 1 immoralOther immoralOther match n y 2 0.9926 
02-Jun-2018_14:14:04 Exp 73370 18 female R 1 1 2 moralSelf moralOther mismatch m NA -1 1.0841 
02-Jun-2018_14:14:07 Exp 73370 18 female R 1 1 3 immoralSelf immoralSelf match n n 1 1.0598 
02-Jun-2018_14:14:09 Exp 73370 18 female R 1 1 4 moralSelf immoralOther mismatch m m 1 0.6698 
02-Jun-2018_14:14:11 Exp 73370 18 female R 1 1 5 immoralSelf immoralSelf match n n 1 0.7400 
02-Jun-2018_14:14:13 Exp 73370 18 female R 1 1 6 moralSelf moralSelf match n n 1 0.4516 
02-Jun-2018_14:14:16 Exp 73370 18 female R 1 1 7 immoralOther moralOther mismatch m m 1 0.6173 
02-Jun-2018_14:14:18 Exp 73370 18 female R 1 1 8 moralOther moralOther match n m 0 0.6823 
02-Jun-2018_14:14:20 Exp 73370 18 female R 1 1 9 immoralOther immoralSelf mismatch m m 1 0.7329 
02-Jun-2018_14:14:23 Exp 73370 18 female R 1 1 10 moralOther immoralOther mismatch m n 0 0.9282 
02-Jun-2018_14:14:25 Exp 73370 18 female R 1 1 11 immoralOther immoralOther match n n 1 0.7557 
02-Jun-2018_14:14:28 Exp 73370 18 female R 1 1 12 moralOther immoralSelf mismatch m NA -1 1.0841 
02-Jun-2018_14:14:30 Exp 73370 18 female R 1 1 13 moralSelf moralSelf match n n 1 0.4899 
02-Jun-2018_14:14:32 Exp 73370 18 female R 1 1 14 immoralOther immoralSelf mismatch m m 1 0.6923 
02-Jun-2018_14:14:35 Exp 73370 18 female R 1 1 15 immoralSelf immoralSelf match n n 1 0.7711 
02-Jun-2018_14:14:37 Exp 73370 18 female R 1 1 16 moralOther moralOther match n n 1 0.8911 
02-Jun-2018_14:14:40 Exp 73370 18 female R 1 1 17 immoralOther immoralOther match n n 1 0.8259 
02-Jun-2018_14:14:42 Exp 73370 18 female R 1 1 18 moralOther moralSelf mismatch m m 1 0.7111 
02-Jun-2018_14:14:44 Exp 73370 18 female R 1 1 19 moralSelf moralSelf match n n 1 0.4820 
02-Jun-2018_14:14:47 Exp 73370 18 female R 1 1 20 immoralSelf moralOther mismatch m m 1 0.6844 
02-Jun-2018_14:14:49 Exp 73370 18 female R 1 1 21 moralSelf immoralSelf mismatch m n 0 0.8709 
02-Jun-2018_14:14:51 Exp 73370 18 female R 1 1 22 immoralSelf moralOther mismatch m m 1 0.7652 
02-Jun-2018_14:14:54 Exp 73370 18 female R 1 1 23 moralOther moralOther match n m 0 0.8212 
02-Jun-2018_14:14:56 Exp 73370 18 female R 1 1 24 immoralSelf moralOther mismatch m m 1 0.9065 
02-Jun-2018_14:14:59 Exp 73370 18 female R 1 2 1 immoralOther immoralSelf mismatch m m 1 0.8134 
02-Jun-2018_14:15:01 Exp 73370 18 female R 1 2 2 moralSelf moralSelf match n n 1 0.5105 
02-Jun-2018_14:15:04 Exp 73370 18 female R 1 2 3 moralSelf immoralOther mismatch m m 1 1.0333 
02-Jun-2018_14:15:06 Exp 73370 18 female R 1 2 4 immoralOther immoralOther match n n 1 0.8669 
02-Jun-2018_14:15:09 Exp 73370 18 female R 1 2 5 moralOther moralOther match n m 0 0.8048 
02-Jun-2018_14:15:11 Exp 73370 18 female R 1 2 6 moralSelf moralSelf match n n 1 0.6018 
02-Jun-2018_14:15:14 Exp 73370 18 female R 1 2 7 immoralOther immoralSelf mismatch m NA -1 1.0841 
02-Jun-2018_14:15:16 Exp 73370 18 female R 1 2 8 immoralOther immoralOther match n n 1 0.8809 
02-Jun-2018_14:15:18 Exp 73370 18 female R 1 2 9 immoralSelf moralSelf mismatch m m 1 0.6433 
02-Jun-2018_14:15:21 Exp 73370 18 female R 1 2 10 moralOther immoralOther mismatch m n 0 0.8929 
02-Jun-2018_14:15:23 Exp 73370 18 female R 1 2 11 moralSelf moralOther mismatch m m 1 0.6835 
02-Jun-2018_14:15:26 Exp 73370 18 female R 1 2 12 immoralSelf immoralSelf match n n 1 0.9019 
02-Jun-2018_14:15:28 Exp 73370 18 female R 1 2 13 moralSelf immoralSelf mismatch m m 1 0.7807 
02-Jun-2018_14:15:31 Exp 73370 18 female R 1 2 14 immoralSelf immoralOther mismatch m n 0 0.8571 
02-Jun-2018_14:15:33 Exp 73370 18 female R 1 2 15 immoralSelf immoralSelf match n n 1 1.0030 
02-Jun-2018_14:15:36 Exp 73370 18 female R 1 2 16 moralOther moralOther match n m 0 0.7359 
02-Jun-2018_14:15:38 Exp 73370 18 female R 1 2 17 immoralSelf moralOther mismatch m m 1 0.9952 
02-Jun-2018_14:15:41 Exp 73370 18 female R 1 2 18 moralOther immoralSelf mismatch m NA -1 1.0841 
02-Jun-2018_14:15:43 Exp 73370 18 female R 1 2 19 immoralOther immoralOther match n n 1 0.7103 
02-Jun-2018_14:15:46 Exp 73370 18 female R 1 2 20 moralOther moralOther match n m 0 0.6411 
02-Jun-2018_14:15:48 Exp 73370 18 female R 1 2 21 moralOther immoralOther mismatch m NA -1 1.0841 
02-Jun-2018_14:15:51 Exp 73370 18 female R 1 2 22 immoralOther immoralSelf mismatch m m 1 0.7971 
02-Jun-2018_14:15:53 Exp 73370 18 female R 1 2 23 moralSelf moralSelf match n n 1 0.6899 
02-Jun-2018_14:15:55 Exp 73370 18 female R 1 2 24 immoralSelf immoralSelf match n n 1 0.7484 
Date Prac Sub Age Sex Hand Block Bin Trial Shape Label Match CorrResp Resp ACC RT
02-Jun-2018_14:20:11 Exp 73370 18 female R 1 1 1 moralOther moralOther match n m 0 0.8188 
02-Jun-2018_14:20:14 Exp 73370 18 female R 1 1 2 immoralSelf immoralOther mismatch m m 1 0.9718 
02-Jun-2018_14:20:16 Exp 73370 18 female R 1 1 3 immoralOther immoralOther match n n 1 0.8679 
02-Jun-2018_14:20:19 Exp 73370 18 female R 1 1 4 moralSelf moralSelf match n n 1 0.6661 
02-Jun-2018_14:20:21 Exp 73370 18 female R 1 1 5 immoralSelf moralOther mismatch m m 1 0.9641 
02-Jun-2018_14:20:24 Exp 73370 18 female R 1 1 6 moralSelf immoralSelf mismatch m m 1 0.7642 
02-Jun-2018_14:20:26 Exp 73370 18 female R 1 1 7 moralSelf moralOther mismatch m m 1 0.7483 
02-Jun-2018_14:20:28 Exp 73370 18 female R 1 1 8 immoralSelf moralSelf mismatch m n 0 0.6679 
02-Jun-2018_14:20:31 Exp 73370 18 female R 1 1 9 immoralOther moralOther mismatch m m 1 0.8741 
02-Jun-2018_14:20:33 Exp 73370 18 female R 1 1 10 moralSelf moralSelf match n n 1 0.7364 
02-Jun-2018_14:20:36 Exp 73370 18 female R 1 1 11 immoralOther immoralOther match n m 0 0.7797 
02-Jun-2018_14:20:38 Exp 73370 18 female R 1 1 12 immoralSelf immoralSelf match n n 1 0.7601 
02-Jun-2018_14:20:40 Exp 73370 18 female R 1 1 13 moralOther moralOther match n m 0 0.7640 
02-Jun-2018_14:20:43 Exp 73370 18 female R 1 1 14 immoralOther immoralOther match n n 1 0.8201 
02-Jun-2018_14:20:45 Exp 73370 18 female R 1 1 15 moralOther immoralSelf mismatch m m 1 0.7171 
02-Jun-2018_14:20:48 Exp 73370 18 female R 1 1 16 moralOther immoralSelf mismatch m m 1 0.9802 
02-Jun-2018_14:20:50 Exp 73370 18 female R 1 1 17 moralOther immoralOther mismatch m NA -1 1.0841 
02-Jun-2018_14:20:53 Exp 73370 18 female R 1 1 18 immoralOther immoralSelf mismatch m m 1 0.7391 
02-Jun-2018_14:20:55 Exp 73370 18 female R 1 1 19 immoralSelf immoralSelf match n n 1 0.6586 
02-Jun-2018_14:20:58 Exp 73370 18 female R 1 1 20 moralSelf immoralOther mismatch m m 1 0.8685 
02-Jun-2018_14:21:00 Exp 73370 18 female R 1 1 21 immoralOther moralOther mismatch m m 1 0.7228 
02-Jun-2018_14:21:02 Exp 73370 18 female R 1 1 22 immoralSelf immoralSelf match n n 1 0.7300 
02-Jun-2018_14:21:05 Exp 73370 18 female R 1 1 23 moralSelf moralSelf match n n 1 0.7654 
02-Jun-2018_14:21:07 Exp 73370 18 female R 1 1 24 moralOther moralOther match n NA -1 1.0841 
02-Jun-2018_14:21:10 Exp 73370 18 female R 1 2 1 immoralSelf immoralSelf match n NA -1 1.0841 
02-Jun-2018_14:21:12 Exp 73370 18 female R 1 2 2 moralSelf moralSelf match n n 1 0.5544 
02-Jun-2018_14:21:15 Exp 73370 18 female R 1 2 3 moralOther moralOther match n m 0 0.6142 
02-Jun-2018_14:21:17 Exp 73370 18 female R 1 2 4 moralOther moralSelf mismatch m m 1 0.7034 
02-Jun-2018_14:21:19 Exp 73370 18 female R 1 2 5 moralOther moralSelf mismatch m m 1 0.7062 
02-Jun-2018_14:21:21 Exp 73370 18 female R 1 2 6 moralOther moralSelf mismatch m m 1 0.5011 
02-Jun-2018_14:21:24 Exp 73370 18 female R 1 2 7 immoralOther immoralSelf mismatch m m 1 0.7638 
02-Jun-2018_14:21:26 Exp 73370 18 female R 1 2 8 immoralOther immoralOther match n n 1 0.7478 
02-Jun-2018_14:21:29 Exp 73370 18 female R 1 2 9 moralOther moralOther match n n 1 1.0194 
02-Jun-2018_14:21:31 Exp 73370 18 female R 1 2 10 moralSelf moralSelf match n n 1 0.6045 
02-Jun-2018_14:21:34 Exp 73370 18 female R 1 2 11 immoralSelf immoralOther mismatch m m 1 0.8653 
02-Jun-2018_14:21:36 Exp 73370 18 female R 1 2 12 moralSelf moralOther mismatch m m 1 0.9873 
02-Jun-2018_14:21:39 Exp 73370 18 female R 1 2 13 moralOther moralOther match n NA -1 1.0841 
02-Jun-2018_14:21:41 Exp 73370 18 female R 1 2 14 immoralOther immoralOther match n n 1 0.8783 
02-Jun-2018_14:21:44 Exp 73370 18 female R 1 2 15 immoralSelf immoralOther mismatch m m 1 0.6526 
02-Jun-2018_14:21:46 Exp 73370 18 female R 1 2 16 immoralOther immoralSelf mismatch m m 1 0.8743 
02-Jun-2018_14:21:49 Exp 73370 18 female R 1 2 17 immoralOther immoralOther match n NA -1 1.0841 
02-Jun-2018_14:21:51 Exp 73370 18 female R 1 2 18 moralSelf moralOther mismatch m m 1 0.6990 
02-Jun-2018_14:21:53 Exp 73370 18 female R 1 2 19 moralSelf moralSelf match n n 1 0.5616 
02-Jun-2018_14:21:56 Exp 73370 18 female R 1 2 20 immoralSelf moralOther mismatch m m 1 0.6934 
02-Jun-2018_14:21:58 Exp 73370 18 female R 1 2 21 moralSelf moralOther mismatch m m 1 0.7962 
02-Jun-2018_14:22:01 Exp 73370 18 female R 1 2 22 immoralSelf immoralSelf match n n 1 0.7488 
02-Jun-2018_14:22:03 Exp 73370 18 female R 1 2 23 immoralOther moralSelf mismatch m n 0 0.9563 
02-Jun-2018_14:22:05 Exp 73370 18 female R 1 2 24 immoralSelf immoralSelf match n n 1 0.6882 
Date Prac Sub Age Sex Hand Block Bin Trial Shape Label Match CorrResp Resp ACC RT
02-Jun-2018_14:26:27 Exp 73370 18 female R 1 1 1 moralOther moralOther match n n 1 0.9339 
02-Jun-2018_14:26:30 Exp 73370 18 female R 1 1 2 moralOther immoralSelf mismatch m m 1 0.8653 
02-Jun-2018_14:26:33 Exp 73370 18 female R 1 1 3 moralSelf immoralOther mismatch m m 1 1.0512 
02-Jun-2018_14:26:35 Exp 73370 18 female R 1 1 4 moralSelf moralSelf match n n 1 0.5610 
02-Jun-2018_14:26:37 Exp 73370 18 female R 1 1 5 moralSelf immoralSelf mismatch m m 1 0.5330 
02-Jun-2018_14:26:39 Exp 73370 18 female R 1 1 6 immoralOther immoralSelf mismatch m m 1 0.6802 
02-Jun-2018_14:26:42 Exp 73370 18 female R 1 1 7 immoralSelf moralSelf mismatch m m 1 0.7227 
02-Jun-2018_14:26:44 Exp 73370 18 female R 1 1 8 immoralSelf moralOther mismatch m m 1 0.8578 
02-Jun-2018_14:26:47 Exp 73370 18 female R 1 1 9 immoralSelf immoralOther mismatch m m 1 1.0439 
02-Jun-2018_14:26:49 Exp 73370 18 female R 1 1 10 immoralOther immoralOther match n m 0 1.0213 
02-Jun-2018_14:26:52 Exp 73370 18 female R 1 1 11 immoralOther moralOther mismatch m m 1 0.8265 
02-Jun-2018_14:26:54 Exp 73370 18 female R 1 1 12 moralSelf moralSelf match n n 1 0.5199 
02-Jun-2018_14:26:57 Exp 73370 18 female R 1 1 13 immoralOther immoralOther match n m 0 0.9030 
02-Jun-2018_14:26:59 Exp 73370 18 female R 1 1 14 moralSelf immoralOther mismatch m m 1 1.0339 
02-Jun-2018_14:27:02 Exp 73370 18 female R 1 1 15 moralOther moralOther match n m 0 0.8355 
02-Jun-2018_14:27:04 Exp 73370 18 female R 1 1 16 immoralSelf immoralSelf match n n 1 0.7890 
02-Jun-2018_14:27:07 Exp 73370 18 female R 1 1 17 moralOther immoralOther mismatch m NA -1 1.0841 
02-Jun-2018_14:27:10 Exp 73370 18 female R 1 1 18 immoralOther moralOther mismatch m m 1 1.0800 
02-Jun-2018_14:27:12 Exp 73370 18 female R 1 1 19 moralOther moralOther match n n 1 1.0024 
02-Jun-2018_14:27:15 Exp 73370 18 female R 1 1 20 immoralOther immoralOther match n n 1 1.0233 
02-Jun-2018_14:27:17 Exp 73370 18 female R 1 1 21 moralSelf moralSelf match n n 1 0.6606 
02-Jun-2018_14:27:20 Exp 73370 18 female R 1 1 22 immoralSelf immoralSelf match n n 1 0.8785 
02-Jun-2018_14:27:22 Exp 73370 18 female R 1 1 23 immoralSelf immoralSelf match n n 1 0.7727 
02-Jun-2018_14:27:24 Exp 73370 18 female R 1 1 24 moralOther moralSelf mismatch m m 1 0.6768 
02-Jun-2018_14:27:27 Exp 73370 18 female R 1 2 1 moralSelf moralSelf match n n 1 0.5551 
02-Jun-2018_14:27:29 Exp 73370 18 female R 1 2 2 immoralOther immoralSelf mismatch m m 1 0.7829 
02-Jun-2018_14:27:31 Exp 73370 18 female R 1 2 3 immoralSelf immoralSelf match n n 1 0.6593 
02-Jun-2018_14:27:34 Exp 73370 18 female R 1 2 4 immoralSelf immoralSelf match n n 1 0.6372 
02-Jun-2018_14:27:36 Exp 73370 18 female R 1 2 5 immoralSelf immoralSelf match n n 1 0.6067 
02-Jun-2018_14:27:38 Exp 73370 18 female R 1 2 6 moralSelf immoralOther mismatch m m 1 0.9556 
02-Jun-2018_14:27:41 Exp 73370 18 female R 1 2 7 immoralOther immoralSelf mismatch m m 1 0.8154 
02-Jun-2018_14:27:43 Exp 73370 18 female R 1 2 8 immoralOther immoralOther match n m 0 0.9845 
02-Jun-2018_14:27:46 Exp 73370 18 female R 1 2 9 moralOther moralOther match n n 1 0.8448 
02-Jun-2018_14:27:49 Exp 73370 18 female R 1 2 10 moralOther moralOther match n NA -1 1.0841 
02-Jun-2018_14:27:51 Exp 73370 18 female R 1 2 11 immoralOther immoralOther match n n 1 0.8289 
02-Jun-2018_14:27:54 Exp 73370 18 female R 1 2 12 moralOther moralSelf mismatch m m 1 0.7782 
02-Jun-2018_14:27:56 Exp 73370 18 female R 1 2 13 moralOther immoralSelf mismatch m n 0 1.0705 
02-Jun-2018_14:27:59 Exp 73370 18 female R 1 2 14 moralSelf immoralOther mismatch m m 1 0.8528 
02-Jun-2018_14:28:01 Exp 73370 18 female R 1 2 15 moralSelf immoralOther mismatch m m 1 0.7226 
02-Jun-2018_14:28:04 Exp 73370 18 female R 1 2 16 moralOther moralOther match n NA -1 1.0841 
02-Jun-2018_14:28:06 Exp 73370 18 female R 1 2 17 moralSelf moralSelf match n n 1 0.6281 
02-Jun-2018_14:28:09 Exp 73370 18 female R 1 2 18 moralOther immoralSelf mismatch m n 0 0.9854 
02-Jun-2018_14:28:11 Exp 73370 18 female R 1 2 19 immoralOther immoralOther match n n 1 0.9779 
02-Jun-2018_14:28:14 Exp 73370 18 female R 1 2 20 immoralSelf moralOther mismatch m m 1 0.8543 
02-Jun-2018_14:28:16 Exp 73370 18 female R 1 2 21 immoralSelf moralOther mismatch m m 1 0.6761 
02-Jun-2018_14:28:18 Exp 73370 18 female R 1 2 22 moralSelf moralSelf match n n 1 0.5623 
02-Jun-2018_14:28:21 Exp 73370 18 female R 1 2 23 immoralSelf immoralOther mismatch m m 1 0.9464 
02-Jun-2018_14:28:23 Exp 73370 18 female R 1 2 24 immoralOther moralOther mismatch m m 1 0.8020 
Date Prac Sub Age Sex Hand Block Bin Trial Shape Label Match CorrResp Resp ACC RT
02-Jun-2018_14:32:37 Exp 73370 18 female R 1 1 1 immoralSelf immoralSelf match n n 1 0.8985 
02-Jun-2018_14:32:39 Exp 73370 18 female R 1 1 2 moralSelf immoralSelf mismatch m m 1 0.7293 
02-Jun-2018_14:32:42 Exp 73370 18 female R 1 1 3 immoralOther immoralOther match n n 1 0.8446 
02-Jun-2018_14:32:44 Exp 73370 18 female R 1 1 4 moralOther immoralSelf mismatch m m 1 0.9545 
02-Jun-2018_14:32:47 Exp 73370 18 female R 1 1 5 moralSelf moralSelf match n n 1 0.5664 
02-Jun-2018_14:32:49 Exp 73370 18 female R 1 1 6 moralSelf moralSelf match n n 1 0.5745 
02-Jun-2018_14:32:51 Exp 73370 18 female R 1 1 7 moralSelf immoralSelf mismatch m m 1 0.7227 
02-Jun-2018_14:32:54 Exp 73370 18 female R 1 1 8 immoralSelf moralOther mismatch m m 1 0.9699 
02-Jun-2018_14:32:56 Exp 73370 18 female R 1 1 9 moralOther moralOther match n n 1 0.7860 
02-Jun-2018_14:32:58 Exp 73370 18 female R 1 1 10 moralSelf moralSelf match n n 1 0.6585 
02-Jun-2018_14:33:01 Exp 73370 18 female R 1 1 11 immoralOther moralOther mismatch m m 1 0.7566 
02-Jun-2018_14:33:03 Exp 73370 18 female R 1 1 12 moralOther moralSelf mismatch m m 1 0.7523 
02-Jun-2018_14:33:06 Exp 73370 18 female R 1 1 13 immoralSelf immoralSelf match n n 1 0.7082 
02-Jun-2018_14:33:08 Exp 73370 18 female R 1 1 14 immoralOther moralSelf mismatch m m 1 0.5991 
02-Jun-2018_14:33:11 Exp 73370 18 female R 1 1 15 moralOther moralOther match n NA -1 1.0841 
02-Jun-2018_14:33:13 Exp 73370 18 female R 1 1 16 moralOther immoralOther mismatch m m 1 1.0623 
02-Jun-2018_14:33:16 Exp 73370 18 female R 1 1 17 immoralSelf immoralOther mismatch m m 1 0.9283 
02-Jun-2018_14:33:18 Exp 73370 18 female R 1 1 18 immoralOther immoralOther match n n 1 0.7478 
02-Jun-2018_14:33:21 Exp 73370 18 female R 1 1 19 immoralOther immoralOther match n n 1 0.7315 
02-Jun-2018_14:33:23 Exp 73370 18 female R 1 1 20 immoralSelf immoralSelf match n n 1 0.8068 
02-Jun-2018_14:33:25 Exp 73370 18 female R 1 1 21 immoralSelf moralOther mismatch m m 1 0.6676 
02-Jun-2018_14:33:28 Exp 73370 18 female R 1 1 22 moralOther moralOther match n m 0 0.8818 
02-Jun-2018_14:33:30 Exp 73370 18 female R 1 1 23 moralSelf moralOther mismatch m m 1 0.8603 
02-Jun-2018_14:33:33 Exp 73370 18 female R 1 1 24 immoralOther moralOther mismatch m m 1 0.7742 
02-Jun-2018_14:33:35 Exp 73370 18 female R 1 2 1 immoralOther immoralOther match n n 1 0.6905 
02-Jun-2018_14:33:37 Exp 73370 18 female R 1 2 2 immoralSelf immoralSelf match n m 0 0.7410 
02-Jun-2018_14:33:40 Exp 73370 18 female R 1 2 3 immoralOther immoralOther match n m 0 0.7407 
02-Jun-2018_14:33:42 Exp 73370 18 female R 1 2 4 moralSelf immoralOther mismatch m m 1 0.9082 
02-Jun-2018_14:33:45 Exp 73370 18 female R 1 2 5 immoralOther moralOther mismatch m m 1 0.8713 
02-Jun-2018_14:33:47 Exp 73370 18 female R 1 2 6 immoralSelf moralOther mismatch m m 1 0.8214 
02-Jun-2018_14:33:49 Exp 73370 18 female R 1 2 7 moralSelf moralSelf match n n 1 0.5067 
02-Jun-2018_14:33:52 Exp 73370 18 female R 1 2 8 immoralSelf immoralSelf match n n 1 0.6776 
02-Jun-2018_14:33:54 Exp 73370 18 female R 1 2 9 immoralSelf moralSelf mismatch m m 1 0.7236 
02-Jun-2018_14:33:57 Exp 73370 18 female R 1 2 10 moralSelf immoralOther mismatch m m 1 0.9309 
02-Jun-2018_14:33:59 Exp 73370 18 female R 1 2 11 moralOther moralOther match n m 0 0.6943 
02-Jun-2018_14:34:01 Exp 73370 18 female R 1 2 12 moralOther immoralSelf mismatch m n 0 0.6450 
02-Jun-2018_14:34:04 Exp 73370 18 female R 1 2 13 moralSelf immoralSelf mismatch m m 1 0.8908 
02-Jun-2018_14:34:06 Exp 73370 18 female R 1 2 14 moralOther moralOther match n n 1 0.9332 
02-Jun-2018_14:34:09 Exp 73370 18 female R 1 2 15 immoralSelf immoralOther mismatch m m 1 0.8407 
02-Jun-2018_14:34:11 Exp 73370 18 female R 1 2 16 moralSelf moralSelf match n n 1 0.5540 
02-Jun-2018_14:34:13 Exp 73370 18 female R 1 2 17 moralOther moralSelf mismatch m m 1 0.7341 
02-Jun-2018_14:34:16 Exp 73370 18 female R 1 2 18 immoralOther moralOther mismatch m m 1 0.6733 
02-Jun-2018_14:34:18 Exp 73370 18 female R 1 2 19 immoralOther immoralOther match n n 1 0.7276 
02-Jun-2018_14:34:20 Exp 73370 18 female R 1 2 20 immoralSelf immoralSelf match n m 0 0.7389 
02-Jun-2018_14:34:23 Exp 73370 18 female R 1 2 21 moralOther moralOther match n m 0 0.7866 
02-Jun-2018_14:34:25 Exp 73370 18 female R 1 2 22 moralOther immoralSelf mismatch m m 1 0.9711 
02-Jun-2018_14:34:28 Exp 73370 18 female R 1 2 23 moralSelf moralSelf match n n 1 0.6352 
02-Jun-2018_14:34:30 Exp 73370 18 female R 1 2 24 immoralOther immoralSelf mismatch m NA -1 1.0841 