Date Sub Age Sex Hand Block Bin Trial Task Shape corrResp Resp ACC RT
10-May-2018_13:42:56 7308 20 female R 1 1 1 self immoralSelf H h 1 0.4923 
10-May-2018_13:42:58 7308 20 female R 1 1 2 self moralOther J j 1 0.5504 
10-May-2018_13:43:01 7308 20 female R 1 1 3 self immoralSelf H h 1 0.6325 
10-May-2018_13:43:02 7308 20 female R 1 1 4 self moralSelf H h 1 0.5107 
10-May-2018_13:43:04 7308 20 female R 1 1 5 self moralOther J j 1 0.7727 
10-May-2018_13:43:06 7308 20 female R 1 1 6 self immoralOther J j 1 0.5249 
10-May-2018_13:43:08 7308 20 female R 1 1 7 self moralSelf H h 1 0.5610 
10-May-2018_13:43:10 7308 20 female R 1 1 8 self moralOther J j 1 0.6711 
10-May-2018_13:43:12 7308 20 female R 1 1 9 self moralSelf H h 1 0.5732 
10-May-2018_13:43:14 7308 20 female R 1 1 10 self immoralOther J j 1 0.5014 
10-May-2018_13:43:15 7308 20 female R 1 1 11 self immoralSelf H h 1 0.3494 
10-May-2018_13:43:17 7308 20 female R 1 1 12 self moralOther J j 1 0.5855 
10-May-2018_13:43:19 7308 20 female R 1 1 13 self immoralOther J j 1 0.4456 
10-May-2018_13:43:21 7308 20 female R 1 1 14 self moralSelf H h 1 0.5497 
10-May-2018_13:43:22 7308 20 female R 1 1 15 self immoralOther J j 1 0.5519 
10-May-2018_13:43:24 7308 20 female R 1 1 16 self moralOther J j 1 0.6459 
10-May-2018_13:43:26 7308 20 female R 1 1 17 self moralOther J j 1 0.8740 
10-May-2018_13:43:28 7308 20 female R 1 1 18 self immoralOther J j 1 0.6382 
10-May-2018_13:43:30 7308 20 female R 1 1 19 self immoralSelf H h 1 0.4742 
10-May-2018_13:43:31 7308 20 female R 1 1 20 self immoralOther J j 1 0.5103 
10-May-2018_13:43:33 7308 20 female R 1 1 21 self moralSelf H h 1 0.4304 
10-May-2018_13:43:35 7308 20 female R 1 1 22 self immoralSelf H h 1 0.3585 
10-May-2018_13:43:37 7308 20 female R 1 1 23 self immoralSelf H h 1 0.5186 
10-May-2018_13:43:38 7308 20 female R 1 1 24 self moralSelf H h 1 0.3448 
10-May-2018_13:43:40 7308 20 female R 1 2 1 self immoralOther J j 1 0.4648 
10-May-2018_13:43:42 7308 20 female R 1 2 2 self immoralOther J j 1 0.3869 
10-May-2018_13:43:43 7308 20 female R 1 2 3 self moralSelf H h 1 0.5510 
10-May-2018_13:43:45 7308 20 female R 1 2 4 self immoralSelf H h 1 0.5591 
10-May-2018_13:43:47 7308 20 female R 1 2 5 self moralSelf H h 1 0.4092 
10-May-2018_13:43:48 7308 20 female R 1 2 6 self immoralSelf H h 1 0.3310 
10-May-2018_13:43:50 7308 20 female R 1 2 7 self immoralOther J h 0 0.3574 
10-May-2018_13:43:51 7308 20 female R 1 2 8 self moralOther J j 1 0.7395 
10-May-2018_13:43:53 7308 20 female R 1 2 9 self moralSelf H h 1 0.4876 
10-May-2018_13:43:55 7308 20 female R 1 2 10 self moralOther J j 1 0.4977 
10-May-2018_13:43:57 7308 20 female R 1 2 11 self immoralSelf H h 1 0.5758 
10-May-2018_13:43:58 7308 20 female R 1 2 12 self immoralSelf H h 1 0.6360 
10-May-2018_13:44:00 7308 20 female R 1 2 13 self immoralSelf H h 1 0.4339 
10-May-2018_13:44:02 7308 20 female R 1 2 14 self moralOther J j 1 0.2941 
10-May-2018_13:44:03 7308 20 female R 1 2 15 self immoralSelf H h 1 0.4582 
10-May-2018_13:44:05 7308 20 female R 1 2 16 self immoralOther J j 1 0.5522 
10-May-2018_13:44:07 7308 20 female R 1 2 17 self moralSelf H h 1 0.5264 
10-May-2018_13:44:09 7308 20 female R 1 2 18 self moralSelf H h 1 0.5384 
10-May-2018_13:44:11 7308 20 female R 1 2 19 self immoralOther J j 1 0.5005 
10-May-2018_13:44:12 7308 20 female R 1 2 20 self moralOther J j 1 0.4167 
10-May-2018_13:44:14 7308 20 female R 1 2 21 self moralOther J j 1 0.4647 
10-May-2018_13:44:16 7308 20 female R 1 2 22 self moralSelf H h 1 0.5130 
10-May-2018_13:44:18 7308 20 female R 1 2 23 self moralOther J h 0 0.4829 
10-May-2018_13:44:19 7308 20 female R 1 2 24 self immoralOther J j 1 0.8031 
10-May-2018_13:44:30 7308 20 female R 1 3 1 self moralOther J j 1 0.4316 
10-May-2018_13:44:32 7308 20 female R 1 3 2 self moralSelf H h 1 0.4578 
10-May-2018_13:44:34 7308 20 female R 1 3 3 self immoralSelf H h 1 0.5579 
10-May-2018_13:44:35 7308 20 female R 1 3 4 self immoralSelf H h 1 0.3379 
10-May-2018_13:44:36 7308 20 female R 1 3 5 self immoralSelf H h 1 0.4700 
10-May-2018_13:44:38 7308 20 female R 1 3 6 self moralSelf H h 1 0.4601 
10-May-2018_13:44:40 7308 20 female R 1 3 7 self moralOther J j 1 0.3742 
10-May-2018_13:44:42 7308 20 female R 1 3 8 self immoralOther J j 1 0.3803 
10-May-2018_13:44:43 7308 20 female R 1 3 9 self moralSelf H h 1 0.3844 
10-May-2018_13:44:45 7308 20 female R 1 3 10 self immoralOther J j 1 0.4086 
10-May-2018_13:44:47 7308 20 female R 1 3 11 self immoralOther J j 1 0.4087 
10-May-2018_13:44:49 7308 20 female R 1 3 12 self immoralOther J j 1 0.2927 
10-May-2018_13:44:50 7308 20 female R 1 3 13 self moralSelf H h 1 0.4148 
10-May-2018_13:44:52 7308 20 female R 1 3 14 self immoralOther J j 1 0.4789 
10-May-2018_13:44:54 7308 20 female R 1 3 15 self moralSelf H h 1 0.4130 
10-May-2018_13:44:56 7308 20 female R 1 3 16 self moralSelf H h 1 0.3712 
10-May-2018_13:44:58 7308 20 female R 1 3 17 self immoralOther J j 1 0.4492 
10-May-2018_13:45:00 7308 20 female R 1 3 18 self moralOther J j 1 0.7012 
10-May-2018_13:45:01 7308 20 female R 1 3 19 self moralOther J j 1 0.6134 
10-May-2018_13:45:03 7308 20 female R 1 3 20 self moralOther J j 1 0.4236 
10-May-2018_13:45:05 7308 20 female R 1 3 21 self immoralSelf H j 0 0.3176 
10-May-2018_13:45:06 7308 20 female R 1 3 22 self immoralSelf H j 0 0.4997 
10-May-2018_13:45:08 7308 20 female R 1 3 23 self immoralSelf H h 1 0.4339 
10-May-2018_13:45:10 7308 20 female R 1 3 24 self moralOther J h 0 0.3499 
10-May-2018_13:45:12 7308 20 female R 1 4 1 self moralSelf H h 1 0.4320 
10-May-2018_13:45:13 7308 20 female R 1 4 2 self immoralSelf H h 1 0.3442 
10-May-2018_13:45:15 7308 20 female R 1 4 3 self immoralOther J j 1 0.4462 
10-May-2018_13:45:17 7308 20 female R 1 4 4 self immoralSelf H h 1 0.5244 
10-May-2018_13:45:19 7308 20 female R 1 4 5 self immoralOther J j 1 0.5024 
10-May-2018_13:45:21 7308 20 female R 1 4 6 self moralSelf H h 1 0.4666 
10-May-2018_13:45:22 7308 20 female R 1 4 7 self moralSelf H h 1 0.3786 
10-May-2018_13:45:24 7308 20 female R 1 4 8 self immoralSelf H h 1 0.3526 
10-May-2018_13:45:25 7308 20 female R 1 4 9 self moralOther J j 1 0.4207 
10-May-2018_13:45:27 7308 20 female R 1 4 10 self moralSelf H h 1 0.4929 
10-May-2018_13:45:29 7308 20 female R 1 4 11 self immoralSelf H h 1 0.2930 
10-May-2018_13:45:31 7308 20 female R 1 4 12 self immoralOther J j 1 0.5051 
10-May-2018_13:45:33 7308 20 female R 1 4 13 self immoralSelf H h 1 0.4872 
10-May-2018_13:45:34 7308 20 female R 1 4 14 self immoralOther J j 1 0.3214 
10-May-2018_13:45:36 7308 20 female R 1 4 15 self moralSelf H h 1 0.3974 
10-May-2018_13:45:37 7308 20 female R 1 4 16 self immoralSelf H h 1 0.4876 
10-May-2018_13:45:39 7308 20 female R 1 4 17 self moralOther J j 1 0.4836 
10-May-2018_13:45:41 7308 20 female R 1 4 18 self moralOther J j 1 0.4857 
10-May-2018_13:45:43 7308 20 female R 1 4 19 self immoralOther J j 1 0.7078 
10-May-2018_13:45:45 7308 20 female R 1 4 20 self moralOther J j 1 0.5119 
10-May-2018_13:45:47 7308 20 female R 1 4 21 self moralSelf H h 1 0.3900 
10-May-2018_13:45:48 7308 20 female R 1 4 22 self immoralOther J j 1 0.4921 
10-May-2018_13:45:50 7308 20 female R 1 4 23 self moralOther J j 1 0.6982 
10-May-2018_13:45:52 7308 20 female R 1 4 24 self moralOther J j 1 0.5063 
10-May-2018_13:46:04 7308 20 female R 1 5 1 self moralOther J j 1 0.4664 
10-May-2018_13:46:06 7308 20 female R 1 5 2 self moralSelf H h 1 0.5170 
10-May-2018_13:46:07 7308 20 female R 1 5 3 self immoralOther J j 1 0.5552 
10-May-2018_13:46:09 7308 20 female R 1 5 4 self moralSelf H h 1 0.4352 
10-May-2018_13:46:11 7308 20 female R 1 5 5 self immoralOther J j 1 0.4494 
10-May-2018_13:46:12 7308 20 female R 1 5 6 self immoralOther J j 1 0.4395 
10-May-2018_13:46:14 7308 20 female R 1 5 7 self immoralOther J j 1 0.3115 
10-May-2018_13:46:15 7308 20 female R 1 5 8 self moralSelf H h 1 0.4636 
10-May-2018_13:46:17 7308 20 female R 1 5 9 self moralSelf H h 1 0.3538 
10-May-2018_13:46:18 7308 20 female R 1 5 10 self moralOther J j 1 0.6098 
10-May-2018_13:46:20 7308 20 female R 1 5 11 self moralOther J j 1 0.3999 
10-May-2018_13:46:22 7308 20 female R 1 5 12 self immoralSelf H h 1 0.4620 
10-May-2018_13:46:23 7308 20 female R 1 5 13 self immoralSelf H h 1 0.4822 
10-May-2018_13:46:25 7308 20 female R 1 5 14 self immoralSelf H h 1 0.4222 
10-May-2018_13:46:26 7308 20 female R 1 5 15 self immoralOther J j 1 0.4423 
10-May-2018_13:46:28 7308 20 female R 1 5 16 self moralOther J j 1 0.4024 
10-May-2018_13:46:30 7308 20 female R 1 5 17 self immoralSelf H h 1 0.5784 
10-May-2018_13:46:32 7308 20 female R 1 5 18 self moralOther J j 1 0.5866 
10-May-2018_13:46:34 7308 20 female R 1 5 19 self immoralSelf H h 1 0.5167 
10-May-2018_13:46:36 7308 20 female R 1 5 20 self moralOther J j 1 0.4809 
10-May-2018_13:46:38 7308 20 female R 1 5 21 self immoralOther J j 1 0.5189 
10-May-2018_13:46:39 7308 20 female R 1 5 22 self moralSelf H h 1 0.4891 
10-May-2018_13:46:41 7308 20 female R 1 5 23 self moralSelf H h 1 0.3331 
10-May-2018_13:46:43 7308 20 female R 1 5 24 self immoralSelf H h 1 0.6072 
Date Sub Age Sex Hand Block Bin Trial Task Shape corrResp Resp ACC RT
10-May-2018_13:49:24 7308 20 female R 2 1 1 moral immoralOther U u 1 0.5763 
10-May-2018_13:49:26 7308 20 female R 2 1 2 moral immoralOther U u 1 0.4504 
10-May-2018_13:49:28 7308 20 female R 2 1 3 moral immoralSelf U u 1 0.7145 
10-May-2018_13:49:29 7308 20 female R 2 1 4 moral moralSelf Y y 1 0.5367 
10-May-2018_13:49:31 7308 20 female R 2 1 5 moral moralOther Y y 1 0.4268 
10-May-2018_13:49:33 7308 20 female R 2 1 6 moral immoralSelf U u 1 0.6050 
10-May-2018_13:49:35 7308 20 female R 2 1 7 moral moralOther Y u 0 0.9770 
10-May-2018_13:49:38 7308 20 female R 2 1 8 moral moralOther Y y 1 0.6591 
10-May-2018_13:49:39 7308 20 female R 2 1 9 moral immoralSelf U u 1 0.5692 
10-May-2018_13:49:41 7308 20 female R 2 1 10 moral moralSelf Y y 1 0.4453 
10-May-2018_13:49:43 7308 20 female R 2 1 11 moral moralSelf Y y 1 0.4474 
10-May-2018_13:49:45 7308 20 female R 2 1 12 moral immoralOther U u 1 0.4775 
10-May-2018_13:49:46 7308 20 female R 2 1 13 moral immoralSelf U u 1 0.4434 
10-May-2018_13:49:48 7308 20 female R 2 1 14 moral moralSelf Y y 1 0.5237 
10-May-2018_13:49:50 7308 20 female R 2 1 15 moral moralOther Y y 1 0.7959 
10-May-2018_13:49:52 7308 20 female R 2 1 16 moral moralSelf Y y 1 0.5019 
10-May-2018_13:49:53 7308 20 female R 2 1 17 moral immoralOther U u 1 0.5061 
10-May-2018_13:49:56 7308 20 female R 2 1 18 moral moralOther Y y 1 0.8221 
10-May-2018_13:49:58 7308 20 female R 2 1 19 moral immoralOther U u 1 0.4883 
10-May-2018_13:50:00 7308 20 female R 2 1 20 moral immoralSelf U u 1 0.8464 
10-May-2018_13:50:01 7308 20 female R 2 1 21 moral moralSelf Y y 1 0.4285 
10-May-2018_13:50:03 7308 20 female R 2 1 22 moral immoralSelf U u 1 0.6366 
10-May-2018_13:50:05 7308 20 female R 2 1 23 moral moralOther Y y 1 0.7127 
10-May-2018_13:50:07 7308 20 female R 2 1 24 moral immoralOther U u 1 0.4948 
10-May-2018_13:50:09 7308 20 female R 2 2 1 moral moralSelf Y y 1 0.5129 
10-May-2018_13:50:11 7308 20 female R 2 2 2 moral immoralSelf U u 1 0.5831 
10-May-2018_13:50:12 7308 20 female R 2 2 3 moral moralSelf Y y 1 0.5011 
10-May-2018_13:50:14 7308 20 female R 2 2 4 moral moralSelf Y y 1 0.5492 
10-May-2018_13:50:16 7308 20 female R 2 2 5 moral immoralSelf U u 1 0.5173 
10-May-2018_13:50:17 7308 20 female R 2 2 6 moral moralSelf Y y 1 0.5474 
10-May-2018_13:50:19 7308 20 female R 2 2 7 moral immoralSelf U u 1 0.6215 
10-May-2018_13:50:21 7308 20 female R 2 2 8 moral immoralSelf U u 1 0.5296 
10-May-2018_13:50:23 7308 20 female R 2 2 9 moral immoralOther U u 1 0.3597 
10-May-2018_13:50:24 7308 20 female R 2 2 10 moral moralOther Y u 0 0.5218 
10-May-2018_13:50:26 7308 20 female R 2 2 11 moral moralSelf Y y 1 0.5079 
10-May-2018_13:50:28 7308 20 female R 2 2 12 moral moralSelf Y y 1 0.4100 
10-May-2018_13:50:30 7308 20 female R 2 2 13 moral immoralOther U u 1 0.5461 
10-May-2018_13:50:32 7308 20 female R 2 2 14 moral moralOther Y y 1 0.3683 
10-May-2018_13:50:34 7308 20 female R 2 2 15 moral immoralSelf U u 1 0.5067 
10-May-2018_13:50:35 7308 20 female R 2 2 16 moral immoralOther U u 1 0.5064 
10-May-2018_13:50:37 7308 20 female R 2 2 17 moral immoralOther U u 1 0.5085 
10-May-2018_13:50:39 7308 20 female R 2 2 18 moral immoralSelf U u 1 0.6966 
10-May-2018_13:50:41 7308 20 female R 2 2 19 moral moralOther Y y 1 0.5387 
10-May-2018_13:50:42 7308 20 female R 2 2 20 moral moralOther Y y 1 0.4668 
10-May-2018_13:50:44 7308 20 female R 2 2 21 moral immoralOther U u 1 0.5170 
10-May-2018_13:50:45 7308 20 female R 2 2 22 moral moralOther Y y 1 0.6230 
10-May-2018_13:50:47 7308 20 female R 2 2 23 moral immoralOther U u 1 0.4770 
10-May-2018_13:50:49 7308 20 female R 2 2 24 moral moralOther Y y 1 0.5212 
10-May-2018_13:50:56 7308 20 female R 2 3 1 moral moralSelf Y y 1 0.3996 
10-May-2018_13:50:58 7308 20 female R 2 3 2 moral immoralSelf U u 1 0.5457 
10-May-2018_13:51:00 7308 20 female R 2 3 3 moral moralSelf Y y 1 0.4797 
10-May-2018_13:51:02 7308 20 female R 2 3 4 moral moralOther Y y 1 0.5899 
10-May-2018_13:51:03 7308 20 female R 2 3 5 moral moralOther Y y 1 0.4200 
10-May-2018_13:51:05 7308 20 female R 2 3 6 moral immoralSelf U u 1 0.3721 
10-May-2018_13:51:07 7308 20 female R 2 3 7 moral moralSelf Y y 1 0.4622 
10-May-2018_13:51:09 7308 20 female R 2 3 8 moral moralSelf Y y 1 0.4124 
10-May-2018_13:51:10 7308 20 female R 2 3 9 moral immoralSelf U u 1 0.5305 
10-May-2018_13:51:12 7308 20 female R 2 3 10 moral moralOther Y y 1 0.7705 
10-May-2018_13:51:14 7308 20 female R 2 3 11 moral immoralOther U u 1 0.5286 
10-May-2018_13:51:16 7308 20 female R 2 3 12 moral moralOther Y y 1 0.7247 
10-May-2018_13:51:17 7308 20 female R 2 3 13 moral moralOther Y y 1 0.4768 
10-May-2018_13:51:19 7308 20 female R 2 3 14 moral immoralSelf U u 1 0.5848 
10-May-2018_13:51:21 7308 20 female R 2 3 15 moral moralSelf Y y 1 0.5030 
10-May-2018_13:51:22 7308 20 female R 2 3 16 moral immoralOther U u 1 0.4811 
10-May-2018_13:51:24 7308 20 female R 2 3 17 moral immoralSelf U u 1 0.6172 
10-May-2018_13:51:26 7308 20 female R 2 3 18 moral immoralSelf U u 1 0.6274 
10-May-2018_13:51:28 7308 20 female R 2 3 19 moral moralOther Y y 1 0.3635 
10-May-2018_13:51:29 7308 20 female R 2 3 20 moral immoralOther U u 1 0.5316 
10-May-2018_13:51:31 7308 20 female R 2 3 21 moral immoralOther U u 1 0.4955 
10-May-2018_13:51:33 7308 20 female R 2 3 22 moral moralSelf Y y 1 0.5037 
10-May-2018_13:51:34 7308 20 female R 2 3 23 moral immoralOther U u 1 0.5298 
10-May-2018_13:51:36 7308 20 female R 2 3 24 moral immoralOther U u 1 0.5198 
10-May-2018_13:51:38 7308 20 female R 2 4 1 moral moralSelf Y y 1 0.4600 
10-May-2018_13:51:39 7308 20 female R 2 4 2 moral moralOther Y y 1 0.4620 
10-May-2018_13:51:41 7308 20 female R 2 4 3 moral immoralSelf U u 1 0.3121 
10-May-2018_13:51:43 7308 20 female R 2 4 4 moral moralOther Y y 1 0.5582 
10-May-2018_13:51:44 7308 20 female R 2 4 5 moral moralOther Y y 1 0.5023 
10-May-2018_13:51:46 7308 20 female R 2 4 6 moral moralSelf Y y 1 0.4485 
10-May-2018_13:51:48 7308 20 female R 2 4 7 moral moralOther Y y 1 0.5246 
10-May-2018_13:51:50 7308 20 female R 2 4 8 moral immoralOther U u 1 0.3426 
10-May-2018_13:51:52 7308 20 female R 2 4 9 moral moralSelf Y y 1 0.4307 
10-May-2018_13:51:53 7308 20 female R 2 4 10 moral immoralSelf U u 1 0.4009 
10-May-2018_13:51:55 7308 20 female R 2 4 11 moral immoralOther U u 1 0.5129 
10-May-2018_13:51:57 7308 20 female R 2 4 12 moral moralOther Y y 1 0.5530 
10-May-2018_13:51:59 7308 20 female R 2 4 13 moral immoralSelf U u 1 0.6691 
10-May-2018_13:52:00 7308 20 female R 2 4 14 moral moralSelf Y y 1 0.4353 
10-May-2018_13:52:02 7308 20 female R 2 4 15 moral immoralSelf U u 1 0.5774 
10-May-2018_13:52:04 7308 20 female R 2 4 16 moral immoralOther U u 1 0.5535 
10-May-2018_13:52:05 7308 20 female R 2 4 17 moral moralSelf Y y 1 0.4796 
10-May-2018_13:52:08 7308 20 female R 2 4 18 moral immoralSelf U u 1 0.6098 
10-May-2018_13:52:09 7308 20 female R 2 4 19 moral moralOther Y y 1 0.5098 
10-May-2018_13:52:11 7308 20 female R 2 4 20 moral immoralOther U u 1 0.4878 
10-May-2018_13:52:13 7308 20 female R 2 4 21 moral immoralSelf U y 0 0.5260 
10-May-2018_13:52:15 7308 20 female R 2 4 22 moral moralSelf Y y 1 0.4960 
10-May-2018_13:52:17 7308 20 female R 2 4 23 moral immoralOther U u 1 0.5601 
10-May-2018_13:52:19 7308 20 female R 2 4 24 moral immoralOther U u 1 0.4602 
10-May-2018_13:52:27 7308 20 female R 2 5 1 moral immoralOther U u 1 0.4567 
10-May-2018_13:52:28 7308 20 female R 2 5 2 moral immoralSelf U u 1 0.6668 
10-May-2018_13:52:30 7308 20 female R 2 5 3 moral immoralSelf U u 1 0.5570 
10-May-2018_13:52:32 7308 20 female R 2 5 4 moral moralSelf Y y 1 0.4910 
10-May-2018_13:52:34 7308 20 female R 2 5 5 moral immoralOther U u 1 0.4991 
10-May-2018_13:52:36 7308 20 female R 2 5 6 moral moralSelf Y y 1 0.5673 
10-May-2018_13:52:38 7308 20 female R 2 5 7 moral immoralOther U u 1 0.6133 
10-May-2018_13:52:39 7308 20 female R 2 5 8 moral moralSelf Y y 1 0.5255 
10-May-2018_13:52:41 7308 20 female R 2 5 9 moral moralSelf Y y 1 0.3275 
10-May-2018_13:52:43 7308 20 female R 2 5 10 moral immoralSelf U u 1 0.5576 
10-May-2018_13:52:45 7308 20 female R 2 5 11 moral immoralOther U u 1 0.5017 
10-May-2018_13:52:47 7308 20 female R 2 5 12 moral moralOther Y y 1 0.8478 
10-May-2018_13:52:49 7308 20 female R 2 5 13 moral immoralOther U u 1 0.5321 
10-May-2018_13:52:50 7308 20 female R 2 5 14 moral moralOther Y y 1 0.5422 
10-May-2018_13:52:52 7308 20 female R 2 5 15 moral moralOther Y y 1 0.4962 
10-May-2018_13:52:54 7308 20 female R 2 5 16 moral immoralSelf U u 1 0.5465 
10-May-2018_13:52:56 7308 20 female R 2 5 17 moral moralOther Y y 1 0.3944 
10-May-2018_13:52:57 7308 20 female R 2 5 18 moral immoralSelf U u 1 0.5005 
10-May-2018_13:52:59 7308 20 female R 2 5 19 moral moralOther Y y 1 0.4445 
10-May-2018_13:53:01 7308 20 female R 2 5 20 moral moralSelf Y y 1 0.5427 
10-May-2018_13:53:03 7308 20 female R 2 5 21 moral immoralOther U u 1 0.5888 
10-May-2018_13:53:05 7308 20 female R 2 5 22 moral moralSelf Y y 1 0.5390 
10-May-2018_13:53:06 7308 20 female R 2 5 23 moral moralOther Y y 1 0.4070 
10-May-2018_13:53:08 7308 20 female R 2 5 24 moral immoralSelf U u 1 0.6232 
Date Sub Age Sex Hand Block Bin Trial Task Shape corrResp Resp ACC RT
10-May-2018_13:55:37 7308 20 female R 3 1 1 moral immoralOther U u 1 0.5256 
10-May-2018_13:55:39 7308 20 female R 3 1 2 moral moralSelf Y y 1 0.4297 
10-May-2018_13:55:41 7308 20 female R 3 1 3 moral immoralSelf U u 1 0.5697 
10-May-2018_13:55:43 7308 20 female R 3 1 4 moral moralSelf Y y 1 0.4178 
10-May-2018_13:55:44 7308 20 female R 3 1 5 moral immoralSelf U u 1 0.6664 
10-May-2018_13:55:46 7308 20 female R 3 1 6 moral moralSelf Y y 1 0.4480 
10-May-2018_13:55:48 7308 20 female R 3 1 7 moral immoralOther U u 1 0.6142 
10-May-2018_13:55:50 7308 20 female R 3 1 8 moral moralOther Y y 1 0.6704 
10-May-2018_13:55:52 7308 20 female R 3 1 9 moral immoralOther U u 1 0.4685 
10-May-2018_13:55:54 7308 20 female R 3 1 10 moral moralOther Y y 1 0.3685 
10-May-2018_13:55:55 7308 20 female R 3 1 11 moral immoralOther U u 1 0.4106 
10-May-2018_13:55:57 7308 20 female R 3 1 12 moral moralOther Y u 0 0.5468 
10-May-2018_13:55:59 7308 20 female R 3 1 13 moral moralSelf Y y 1 0.5049 
10-May-2018_13:56:01 7308 20 female R 3 1 14 moral immoralOther U u 1 0.5528 
10-May-2018_13:56:02 7308 20 female R 3 1 15 moral immoralSelf U u 1 0.7430 
10-May-2018_13:56:05 7308 20 female R 3 1 16 moral moralOther Y y 1 0.6971 
10-May-2018_13:56:06 7308 20 female R 3 1 17 moral immoralOther U u 1 0.4652 
10-May-2018_13:56:08 7308 20 female R 3 1 18 moral moralOther Y y 1 0.6693 
10-May-2018_13:56:10 7308 20 female R 3 1 19 moral moralSelf Y y 1 0.3394 
10-May-2018_13:56:12 7308 20 female R 3 1 20 moral immoralSelf U u 1 0.4935 
10-May-2018_13:56:14 7308 20 female R 3 1 21 moral moralSelf Y y 1 0.5476 
10-May-2018_13:56:16 7308 20 female R 3 1 22 moral immoralSelf U u 1 0.6937 
10-May-2018_13:56:18 7308 20 female R 3 1 23 moral moralOther Y y 1 0.6238 
10-May-2018_13:56:20 7308 20 female R 3 1 24 moral immoralSelf U u 1 0.5259 
10-May-2018_13:56:21 7308 20 female R 3 2 1 moral moralOther Y y 1 0.6580 
10-May-2018_13:56:23 7308 20 female R 3 2 2 moral moralSelf Y y 1 0.4681 
10-May-2018_13:56:24 7308 20 female R 3 2 3 moral immoralOther U u 1 0.5063 
10-May-2018_13:56:26 7308 20 female R 3 2 4 moral moralSelf Y y 1 0.5464 
10-May-2018_13:56:28 7308 20 female R 3 2 5 moral immoralOther U u 1 0.5005 
10-May-2018_13:56:30 7308 20 female R 3 2 6 moral immoralOther U u 1 0.4266 
10-May-2018_13:56:32 7308 20 female R 3 2 7 moral moralOther Y y 1 0.6287 
10-May-2018_13:56:33 7308 20 female R 3 2 8 moral moralSelf Y y 1 0.5552 
10-May-2018_13:56:35 7308 20 female R 3 2 9 moral immoralSelf U u 1 0.4949 
10-May-2018_13:56:37 7308 20 female R 3 2 10 moral moralSelf Y y 1 0.4010 
10-May-2018_13:56:39 7308 20 female R 3 2 11 moral moralSelf Y y 1 0.3491 
10-May-2018_13:56:40 7308 20 female R 3 2 12 moral immoralSelf U u 1 0.5591 
10-May-2018_13:56:42 7308 20 female R 3 2 13 moral moralOther Y y 1 0.5993 
10-May-2018_13:56:44 7308 20 female R 3 2 14 moral immoralSelf U u 1 0.4975 
10-May-2018_13:56:46 7308 20 female R 3 2 15 moral immoralSelf U u 1 0.4354 
10-May-2018_13:56:48 7308 20 female R 3 2 16 moral immoralOther U u 1 0.6336 
10-May-2018_13:56:50 7308 20 female R 3 2 17 moral moralOther Y y 1 0.3697 
10-May-2018_13:56:51 7308 20 female R 3 2 18 moral moralOther Y y 1 0.4379 
10-May-2018_13:56:53 7308 20 female R 3 2 19 moral immoralSelf U u 1 0.5139 
10-May-2018_13:56:55 7308 20 female R 3 2 20 moral moralOther Y y 1 0.7260 
10-May-2018_13:56:57 7308 20 female R 3 2 21 moral moralSelf Y y 1 0.5482 
10-May-2018_13:56:58 7308 20 female R 3 2 22 moral immoralSelf U u 1 0.5657 
10-May-2018_13:57:00 7308 20 female R 3 2 23 moral immoralOther U u 1 0.5423 
10-May-2018_13:57:02 7308 20 female R 3 2 24 moral immoralOther U u 1 0.6264 
10-May-2018_13:57:11 7308 20 female R 3 3 1 moral moralSelf Y y 1 0.4669 
10-May-2018_13:57:12 7308 20 female R 3 3 2 moral moralOther Y y 1 0.3810 
10-May-2018_13:57:14 7308 20 female R 3 3 3 moral immoralSelf U u 1 0.4430 
10-May-2018_13:57:16 7308 20 female R 3 3 4 moral immoralSelf U u 1 0.4272 
10-May-2018_13:57:18 7308 20 female R 3 3 5 moral immoralSelf U u 1 0.4972 
10-May-2018_13:57:19 7308 20 female R 3 3 6 moral immoralSelf U u 1 0.5334 
10-May-2018_13:57:21 7308 20 female R 3 3 7 moral immoralSelf U u 1 0.4096 
10-May-2018_13:57:23 7308 20 female R 3 3 8 moral immoralOther U u 1 0.5796 
10-May-2018_13:57:25 7308 20 female R 3 3 9 moral immoralOther U u 1 0.4657 
10-May-2018_13:57:26 7308 20 female R 3 3 10 moral moralSelf Y y 1 0.4738 
10-May-2018_13:57:28 7308 20 female R 3 3 11 moral moralSelf Y y 1 0.4959 
10-May-2018_13:57:30 7308 20 female R 3 3 12 moral moralSelf Y y 1 0.3459 
10-May-2018_13:57:32 7308 20 female R 3 3 13 moral moralOther Y y 1 0.6121 
10-May-2018_13:57:33 7308 20 female R 3 3 14 moral immoralOther U u 1 0.4982 
10-May-2018_13:57:35 7308 20 female R 3 3 15 moral moralSelf Y y 1 0.4483 
10-May-2018_13:57:37 7308 20 female R 3 3 16 moral moralOther Y y 1 0.6905 
10-May-2018_13:57:39 7308 20 female R 3 3 17 moral moralOther Y y 1 0.5105 
10-May-2018_13:57:40 7308 20 female R 3 3 18 moral moralOther Y y 1 0.3106 
10-May-2018_13:57:42 7308 20 female R 3 3 19 moral immoralOther U u 1 0.5546 
10-May-2018_13:57:44 7308 20 female R 3 3 20 moral immoralOther U u 1 0.4447 
10-May-2018_13:57:45 7308 20 female R 3 3 21 moral immoralOther U u 1 0.4249 
10-May-2018_13:57:47 7308 20 female R 3 3 22 moral moralOther Y y 1 0.4949 
10-May-2018_13:57:49 7308 20 female R 3 3 23 moral moralSelf Y y 1 0.5110 
10-May-2018_13:57:51 7308 20 female R 3 3 24 moral immoralSelf U u 1 0.7312 
10-May-2018_13:57:53 7308 20 female R 3 4 1 moral moralOther Y y 1 0.4833 
10-May-2018_13:57:54 7308 20 female R 3 4 2 moral moralOther Y y 1 0.4274 
10-May-2018_13:57:56 7308 20 female R 3 4 3 moral immoralOther U u 1 0.6995 
10-May-2018_13:57:58 7308 20 female R 3 4 4 moral immoralOther U u 1 0.5356 
10-May-2018_13:58:00 7308 20 female R 3 4 5 moral immoralOther U u 1 0.4937 
10-May-2018_13:58:02 7308 20 female R 3 4 6 moral moralSelf Y y 1 0.5037 
10-May-2018_13:58:03 7308 20 female R 3 4 7 moral immoralSelf U u 1 0.6881 
10-May-2018_13:58:05 7308 20 female R 3 4 8 moral moralSelf Y y 1 0.4881 
10-May-2018_13:58:07 7308 20 female R 3 4 9 moral immoralSelf U u 1 0.5480 
10-May-2018_13:58:09 7308 20 female R 3 4 10 moral immoralOther U u 1 0.4942 
10-May-2018_13:58:11 7308 20 female R 3 4 11 moral immoralSelf U u 1 0.5803 
10-May-2018_13:58:12 7308 20 female R 3 4 12 moral moralSelf Y y 1 0.3484 
10-May-2018_13:58:14 7308 20 female R 3 4 13 moral moralOther Y y 1 0.5764 
10-May-2018_13:58:16 7308 20 female R 3 4 14 moral moralOther Y y 1 0.4426 
10-May-2018_13:58:18 7308 20 female R 3 4 15 moral moralOther Y y 1 0.4847 
10-May-2018_13:58:19 7308 20 female R 3 4 16 moral immoralSelf U u 1 0.3707 
10-May-2018_13:58:21 7308 20 female R 3 4 17 moral moralSelf Y y 1 0.4552 
10-May-2018_13:58:23 7308 20 female R 3 4 18 moral immoralSelf U u 1 0.6429 
10-May-2018_13:58:25 7308 20 female R 3 4 19 moral moralSelf Y y 1 0.4450 
10-May-2018_13:58:26 7308 20 female R 3 4 20 moral moralOther Y y 1 0.4273 
10-May-2018_13:58:28 7308 20 female R 3 4 21 moral immoralOther U u 1 0.4572 
10-May-2018_13:58:30 7308 20 female R 3 4 22 moral immoralOther U y 0 0.4173 
10-May-2018_13:58:32 7308 20 female R 3 4 23 moral immoralSelf U u 1 0.5995 
10-May-2018_13:58:34 7308 20 female R 3 4 24 moral moralSelf Y y 1 0.4736 
10-May-2018_13:58:39 7308 20 female R 3 5 1 moral moralOther Y y 1 0.5759 
10-May-2018_13:58:41 7308 20 female R 3 5 2 moral immoralOther U u 1 0.3920 
10-May-2018_13:58:43 7308 20 female R 3 5 3 moral moralSelf Y y 1 0.4361 
10-May-2018_13:58:44 7308 20 female R 3 5 4 moral immoralSelf U u 1 0.5682 
10-May-2018_13:58:46 7308 20 female R 3 5 5 moral immoralSelf U u 1 0.3983 
10-May-2018_13:58:48 7308 20 female R 3 5 6 moral moralOther Y u 0 0.3564 
10-May-2018_13:58:49 7308 20 female R 3 5 7 moral moralOther Y y 1 0.3946 
10-May-2018_13:58:51 7308 20 female R 3 5 8 moral immoralOther U u 1 0.4266 
10-May-2018_13:58:53 7308 20 female R 3 5 9 moral immoralOther U u 1 0.4587 
10-May-2018_13:58:54 7308 20 female R 3 5 10 moral moralSelf Y y 1 0.4129 
10-May-2018_13:58:56 7308 20 female R 3 5 11 moral moralOther Y y 1 0.5529 
10-May-2018_13:58:58 7308 20 female R 3 5 12 moral moralSelf Y y 1 0.4750 
10-May-2018_13:59:00 7308 20 female R 3 5 13 moral immoralOther U u 1 0.4851 
10-May-2018_13:59:02 7308 20 female R 3 5 14 moral moralSelf Y y 1 0.2992 
10-May-2018_13:59:03 7308 20 female R 3 5 15 moral moralSelf Y y 1 0.3973 
10-May-2018_13:59:05 7308 20 female R 3 5 16 moral immoralSelf U u 1 0.5153 
10-May-2018_13:59:07 7308 20 female R 3 5 17 moral immoralSelf U u 1 0.3815 
10-May-2018_13:59:09 7308 20 female R 3 5 18 moral immoralSelf U u 1 0.4956 
10-May-2018_13:59:11 7308 20 female R 3 5 19 moral moralSelf Y y 1 0.4618 
10-May-2018_13:59:13 7308 20 female R 3 5 20 moral immoralOther U u 1 0.4538 
10-May-2018_13:59:15 7308 20 female R 3 5 21 moral moralOther Y NA -1 1.0850 
10-May-2018_13:59:17 7308 20 female R 3 5 22 moral moralOther Y y 1 0.4820 
10-May-2018_13:59:19 7308 20 female R 3 5 23 moral immoralSelf U u 1 0.5121 
10-May-2018_13:59:21 7308 20 female R 3 5 24 moral immoralOther U u 1 0.4802 
Date Sub Age Sex Hand Block Bin Trial Task Shape corrResp Resp ACC RT
10-May-2018_14:01:39 7308 20 female R 4 1 1 self moralOther J j 1 0.5501 
10-May-2018_14:01:41 7308 20 female R 4 1 2 self immoralSelf H h 1 0.4399 
10-May-2018_14:01:43 7308 20 female R 4 1 3 self immoralOther J j 1 0.7083 
10-May-2018_14:01:44 7308 20 female R 4 1 4 self moralSelf H h 1 0.4705 
10-May-2018_14:01:47 7308 20 female R 4 1 5 self immoralSelf H h 1 0.6526 
10-May-2018_14:01:48 7308 20 female R 4 1 6 self moralSelf H h 1 0.3926 
10-May-2018_14:01:50 7308 20 female R 4 1 7 self moralSelf H h 1 0.4608 
10-May-2018_14:01:52 7308 20 female R 4 1 8 self immoralSelf H h 1 0.3828 
10-May-2018_14:01:54 7308 20 female R 4 1 9 self immoralOther J j 1 0.3589 
10-May-2018_14:01:55 7308 20 female R 4 1 10 self moralSelf H h 1 0.3811 
10-May-2018_14:01:57 7308 20 female R 4 1 11 self immoralOther J j 1 0.5451 
10-May-2018_14:01:59 7308 20 female R 4 1 12 self immoralSelf H h 1 0.4553 
10-May-2018_14:02:00 7308 20 female R 4 1 13 self moralOther J j 1 0.4658 
10-May-2018_14:02:02 7308 20 female R 4 1 14 self immoralOther J j 1 0.6073 
10-May-2018_14:02:05 7308 20 female R 4 1 15 self moralOther J j 1 0.9635 
10-May-2018_14:02:06 7308 20 female R 4 1 16 self moralOther J j 1 0.5197 
10-May-2018_14:02:08 7308 20 female R 4 1 17 self moralOther J j 1 0.4497 
10-May-2018_14:02:10 7308 20 female R 4 1 18 self immoralOther J j 1 0.5599 
10-May-2018_14:02:11 7308 20 female R 4 1 19 self immoralSelf H h 1 0.3460 
10-May-2018_14:02:13 7308 20 female R 4 1 20 self moralSelf H h 1 0.2881 
10-May-2018_14:02:14 7308 20 female R 4 1 21 self immoralOther J j 1 0.4702 
10-May-2018_14:02:16 7308 20 female R 4 1 22 self immoralSelf H h 1 0.5503 
10-May-2018_14:02:18 7308 20 female R 4 1 23 self moralSelf H h 1 0.3003 
10-May-2018_14:02:20 7308 20 female R 4 1 24 self moralOther J j 1 0.5885 
10-May-2018_14:02:21 7308 20 female R 4 2 1 self moralOther J j 1 0.4866 
10-May-2018_14:02:23 7308 20 female R 4 2 2 self moralOther J j 1 0.3727 
10-May-2018_14:02:25 7308 20 female R 4 2 3 self immoralSelf H h 1 0.5447 
10-May-2018_14:02:26 7308 20 female R 4 2 4 self moralSelf H h 1 0.3128 
10-May-2018_14:02:28 7308 20 female R 4 2 5 self moralOther J j 1 0.5789 
10-May-2018_14:02:30 7308 20 female R 4 2 6 self immoralSelf H h 1 0.6391 
10-May-2018_14:02:32 7308 20 female R 4 2 7 self immoralOther J j 1 0.4271 
10-May-2018_14:02:34 7308 20 female R 4 2 8 self moralOther J j 1 0.3553 
10-May-2018_14:02:35 7308 20 female R 4 2 9 self moralOther J j 1 0.3914 
10-May-2018_14:02:37 7308 20 female R 4 2 10 self immoralSelf H h 1 0.3994 
10-May-2018_14:02:39 7308 20 female R 4 2 11 self immoralOther J j 1 0.4675 
10-May-2018_14:02:40 7308 20 female R 4 2 12 self immoralOther J j 1 0.4476 
10-May-2018_14:02:42 7308 20 female R 4 2 13 self moralSelf H h 1 0.5097 
10-May-2018_14:02:44 7308 20 female R 4 2 14 self moralSelf H h 1 0.4518 
10-May-2018_14:02:45 7308 20 female R 4 2 15 self immoralSelf H h 1 0.3599 
10-May-2018_14:02:47 7308 20 female R 4 2 16 self immoralOther J j 1 0.4060 
10-May-2018_14:02:49 7308 20 female R 4 2 17 self moralSelf H h 1 0.4802 
10-May-2018_14:02:50 7308 20 female R 4 2 18 self moralSelf H h 1 0.3681 
10-May-2018_14:02:52 7308 20 female R 4 2 19 self moralSelf H h 1 0.3223 
10-May-2018_14:02:54 7308 20 female R 4 2 20 self moralOther J j 1 0.5963 
10-May-2018_14:02:56 7308 20 female R 4 2 21 self immoralSelf H h 1 0.6805 
10-May-2018_14:02:57 7308 20 female R 4 2 22 self immoralSelf H h 1 0.5746 
10-May-2018_14:02:59 7308 20 female R 4 2 23 self immoralOther J j 1 0.4247 
10-May-2018_14:03:01 7308 20 female R 4 2 24 self immoralOther J j 1 0.5048 
10-May-2018_14:03:08 7308 20 female R 4 3 1 self moralSelf H h 1 0.3352 
10-May-2018_14:03:09 7308 20 female R 4 3 2 self moralSelf H h 1 0.3674 
10-May-2018_14:03:11 7308 20 female R 4 3 3 self moralSelf H h 1 0.3608 
10-May-2018_14:03:13 7308 20 female R 4 3 4 self moralOther J j 1 0.4995 
10-May-2018_14:03:15 7308 20 female R 4 3 5 self immoralSelf H h 1 0.6856 
10-May-2018_14:03:17 7308 20 female R 4 3 6 self immoralOther J j 1 0.3836 
10-May-2018_14:03:19 7308 20 female R 4 3 7 self immoralOther J j 1 0.6239 
10-May-2018_14:03:21 7308 20 female R 4 3 8 self moralOther J NA -1 1.0850 
10-May-2018_14:03:22 7308 20 female R 4 3 9 self moralSelf H h 1 0.3940 
10-May-2018_14:03:24 7308 20 female R 4 3 10 self immoralSelf H h 1 0.4561 
10-May-2018_14:03:26 7308 20 female R 4 3 11 self moralSelf H h 1 0.4142 
10-May-2018_14:03:27 7308 20 female R 4 3 12 self immoralOther J j 1 0.3543 
10-May-2018_14:03:29 7308 20 female R 4 3 13 self moralSelf H h 1 0.4484 
10-May-2018_14:03:30 7308 20 female R 4 3 14 self moralOther J j 1 0.3825 
10-May-2018_14:03:32 7308 20 female R 4 3 15 self moralOther J j 1 0.4026 
10-May-2018_14:03:34 7308 20 female R 4 3 16 self moralOther J j 1 0.3926 
10-May-2018_14:03:35 7308 20 female R 4 3 17 self immoralSelf H h 1 0.3688 
10-May-2018_14:03:37 7308 20 female R 4 3 18 self immoralOther J j 1 0.5349 
10-May-2018_14:03:38 7308 20 female R 4 3 19 self immoralSelf H h 1 0.4770 
10-May-2018_14:03:40 7308 20 female R 4 3 20 self immoralOther J j 1 0.4650 
10-May-2018_14:03:42 7308 20 female R 4 3 21 self immoralSelf H h 1 0.4792 
10-May-2018_14:03:43 7308 20 female R 4 3 22 self immoralSelf H h 1 0.4012 
10-May-2018_14:03:45 7308 20 female R 4 3 23 self moralOther J h 0 0.7993 
10-May-2018_14:03:47 7308 20 female R 4 3 24 self immoralOther J j 1 0.5415 
10-May-2018_14:03:48 7308 20 female R 4 4 1 self immoralSelf H h 1 0.4755 
10-May-2018_14:03:50 7308 20 female R 4 4 2 self moralSelf H h 1 0.5875 
10-May-2018_14:03:52 7308 20 female R 4 4 3 self immoralSelf H h 1 0.7137 
10-May-2018_14:03:54 7308 20 female R 4 4 4 self immoralSelf H h 1 0.4618 
10-May-2018_14:03:56 7308 20 female R 4 4 5 self moralOther J j 1 0.5579 
10-May-2018_14:03:57 7308 20 female R 4 4 6 self immoralOther J j 1 0.4240 
10-May-2018_14:03:59 7308 20 female R 4 4 7 self immoralSelf H h 1 0.5221 
10-May-2018_14:04:01 7308 20 female R 4 4 8 self moralOther J j 1 0.4782 
10-May-2018_14:04:03 7308 20 female R 4 4 9 self immoralOther J j 1 0.5223 
10-May-2018_14:04:04 7308 20 female R 4 4 10 self immoralOther J j 1 0.4604 
10-May-2018_14:04:06 7308 20 female R 4 4 11 self moralSelf H h 1 0.4125 
10-May-2018_14:04:08 7308 20 female R 4 4 12 self moralSelf H h 1 0.3527 
10-May-2018_14:04:10 7308 20 female R 4 4 13 self moralOther J j 1 0.5267 
10-May-2018_14:04:11 7308 20 female R 4 4 14 self immoralOther J j 1 0.4668 
10-May-2018_14:04:13 7308 20 female R 4 4 15 self immoralSelf H h 1 0.7369 
10-May-2018_14:04:15 7308 20 female R 4 4 16 self moralSelf H h 1 0.5030 
10-May-2018_14:04:17 7308 20 female R 4 4 17 self immoralOther J j 1 0.4611 
10-May-2018_14:04:19 7308 20 female R 4 4 18 self moralOther J j 1 0.5873 
10-May-2018_14:04:20 7308 20 female R 4 4 19 self moralSelf H h 1 0.3253 
10-May-2018_14:04:22 7308 20 female R 4 4 20 self immoralSelf H h 1 0.3495 
10-May-2018_14:04:24 7308 20 female R 4 4 21 self moralSelf H h 1 0.3975 
10-May-2018_14:04:25 7308 20 female R 4 4 22 self moralOther J j 1 0.4755 
10-May-2018_14:04:27 7308 20 female R 4 4 23 self moralOther J j 1 0.4277 
10-May-2018_14:04:29 7308 20 female R 4 4 24 self immoralOther J j 1 0.6638 
10-May-2018_14:04:55 7308 20 female R 4 5 1 self immoralOther J j 1 0.4793 
10-May-2018_14:04:57 7308 20 female R 4 5 2 self immoralSelf H h 1 0.6033 
10-May-2018_14:04:59 7308 20 female R 4 5 3 self moralOther J j 1 0.5354 
10-May-2018_14:05:01 7308 20 female R 4 5 4 self immoralSelf H h 1 0.5016 
10-May-2018_14:05:02 7308 20 female R 4 5 5 self moralSelf H h 1 0.3297 
10-May-2018_14:05:04 7308 20 female R 4 5 6 self moralSelf H h 1 0.3058 
10-May-2018_14:05:06 7308 20 female R 4 5 7 self moralOther J j 1 0.5318 
10-May-2018_14:05:08 7308 20 female R 4 5 8 self immoralSelf H h 1 0.6200 
10-May-2018_14:05:10 7308 20 female R 4 5 9 self moralOther J j 1 0.5421 
10-May-2018_14:05:11 7308 20 female R 4 5 10 self immoralOther J j 1 0.3422 
10-May-2018_14:05:13 7308 20 female R 4 5 11 self immoralOther J j 1 0.3503 
10-May-2018_14:05:14 7308 20 female R 4 5 12 self moralOther J j 1 0.4424 
10-May-2018_14:05:16 7308 20 female R 4 5 13 self moralSelf H h 1 0.4645 
10-May-2018_14:05:18 7308 20 female R 4 5 14 self immoralSelf H h 1 0.3366 
10-May-2018_14:05:19 7308 20 female R 4 5 15 self moralSelf H h 1 0.3207 
10-May-2018_14:05:21 7308 20 female R 4 5 16 self moralOther J j 1 0.5527 
10-May-2018_14:05:23 7308 20 female R 4 5 17 self moralOther J j 1 0.3670 
10-May-2018_14:05:24 7308 20 female R 4 5 18 self immoralOther J j 1 0.3149 
10-May-2018_14:05:26 7308 20 female R 4 5 19 self moralSelf H h 1 0.5730 
10-May-2018_14:05:28 7308 20 female R 4 5 20 self immoralSelf H h 1 0.6732 
10-May-2018_14:05:30 7308 20 female R 4 5 21 self immoralOther J j 1 0.4552 
10-May-2018_14:05:31 7308 20 female R 4 5 22 self moralSelf H h 1 0.3574 
10-May-2018_14:05:33 7308 20 female R 4 5 23 self immoralSelf H h 1 0.5775 
10-May-2018_14:05:35 7308 20 female R 4 5 24 self immoralOther J j 1 0.4556 
Date Sub Age Sex Hand Block Bin Trial Task Shape corrResp Resp ACC RT
10-May-2018_14:07:47 7308 20 female R 5 1 1 self moralOther J j 1 0.7310 
10-May-2018_14:07:49 7308 20 female R 5 1 2 self moralOther J j 1 0.8292 
10-May-2018_14:07:51 7308 20 female R 5 1 3 self moralSelf H h 1 0.5412 
10-May-2018_14:07:53 7308 20 female R 5 1 4 self moralSelf H h 1 0.4473 
10-May-2018_14:07:54 7308 20 female R 5 1 5 self moralSelf H h 1 0.3935 
10-May-2018_14:07:56 7308 20 female R 5 1 6 self immoralOther J j 1 0.6016 
10-May-2018_14:07:58 7308 20 female R 5 1 7 self immoralSelf H h 1 0.4096 
10-May-2018_14:07:59 7308 20 female R 5 1 8 self immoralSelf H h 1 0.4277 
10-May-2018_14:08:01 7308 20 female R 5 1 9 self immoralSelf H h 1 0.3238 
10-May-2018_14:08:03 7308 20 female R 5 1 10 self immoralOther J j 1 0.4380 
10-May-2018_14:08:04 7308 20 female R 5 1 11 self immoralOther J j 1 0.3461 
10-May-2018_14:08:06 7308 20 female R 5 1 12 self moralSelf H h 1 0.4500 
10-May-2018_14:08:08 7308 20 female R 5 1 13 self immoralOther J j 1 0.4642 
10-May-2018_14:08:10 7308 20 female R 5 1 14 self moralSelf H h 1 0.4964 
10-May-2018_14:08:12 7308 20 female R 5 1 15 self moralOther J j 1 0.5625 
10-May-2018_14:08:13 7308 20 female R 5 1 16 self immoralSelf H h 1 0.5105 
10-May-2018_14:08:15 7308 20 female R 5 1 17 self moralOther J j 1 0.5547 
10-May-2018_14:08:17 7308 20 female R 5 1 18 self immoralOther J j 1 0.7188 
10-May-2018_14:08:19 7308 20 female R 5 1 19 self moralOther J j 1 0.5948 
10-May-2018_14:08:21 7308 20 female R 5 1 20 self immoralOther J j 1 0.4369 
10-May-2018_14:08:22 7308 20 female R 5 1 21 self moralSelf H h 1 0.3291 
10-May-2018_14:08:24 7308 20 female R 5 1 22 self immoralSelf H h 1 0.4332 
10-May-2018_14:08:26 7308 20 female R 5 1 23 self immoralSelf H h 1 0.3972 
10-May-2018_14:08:28 7308 20 female R 5 1 24 self moralOther J j 1 0.6433 
10-May-2018_14:08:29 7308 20 female R 5 2 1 self immoralOther J j 1 0.4314 
10-May-2018_14:08:31 7308 20 female R 5 2 2 self immoralOther J j 1 0.4775 
10-May-2018_14:08:33 7308 20 female R 5 2 3 self moralOther J j 1 0.4278 
10-May-2018_14:08:34 7308 20 female R 5 2 4 self immoralOther J j 1 0.3257 
10-May-2018_14:08:36 7308 20 female R 5 2 5 self moralOther J j 1 0.3558 
10-May-2018_14:08:38 7308 20 female R 5 2 6 self moralSelf H h 1 0.3119 
10-May-2018_14:08:40 7308 20 female R 5 2 7 self immoralSelf H h 1 0.2800 
10-May-2018_14:08:41 7308 20 female R 5 2 8 self immoralSelf H h 1 0.3522 
10-May-2018_14:08:43 7308 20 female R 5 2 9 self immoralSelf H h 1 0.3723 
10-May-2018_14:08:45 7308 20 female R 5 2 10 self moralSelf H h 1 0.4025 
10-May-2018_14:08:46 7308 20 female R 5 2 11 self moralSelf H h 1 0.3945 
10-May-2018_14:08:48 7308 20 female R 5 2 12 self immoralOther J j 1 0.4005 
10-May-2018_14:08:50 7308 20 female R 5 2 13 self moralOther J j 1 0.3007 
10-May-2018_14:08:52 7308 20 female R 5 2 14 self immoralSelf H h 1 0.8108 
10-May-2018_14:08:54 7308 20 female R 5 2 15 self moralOther J j 1 0.4628 
10-May-2018_14:08:55 7308 20 female R 5 2 16 self moralSelf H h 1 0.4450 
10-May-2018_14:08:57 7308 20 female R 5 2 17 self immoralSelf H h 1 0.5850 
10-May-2018_14:08:59 7308 20 female R 5 2 18 self immoralSelf H h 1 0.5811 
10-May-2018_14:09:00 7308 20 female R 5 2 19 self moralSelf H h 1 0.3933 
10-May-2018_14:09:02 7308 20 female R 5 2 20 self immoralOther J j 1 0.5153 
10-May-2018_14:09:04 7308 20 female R 5 2 21 self moralOther J j 1 0.5054 
10-May-2018_14:09:05 7308 20 female R 5 2 22 self immoralOther J j 1 0.4695 
10-May-2018_14:09:07 7308 20 female R 5 2 23 self moralSelf H h 1 0.5096 
10-May-2018_14:09:09 7308 20 female R 5 2 24 self moralOther J j 1 0.4916 
10-May-2018_14:09:14 7308 20 female R 5 3 1 self immoralSelf H h 1 0.4560 
10-May-2018_14:09:15 7308 20 female R 5 3 2 self immoralSelf H h 1 0.3201 
10-May-2018_14:09:18 7308 20 female R 5 3 3 self moralOther J j 1 0.7062 
10-May-2018_14:09:19 7308 20 female R 5 3 4 self moralSelf H h 1 0.4583 
10-May-2018_14:09:21 7308 20 female R 5 3 5 self immoralOther J j 1 0.4085 
10-May-2018_14:09:23 7308 20 female R 5 3 6 self immoralSelf H h 1 0.5084 
10-May-2018_14:09:24 7308 20 female R 5 3 7 self moralSelf H h 1 0.3286 
10-May-2018_14:09:26 7308 20 female R 5 3 8 self moralOther J h 0 0.6227 
10-May-2018_14:09:28 7308 20 female R 5 3 9 self immoralOther J j 1 0.5428 
10-May-2018_14:09:30 7308 20 female R 5 3 10 self moralOther J j 1 0.5889 
10-May-2018_14:09:32 7308 20 female R 5 3 11 self immoralOther J j 1 0.4732 
10-May-2018_14:09:33 7308 20 female R 5 3 12 self immoralSelf H h 1 0.4371 
10-May-2018_14:09:35 7308 20 female R 5 3 13 self moralSelf H h 1 0.2872 
10-May-2018_14:09:37 7308 20 female R 5 3 14 self moralSelf H h 1 0.3473 
10-May-2018_14:09:38 7308 20 female R 5 3 15 self moralSelf H h 1 0.4074 
10-May-2018_14:09:40 7308 20 female R 5 3 16 self immoralOther J j 1 0.3255 
10-May-2018_14:09:42 7308 20 female R 5 3 17 self moralSelf H h 1 0.3857 
10-May-2018_14:09:43 7308 20 female R 5 3 18 self immoralOther J j 1 0.5096 
10-May-2018_14:09:45 7308 20 female R 5 3 19 self immoralOther J j 1 0.4057 
10-May-2018_14:09:47 7308 20 female R 5 3 20 self moralOther J j 1 0.3717 
10-May-2018_14:09:48 7308 20 female R 5 3 21 self immoralSelf H h 1 0.4200 
10-May-2018_14:09:50 7308 20 female R 5 3 22 self immoralSelf H h 1 0.3600 
10-May-2018_14:09:52 7308 20 female R 5 3 23 self moralOther J j 1 0.3962 
10-May-2018_14:09:53 7308 20 female R 5 3 24 self moralOther J j 1 0.4343 
10-May-2018_14:09:55 7308 20 female R 5 4 1 self moralOther J j 1 0.4463 
10-May-2018_14:09:57 7308 20 female R 5 4 2 self moralSelf H h 1 0.4544 
10-May-2018_14:09:59 7308 20 female R 5 4 3 self moralOther J h 0 0.3846 
10-May-2018_14:10:00 7308 20 female R 5 4 4 self moralSelf H h 1 0.3607 
10-May-2018_14:10:02 7308 20 female R 5 4 5 self immoralOther J j 1 0.4488 
10-May-2018_14:10:03 7308 20 female R 5 4 6 self moralSelf H h 1 0.3948 
10-May-2018_14:10:05 7308 20 female R 5 4 7 self moralOther J j 1 0.5149 
10-May-2018_14:10:07 7308 20 female R 5 4 8 self immoralOther J j 1 0.3130 
10-May-2018_14:10:08 7308 20 female R 5 4 9 self moralOther J j 1 0.4391 
10-May-2018_14:10:10 7308 20 female R 5 4 10 self moralSelf H h 1 0.4492 
10-May-2018_14:10:11 7308 20 female R 5 4 11 self moralSelf H h 1 0.3752 
10-May-2018_14:10:13 7308 20 female R 5 4 12 self immoralSelf H h 1 0.3416 
10-May-2018_14:10:14 7308 20 female R 5 4 13 self moralSelf H h 1 0.3634 
10-May-2018_14:10:16 7308 20 female R 5 4 14 self immoralSelf H h 1 0.6198 
10-May-2018_14:10:17 7308 20 female R 5 4 15 self immoralSelf H h 1 0.3657 
10-May-2018_14:10:19 7308 20 female R 5 4 16 self immoralOther J j 1 0.4457 
10-May-2018_14:10:20 7308 20 female R 5 4 17 self moralOther J h 0 0.4197 
10-May-2018_14:10:22 7308 20 female R 5 4 18 self immoralSelf H h 1 0.4179 
10-May-2018_14:10:24 7308 20 female R 5 4 19 self immoralOther J j 1 0.5281 
10-May-2018_14:10:26 7308 20 female R 5 4 20 self immoralSelf H h 1 0.6261 
10-May-2018_14:10:28 7308 20 female R 5 4 21 self immoralOther J j 1 0.5282 
10-May-2018_14:10:29 7308 20 female R 5 4 22 self moralOther J j 1 0.4803 
10-May-2018_14:10:31 7308 20 female R 5 4 23 self immoralOther J j 1 0.3584 
10-May-2018_14:10:33 7308 20 female R 5 4 24 self immoralSelf H h 1 0.3405 
10-May-2018_14:10:43 7308 20 female R 5 5 1 self moralSelf H h 1 0.3430 
10-May-2018_14:10:45 7308 20 female R 5 5 2 self moralSelf H h 1 0.4512 
10-May-2018_14:10:46 7308 20 female R 5 5 3 self moralOther J j 1 0.6012 
10-May-2018_14:10:48 7308 20 female R 5 5 4 self immoralSelf H h 1 0.7234 
10-May-2018_14:10:50 7308 20 female R 5 5 5 self moralOther J j 1 0.4415 
10-May-2018_14:10:52 7308 20 female R 5 5 6 self moralSelf H h 1 0.2755 
10-May-2018_14:10:54 7308 20 female R 5 5 7 self moralOther J j 1 0.4237 
10-May-2018_14:10:55 7308 20 female R 5 5 8 self moralSelf H h 1 0.3858 
10-May-2018_14:10:57 7308 20 female R 5 5 9 self immoralSelf H h 1 0.4459 
10-May-2018_14:10:59 7308 20 female R 5 5 10 self immoralOther J j 1 0.4639 
10-May-2018_14:11:00 7308 20 female R 5 5 11 self immoralOther J j 1 0.3920 
10-May-2018_14:11:02 7308 20 female R 5 5 12 self moralOther J j 1 0.6721 
10-May-2018_14:11:04 7308 20 female R 5 5 13 self immoralOther J j 1 0.4222 
10-May-2018_14:11:06 7308 20 female R 5 5 14 self immoralOther J j 1 0.3183 
10-May-2018_14:11:07 7308 20 female R 5 5 15 self immoralSelf H h 1 0.4285 
10-May-2018_14:11:09 7308 20 female R 5 5 16 self immoralOther J j 1 0.4506 
10-May-2018_14:11:11 7308 20 female R 5 5 17 self immoralSelf H h 1 0.4246 
10-May-2018_14:11:12 7308 20 female R 5 5 18 self immoralSelf H h 1 0.4028 
10-May-2018_14:11:14 7308 20 female R 5 5 19 self moralOther J j 1 0.7030 
10-May-2018_14:11:16 7308 20 female R 5 5 20 self immoralOther J j 1 0.6029 
10-May-2018_14:11:18 7308 20 female R 5 5 21 self moralSelf H h 1 0.4190 
10-May-2018_14:11:19 7308 20 female R 5 5 22 self moralOther J j 1 0.5872 
10-May-2018_14:11:21 7308 20 female R 5 5 23 self moralSelf H h 1 0.5372 
10-May-2018_14:11:24 7308 20 female R 5 5 24 self immoralSelf H h 1 0.7533 
Date Sub Age Sex Hand Block Bin Trial Task Shape corrResp Resp ACC RT
10-May-2018_14:13:47 7308 20 female R 6 1 1 moral immoralSelf U u 1 0.4799 
10-May-2018_14:13:48 7308 20 female R 6 1 2 moral moralSelf Y y 1 0.4634 
10-May-2018_14:13:50 7308 20 female R 6 1 3 moral immoralOther U u 1 0.4660 
10-May-2018_14:13:52 7308 20 female R 6 1 4 moral moralOther Y u 0 0.4323 
10-May-2018_14:13:53 7308 20 female R 6 1 5 moral moralSelf Y y 1 0.4024 
10-May-2018_14:13:55 7308 20 female R 6 1 6 moral moralSelf Y y 1 0.5724 
10-May-2018_14:13:57 7308 20 female R 6 1 7 moral moralSelf Y y 1 0.3482 
10-May-2018_14:13:59 7308 20 female R 6 1 8 moral immoralSelf U u 1 0.5366 
10-May-2018_14:14:00 7308 20 female R 6 1 9 moral moralOther Y y 1 0.2744 
10-May-2018_14:14:02 7308 20 female R 6 1 10 moral moralSelf Y y 1 0.3906 
10-May-2018_14:14:04 7308 20 female R 6 1 11 moral immoralOther U u 1 0.4564 
10-May-2018_14:14:06 7308 20 female R 6 1 12 moral moralOther Y y 1 0.6184 
10-May-2018_14:14:08 7308 20 female R 6 1 13 moral immoralSelf U y 0 0.6345 
10-May-2018_14:14:10 7308 20 female R 6 1 14 moral immoralOther U u 1 0.5927 
10-May-2018_14:14:12 7308 20 female R 6 1 15 moral moralOther Y NA -1 1.0843 
10-May-2018_14:14:14 7308 20 female R 6 1 16 moral moralOther Y y 1 0.6295 
10-May-2018_14:14:15 7308 20 female R 6 1 17 moral immoralSelf U u 1 0.4958 
10-May-2018_14:14:17 7308 20 female R 6 1 18 moral immoralOther U u 1 0.5197 
10-May-2018_14:14:19 7308 20 female R 6 1 19 moral immoralOther U u 1 0.5277 
10-May-2018_14:14:21 7308 20 female R 6 1 20 moral immoralSelf U y 0 0.5759 
10-May-2018_14:14:23 7308 20 female R 6 1 21 moral immoralSelf U u 1 0.7399 
10-May-2018_14:14:25 7308 20 female R 6 1 22 moral moralOther Y y 1 0.7401 
10-May-2018_14:14:27 7308 20 female R 6 1 23 moral moralSelf Y y 1 0.4758 
10-May-2018_14:14:28 7308 20 female R 6 1 24 moral immoralOther U u 1 0.4586 
10-May-2018_14:14:30 7308 20 female R 6 2 1 moral immoralSelf U y 0 0.4705 
10-May-2018_14:14:32 7308 20 female R 6 2 2 moral moralSelf Y y 1 0.3982 
10-May-2018_14:14:34 7308 20 female R 6 2 3 moral moralOther Y y 1 0.9823 
10-May-2018_14:14:36 7308 20 female R 6 2 4 moral immoralOther U u 1 0.4569 
10-May-2018_14:14:37 7308 20 female R 6 2 5 moral immoralOther U u 1 0.4307 
10-May-2018_14:14:39 7308 20 female R 6 2 6 moral moralSelf Y y 1 0.4924 
10-May-2018_14:14:41 7308 20 female R 6 2 7 moral moralSelf Y y 1 0.3990 
10-May-2018_14:14:42 7308 20 female R 6 2 8 moral immoralOther U u 1 0.5509 
10-May-2018_14:14:44 7308 20 female R 6 2 9 moral immoralOther U u 1 0.4189 
10-May-2018_14:14:46 7308 20 female R 6 2 10 moral immoralSelf U u 1 0.4139 
10-May-2018_14:14:48 7308 20 female R 6 2 11 moral moralOther Y y 1 0.5711 
10-May-2018_14:14:50 7308 20 female R 6 2 12 moral moralSelf Y y 1 0.5130 
10-May-2018_14:14:51 7308 20 female R 6 2 13 moral moralOther Y y 1 0.3571 
10-May-2018_14:14:53 7308 20 female R 6 2 14 moral immoralOther U u 1 0.5912 
10-May-2018_14:14:54 7308 20 female R 6 2 15 moral immoralOther U u 1 0.3878 
10-May-2018_14:14:56 7308 20 female R 6 2 16 moral immoralSelf U u 1 0.4498 
10-May-2018_14:14:58 7308 20 female R 6 2 17 moral moralOther Y y 1 0.3600 
10-May-2018_14:15:00 7308 20 female R 6 2 18 moral immoralSelf U u 1 0.8904 
10-May-2018_14:15:02 7308 20 female R 6 2 19 moral moralSelf Y y 1 0.5217 
10-May-2018_14:15:03 7308 20 female R 6 2 20 moral immoralSelf U u 1 0.7238 
10-May-2018_14:15:06 7308 20 female R 6 2 21 moral moralOther Y y 1 0.7898 
10-May-2018_14:15:07 7308 20 female R 6 2 22 moral immoralSelf U u 1 0.5687 
10-May-2018_14:15:09 7308 20 female R 6 2 23 moral moralSelf Y y 1 0.4728 
10-May-2018_14:15:11 7308 20 female R 6 2 24 moral moralOther Y y 1 0.7626 
10-May-2018_14:15:32 7308 20 female R 6 3 1 moral immoralOther U u 1 0.5059 
10-May-2018_14:15:34 7308 20 female R 6 3 2 moral immoralSelf U u 1 0.7956 
10-May-2018_14:15:35 7308 20 female R 6 3 3 moral moralOther Y u 0 0.4718 
10-May-2018_14:15:37 7308 20 female R 6 3 4 moral moralSelf Y y 1 0.3237 
10-May-2018_14:15:39 7308 20 female R 6 3 5 moral immoralSelf U u 1 0.4024 
10-May-2018_14:15:41 7308 20 female R 6 3 6 moral immoralSelf U u 1 0.5823 
10-May-2018_14:15:42 7308 20 female R 6 3 7 moral moralSelf Y y 1 0.4426 
10-May-2018_14:15:44 7308 20 female R 6 3 8 moral moralOther Y u 0 0.4803 
10-May-2018_14:15:46 7308 20 female R 6 3 9 moral moralOther Y y 1 0.5348 
10-May-2018_14:15:48 7308 20 female R 6 3 10 moral immoralSelf U u 1 0.4768 
10-May-2018_14:15:50 7308 20 female R 6 3 11 moral immoralSelf U u 1 0.5150 
10-May-2018_14:15:51 7308 20 female R 6 3 12 moral immoralSelf U u 1 0.5108 
10-May-2018_14:15:53 7308 20 female R 6 3 13 moral moralOther Y y 1 0.3227 
10-May-2018_14:15:54 7308 20 female R 6 3 14 moral moralSelf Y y 1 0.2952 
10-May-2018_14:15:56 7308 20 female R 6 3 15 moral immoralOther U u 1 0.4348 
10-May-2018_14:15:57 7308 20 female R 6 3 16 moral moralSelf Y y 1 0.3351 
10-May-2018_14:15:59 7308 20 female R 6 3 17 moral immoralOther U u 1 0.4816 
10-May-2018_14:16:00 7308 20 female R 6 3 18 moral moralSelf Y y 1 0.2971 
10-May-2018_14:16:02 7308 20 female R 6 3 19 moral moralOther Y y 1 0.2797 
10-May-2018_14:16:03 7308 20 female R 6 3 20 moral moralOther Y y 1 0.3253 
10-May-2018_14:16:05 7308 20 female R 6 3 21 moral moralSelf Y y 1 0.3834 
10-May-2018_14:16:07 7308 20 female R 6 3 22 moral immoralOther U u 1 0.4518 
10-May-2018_14:16:09 7308 20 female R 6 3 23 moral immoralOther U u 1 0.4578 
10-May-2018_14:16:10 7308 20 female R 6 3 24 moral immoralOther U u 1 0.3163 
10-May-2018_14:16:12 7308 20 female R 6 4 1 moral immoralSelf U y 0 0.4744 
10-May-2018_14:16:14 7308 20 female R 6 4 2 moral moralOther Y y 1 0.4425 
10-May-2018_14:16:16 7308 20 female R 6 4 3 moral immoralOther U u 1 0.6068 
10-May-2018_14:16:17 7308 20 female R 6 4 4 moral moralSelf Y y 1 0.4142 
10-May-2018_14:16:19 7308 20 female R 6 4 5 moral immoralOther U u 1 0.6064 
10-May-2018_14:16:21 7308 20 female R 6 4 6 moral moralSelf Y y 1 0.4665 
10-May-2018_14:16:22 7308 20 female R 6 4 7 moral moralSelf Y y 1 0.4511 
10-May-2018_14:16:24 7308 20 female R 6 4 8 moral immoralSelf U u 1 0.6307 
10-May-2018_14:16:26 7308 20 female R 6 4 9 moral moralSelf Y y 1 0.5386 
10-May-2018_14:16:28 7308 20 female R 6 4 10 moral immoralOther U u 1 0.5933 
10-May-2018_14:16:30 7308 20 female R 6 4 11 moral moralOther Y y 1 0.5447 
10-May-2018_14:16:31 7308 20 female R 6 4 12 moral moralOther Y y 1 0.4167 
10-May-2018_14:16:33 7308 20 female R 6 4 13 moral immoralSelf U u 1 0.5495 
10-May-2018_14:16:35 7308 20 female R 6 4 14 moral immoralOther U y 0 0.3737 
10-May-2018_14:16:37 7308 20 female R 6 4 15 moral immoralSelf U u 1 0.5461 
10-May-2018_14:16:38 7308 20 female R 6 4 16 moral moralSelf Y y 1 0.4174 
10-May-2018_14:16:40 7308 20 female R 6 4 17 moral moralSelf Y y 1 0.4353 
10-May-2018_14:16:42 7308 20 female R 6 4 18 moral immoralOther U u 1 0.3893 
10-May-2018_14:16:43 7308 20 female R 6 4 19 moral immoralOther U u 1 0.3602 
10-May-2018_14:16:45 7308 20 female R 6 4 20 moral immoralSelf U u 1 0.5538 
10-May-2018_14:16:47 7308 20 female R 6 4 21 moral moralOther Y u 0 0.4061 
10-May-2018_14:16:48 7308 20 female R 6 4 22 moral moralOther Y y 1 0.4643 
10-May-2018_14:16:50 7308 20 female R 6 4 23 moral immoralSelf U u 1 0.4543 
10-May-2018_14:16:52 7308 20 female R 6 4 24 moral moralOther Y y 1 0.7046 
10-May-2018_14:17:00 7308 20 female R 6 5 1 moral immoralSelf U u 1 0.6585 
10-May-2018_14:17:02 7308 20 female R 6 5 2 moral moralOther Y y 1 0.6411 
10-May-2018_14:17:04 7308 20 female R 6 5 3 moral moralSelf Y y 1 0.5869 
10-May-2018_14:17:06 7308 20 female R 6 5 4 moral immoralSelf U u 1 0.6875 
10-May-2018_14:17:08 7308 20 female R 6 5 5 moral immoralSelf U u 1 0.5772 
10-May-2018_14:17:10 7308 20 female R 6 5 6 moral immoralSelf U u 1 0.3373 
10-May-2018_14:17:11 7308 20 female R 6 5 7 moral immoralOther U u 1 0.3451 
10-May-2018_14:17:13 7308 20 female R 6 5 8 moral moralSelf Y y 1 0.4172 
10-May-2018_14:17:14 7308 20 female R 6 5 9 moral immoralOther U y 0 0.3559 
10-May-2018_14:17:16 7308 20 female R 6 5 10 moral immoralSelf U u 1 0.6334 
10-May-2018_14:17:18 7308 20 female R 6 5 11 moral moralSelf Y y 1 0.4276 
10-May-2018_14:17:20 7308 20 female R 6 5 12 moral immoralOther U u 1 0.4676 
10-May-2018_14:17:21 7308 20 female R 6 5 13 moral moralSelf Y y 1 0.3706 
10-May-2018_14:17:23 7308 20 female R 6 5 14 moral moralSelf Y y 1 0.5598 
10-May-2018_14:17:25 7308 20 female R 6 5 15 moral moralOther Y u 0 0.4605 
10-May-2018_14:17:27 7308 20 female R 6 5 16 moral immoralOther U u 1 0.6485 
10-May-2018_14:17:28 7308 20 female R 6 5 17 moral immoralOther U u 1 0.4167 
10-May-2018_14:17:30 7308 20 female R 6 5 18 moral moralOther Y y 1 0.3865 
10-May-2018_14:17:31 7308 20 female R 6 5 19 moral immoralSelf U u 1 0.4406 
10-May-2018_14:17:33 7308 20 female R 6 5 20 moral moralOther Y y 1 0.7106 
10-May-2018_14:17:35 7308 20 female R 6 5 21 moral immoralOther U u 1 0.4550 
10-May-2018_14:17:37 7308 20 female R 6 5 22 moral moralOther Y y 1 0.3714 
10-May-2018_14:17:38 7308 20 female R 6 5 23 moral moralSelf Y y 1 0.2508 
10-May-2018_14:17:40 7308 20 female R 6 5 24 moral moralOther Y y 1 0.3611 
