Date Sub Age Sex Hand Block Bin Trial Task Shape corrResp Resp ACC RT
02-Jun-2018_15:25:43 7338 20 female R 1 1 1 self moralSelf J NA -1 1.0841 
02-Jun-2018_15:25:45 7338 20 female R 1 1 2 self moralOther H NA -1 1.0841 
02-Jun-2018_15:25:47 7338 20 female R 1 1 3 self immoralOther H NA -1 1.0841 
02-Jun-2018_15:25:49 7338 20 female R 1 1 4 self moralSelf J j 1 0.8287 
02-Jun-2018_15:25:51 7338 20 female R 1 1 5 self moralOther H h 1 0.4538 
02-Jun-2018_15:25:53 7338 20 female R 1 1 6 self moralSelf J j 1 0.3899 
02-Jun-2018_15:25:55 7338 20 female R 1 1 7 self moralOther H h 1 0.5098 
02-Jun-2018_15:25:57 7338 20 female R 1 1 8 self moralOther H h 1 0.4737 
02-Jun-2018_15:25:59 7338 20 female R 1 1 9 self immoralSelf J j 1 0.5203 
02-Jun-2018_15:26:00 7338 20 female R 1 1 10 self immoralSelf J j 1 0.3882 
02-Jun-2018_15:26:02 7338 20 female R 1 1 11 self immoralOther H j 0 0.6466 
02-Jun-2018_15:26:04 7338 20 female R 1 1 12 self immoralSelf J j 1 0.6933 
02-Jun-2018_15:26:06 7338 20 female R 1 1 13 self moralSelf J j 1 0.6858 
02-Jun-2018_15:26:07 7338 20 female R 1 1 14 self moralOther H h 1 0.3857 
02-Jun-2018_15:26:09 7338 20 female R 1 1 15 self immoralSelf J j 1 0.6101 
02-Jun-2018_15:26:10 7338 20 female R 1 1 16 self moralSelf J j 1 0.4480 
02-Jun-2018_15:26:12 7338 20 female R 1 1 17 self immoralSelf J j 1 0.4715 
02-Jun-2018_15:26:14 7338 20 female R 1 1 18 self immoralOther H j 0 0.4387 
02-Jun-2018_15:26:16 7338 20 female R 1 1 19 self moralSelf J j 1 0.5671 
02-Jun-2018_15:26:18 7338 20 female R 1 1 20 self immoralOther H j 0 0.4190 
02-Jun-2018_15:26:20 7338 20 female R 1 1 21 self immoralSelf J j 1 0.3974 
02-Jun-2018_15:26:21 7338 20 female R 1 1 22 self immoralOther H j 0 0.3834 
02-Jun-2018_15:26:23 7338 20 female R 1 1 23 self moralOther H h 1 0.3901 
02-Jun-2018_15:26:25 7338 20 female R 1 1 24 self immoralOther H j 0 0.4080 
02-Jun-2018_15:26:27 7338 20 female R 1 2 1 self immoralSelf J j 1 0.4801 
02-Jun-2018_15:26:29 7338 20 female R 1 2 2 self immoralSelf J j 1 0.5130 
02-Jun-2018_15:26:30 7338 20 female R 1 2 3 self immoralOther H j 0 0.4228 
02-Jun-2018_15:26:32 7338 20 female R 1 2 4 self moralSelf J j 1 0.3396 
02-Jun-2018_15:26:34 7338 20 female R 1 2 5 self moralOther H h 1 0.4097 
02-Jun-2018_15:26:36 7338 20 female R 1 2 6 self moralSelf J j 1 0.5105 
02-Jun-2018_15:26:37 7338 20 female R 1 2 7 self moralSelf J j 1 0.4334 
02-Jun-2018_15:26:39 7338 20 female R 1 2 8 self moralSelf J j 1 0.3638 
02-Jun-2018_15:26:41 7338 20 female R 1 2 9 self moralSelf J j 1 0.3113 
02-Jun-2018_15:26:42 7338 20 female R 1 2 10 self moralOther H h 1 0.4981 
02-Jun-2018_15:26:44 7338 20 female R 1 2 11 self immoralSelf J j 1 0.4680 
02-Jun-2018_15:26:46 7338 20 female R 1 2 12 self immoralOther H j 0 0.4248 
02-Jun-2018_15:26:47 7338 20 female R 1 2 13 self immoralOther H j 0 0.3769 
02-Jun-2018_15:26:49 7338 20 female R 1 2 14 self moralSelf J j 1 0.5190 
02-Jun-2018_15:26:51 7338 20 female R 1 2 15 self immoralOther H NA -1 1.0841 
02-Jun-2018_15:26:53 7338 20 female R 1 2 16 self immoralOther H j 0 0.5013 
02-Jun-2018_15:26:55 7338 20 female R 1 2 17 self immoralOther H j 0 0.3565 
02-Jun-2018_15:26:57 7338 20 female R 1 2 18 self moralOther H h 1 0.5223 
02-Jun-2018_15:26:58 7338 20 female R 1 2 19 self moralOther H h 1 0.4193 
02-Jun-2018_15:27:00 7338 20 female R 1 2 20 self immoralSelf J j 1 0.4456 
02-Jun-2018_15:27:02 7338 20 female R 1 2 21 self moralOther H h 1 0.3073 
02-Jun-2018_15:27:03 7338 20 female R 1 2 22 self immoralSelf J j 1 0.2895 
02-Jun-2018_15:27:05 7338 20 female R 1 2 23 self moralOther H h 1 0.2849 
02-Jun-2018_15:27:06 7338 20 female R 1 2 24 self immoralSelf J j 1 0.4920 
02-Jun-2018_15:27:16 7338 20 female R 1 3 1 self immoralOther H j 0 0.5846 
02-Jun-2018_15:27:18 7338 20 female R 1 3 2 self immoralSelf J j 1 0.4180 
02-Jun-2018_15:27:20 7338 20 female R 1 3 3 self moralOther H h 1 0.4506 
02-Jun-2018_15:27:22 7338 20 female R 1 3 4 self immoralSelf J j 1 0.2972 
02-Jun-2018_15:27:24 7338 20 female R 1 3 5 self moralOther H h 1 0.3647 
02-Jun-2018_15:27:25 7338 20 female R 1 3 6 self moralSelf J j 1 0.3915 
02-Jun-2018_15:27:27 7338 20 female R 1 3 7 self moralSelf J j 1 0.3540 
02-Jun-2018_15:27:29 7338 20 female R 1 3 8 self moralOther H h 1 0.4048 
02-Jun-2018_15:27:30 7338 20 female R 1 3 9 self moralSelf J j 1 0.2825 
02-Jun-2018_15:27:32 7338 20 female R 1 3 10 self immoralSelf J j 1 0.4618 
02-Jun-2018_15:27:34 7338 20 female R 1 3 11 self immoralSelf J j 1 0.3387 
02-Jun-2018_15:27:35 7338 20 female R 1 3 12 self immoralOther H j 0 0.4004 
02-Jun-2018_15:27:37 7338 20 female R 1 3 13 self immoralOther H j 0 0.3811 
02-Jun-2018_15:27:39 7338 20 female R 1 3 14 self moralOther H h 1 0.3691 
02-Jun-2018_15:27:40 7338 20 female R 1 3 15 self immoralSelf J j 1 0.3041 
02-Jun-2018_15:27:42 7338 20 female R 1 3 16 self moralSelf J j 1 0.4509 
02-Jun-2018_15:27:44 7338 20 female R 1 3 17 self moralOther H h 1 0.4035 
02-Jun-2018_15:27:46 7338 20 female R 1 3 18 self immoralSelf J j 1 0.3334 
02-Jun-2018_15:27:47 7338 20 female R 1 3 19 self moralOther H h 1 0.4022 
02-Jun-2018_15:27:49 7338 20 female R 1 3 20 self immoralOther H j 0 0.5242 
02-Jun-2018_15:27:51 7338 20 female R 1 3 21 self immoralOther H j 0 0.5181 
02-Jun-2018_15:27:52 7338 20 female R 1 3 22 self immoralOther H j 0 0.4071 
02-Jun-2018_15:27:54 7338 20 female R 1 3 23 self moralSelf J j 1 0.3992 
02-Jun-2018_15:27:56 7338 20 female R 1 3 24 self moralSelf J j 1 0.3710 
02-Jun-2018_15:27:57 7338 20 female R 1 4 1 self moralOther H h 1 0.4070 
02-Jun-2018_15:27:59 7338 20 female R 1 4 2 self immoralOther H j 0 0.4366 
02-Jun-2018_15:28:01 7338 20 female R 1 4 3 self immoralOther H j 0 0.3740 
02-Jun-2018_15:28:02 7338 20 female R 1 4 4 self moralOther H h 1 0.3394 
02-Jun-2018_15:28:04 7338 20 female R 1 4 5 self moralSelf J j 1 0.3483 
02-Jun-2018_15:28:06 7338 20 female R 1 4 6 self immoralOther H j 0 0.3832 
02-Jun-2018_15:28:07 7338 20 female R 1 4 7 self moralOther H h 1 0.3752 
02-Jun-2018_15:28:09 7338 20 female R 1 4 8 self moralSelf J j 1 0.3923 
02-Jun-2018_15:28:11 7338 20 female R 1 4 9 self moralSelf J j 1 0.4332 
02-Jun-2018_15:28:12 7338 20 female R 1 4 10 self moralOther H h 1 0.3392 
02-Jun-2018_15:28:14 7338 20 female R 1 4 11 self moralSelf J j 1 0.4819 
02-Jun-2018_15:28:16 7338 20 female R 1 4 12 self moralOther H h 1 0.3562 
02-Jun-2018_15:28:17 7338 20 female R 1 4 13 self moralSelf J j 1 0.2933 
02-Jun-2018_15:28:19 7338 20 female R 1 4 14 self moralSelf J j 1 0.5080 
02-Jun-2018_15:28:21 7338 20 female R 1 4 15 self immoralOther H j 0 0.3682 
02-Jun-2018_15:28:23 7338 20 female R 1 4 16 self immoralSelf J j 1 0.4817 
02-Jun-2018_15:28:24 7338 20 female R 1 4 17 self immoralSelf J j 1 0.3345 
02-Jun-2018_15:28:26 7338 20 female R 1 4 18 self immoralOther H j 0 0.4913 
02-Jun-2018_15:28:28 7338 20 female R 1 4 19 self immoralSelf J j 1 0.3643 
02-Jun-2018_15:28:29 7338 20 female R 1 4 20 self immoralOther H j 0 0.4556 
02-Jun-2018_15:28:31 7338 20 female R 1 4 21 self immoralSelf J j 1 0.3992 
02-Jun-2018_15:28:33 7338 20 female R 1 4 22 self immoralSelf J j 1 0.3117 
02-Jun-2018_15:28:34 7338 20 female R 1 4 23 self immoralSelf J j 1 0.6864 
02-Jun-2018_15:28:36 7338 20 female R 1 4 24 self moralOther H h 1 0.5293 
02-Jun-2018_15:28:48 7338 20 female R 1 5 1 self immoralSelf J j 1 0.4173 
02-Jun-2018_15:28:50 7338 20 female R 1 5 2 self immoralOther H j 0 0.4319 
02-Jun-2018_15:28:52 7338 20 female R 1 5 3 self immoralOther H j 0 0.4122 
02-Jun-2018_15:28:53 7338 20 female R 1 5 4 self immoralSelf J j 1 0.3920 
02-Jun-2018_15:28:55 7338 20 female R 1 5 5 self immoralSelf J j 1 0.3211 
02-Jun-2018_15:28:56 7338 20 female R 1 5 6 self moralSelf J j 1 0.3936 
02-Jun-2018_15:28:58 7338 20 female R 1 5 7 self immoralOther H j 0 0.4464 
02-Jun-2018_15:29:00 7338 20 female R 1 5 8 self moralOther H h 1 0.3330 
02-Jun-2018_15:29:02 7338 20 female R 1 5 9 self immoralSelf J j 1 0.6960 
02-Jun-2018_15:29:04 7338 20 female R 1 5 10 self moralSelf J j 1 0.5289 
02-Jun-2018_15:29:06 7338 20 female R 1 5 11 self immoralSelf J j 1 0.3333 
02-Jun-2018_15:29:07 7338 20 female R 1 5 12 self immoralOther H j 0 0.4340 
02-Jun-2018_15:29:09 7338 20 female R 1 5 13 self immoralOther H j 0 0.3903 
02-Jun-2018_15:29:11 7338 20 female R 1 5 14 self moralOther H h 1 0.4229 
02-Jun-2018_15:29:13 7338 20 female R 1 5 15 self immoralSelf J j 1 0.3722 
02-Jun-2018_15:29:14 7338 20 female R 1 5 16 self moralSelf J j 1 0.4005 
02-Jun-2018_15:29:16 7338 20 female R 1 5 17 self immoralOther H j 0 0.4424 
02-Jun-2018_15:29:18 7338 20 female R 1 5 18 self moralSelf J j 1 0.3983 
02-Jun-2018_15:29:19 7338 20 female R 1 5 19 self moralSelf J j 1 0.3540 
02-Jun-2018_15:29:21 7338 20 female R 1 5 20 self moralOther H h 1 0.4746 
02-Jun-2018_15:29:23 7338 20 female R 1 5 21 self moralOther H h 1 0.4628 
02-Jun-2018_15:29:24 7338 20 female R 1 5 22 self moralOther H h 1 0.4153 
02-Jun-2018_15:29:26 7338 20 female R 1 5 23 self moralOther H h 1 0.4974 
02-Jun-2018_15:29:28 7338 20 female R 1 5 24 self moralSelf J j 1 0.4485 
Date Sub Age Sex Hand Block Bin Trial Task Shape corrResp Resp ACC RT
02-Jun-2018_15:32:14 7338 20 female R 2 1 1 moral immoralSelf U NA -1 1.0841 
02-Jun-2018_15:32:15 7338 20 female R 2 1 2 moral moralSelf Y y 1 0.6564 
02-Jun-2018_15:32:17 7338 20 female R 2 1 3 moral moralSelf Y y 1 0.4413 
02-Jun-2018_15:32:20 7338 20 female R 2 1 4 moral immoralOther U NA -1 1.0841 
02-Jun-2018_15:32:21 7338 20 female R 2 1 5 moral moralOther Y y 1 0.5752 
02-Jun-2018_15:32:23 7338 20 female R 2 1 6 moral immoralSelf U u 1 0.4806 
02-Jun-2018_15:32:25 7338 20 female R 2 1 7 moral immoralSelf U u 1 0.5121 
02-Jun-2018_15:32:27 7338 20 female R 2 1 8 moral moralSelf Y y 1 0.4898 
02-Jun-2018_15:32:28 7338 20 female R 2 1 9 moral immoralOther U y 0 0.5039 
02-Jun-2018_15:32:30 7338 20 female R 2 1 10 moral moralOther Y y 1 0.4988 
02-Jun-2018_15:32:32 7338 20 female R 2 1 11 moral moralOther Y y 1 0.5482 
02-Jun-2018_15:32:34 7338 20 female R 2 1 12 moral moralSelf Y y 1 0.6872 
02-Jun-2018_15:32:36 7338 20 female R 2 1 13 moral immoralSelf U u 1 0.3455 
02-Jun-2018_15:32:38 7338 20 female R 2 1 14 moral immoralOther U y 0 0.7847 
02-Jun-2018_15:32:40 7338 20 female R 2 1 15 moral immoralSelf U u 1 0.5363 
02-Jun-2018_15:32:41 7338 20 female R 2 1 16 moral moralSelf Y y 1 0.5148 
02-Jun-2018_15:32:43 7338 20 female R 2 1 17 moral immoralSelf U u 1 0.3619 
02-Jun-2018_15:32:45 7338 20 female R 2 1 18 moral moralOther Y y 1 0.4485 
02-Jun-2018_15:32:47 7338 20 female R 2 1 19 moral immoralOther U y 0 0.4632 
02-Jun-2018_15:32:49 7338 20 female R 2 1 20 moral moralSelf Y y 1 0.3847 
02-Jun-2018_15:32:50 7338 20 female R 2 1 21 moral moralOther Y y 1 0.4196 
02-Jun-2018_15:32:52 7338 20 female R 2 1 22 moral immoralOther U y 0 0.6813 
02-Jun-2018_15:32:54 7338 20 female R 2 1 23 moral moralOther Y y 1 0.4832 
02-Jun-2018_15:32:55 7338 20 female R 2 1 24 moral immoralOther U y 0 0.3272 
02-Jun-2018_15:32:57 7338 20 female R 2 2 1 moral moralOther Y y 1 0.4706 
02-Jun-2018_15:32:59 7338 20 female R 2 2 2 moral moralOther Y y 1 0.5696 
02-Jun-2018_15:33:00 7338 20 female R 2 2 3 moral moralSelf Y y 1 0.4703 
02-Jun-2018_15:33:02 7338 20 female R 2 2 4 moral moralSelf Y y 1 0.4615 
02-Jun-2018_15:33:03 7338 20 female R 2 2 5 moral immoralSelf U u 1 0.3726 
02-Jun-2018_15:33:05 7338 20 female R 2 2 6 moral immoralSelf U u 1 0.4122 
02-Jun-2018_15:33:07 7338 20 female R 2 2 7 moral immoralSelf U u 1 0.3364 
02-Jun-2018_15:33:09 7338 20 female R 2 2 8 moral moralSelf Y y 1 0.4359 
02-Jun-2018_15:33:11 7338 20 female R 2 2 9 moral immoralSelf U u 1 0.4340 
02-Jun-2018_15:33:13 7338 20 female R 2 2 10 moral moralOther Y y 1 0.3969 
02-Jun-2018_15:33:14 7338 20 female R 2 2 11 moral immoralOther U y 0 0.4944 
02-Jun-2018_15:33:16 7338 20 female R 2 2 12 moral moralOther Y y 1 0.4874 
02-Jun-2018_15:33:18 7338 20 female R 2 2 13 moral immoralOther U y 0 0.5345 
02-Jun-2018_15:33:19 7338 20 female R 2 2 14 moral immoralOther U y 0 0.4225 
02-Jun-2018_15:33:21 7338 20 female R 2 2 15 moral moralSelf Y y 1 0.5252 
02-Jun-2018_15:33:23 7338 20 female R 2 2 16 moral moralSelf Y y 1 0.3276 
02-Jun-2018_15:33:24 7338 20 female R 2 2 17 moral immoralSelf U u 1 0.4514 
02-Jun-2018_15:33:26 7338 20 female R 2 2 18 moral immoralOther U y 0 0.3433 
02-Jun-2018_15:33:27 7338 20 female R 2 2 19 moral immoralOther U y 0 0.3797 
02-Jun-2018_15:33:30 7338 20 female R 2 2 20 moral moralSelf Y y 1 0.5765 
02-Jun-2018_15:33:31 7338 20 female R 2 2 21 moral immoralSelf U u 1 0.3586 
02-Jun-2018_15:33:33 7338 20 female R 2 2 22 moral moralOther Y y 1 0.4199 
02-Jun-2018_15:33:35 7338 20 female R 2 2 23 moral moralOther Y y 1 0.4287 
02-Jun-2018_15:33:37 7338 20 female R 2 2 24 moral immoralOther U y 0 0.4590 
02-Jun-2018_15:33:44 7338 20 female R 2 3 1 moral moralSelf Y y 1 0.4446 
02-Jun-2018_15:33:46 7338 20 female R 2 3 2 moral moralOther Y y 1 0.4542 
02-Jun-2018_15:33:47 7338 20 female R 2 3 3 moral immoralSelf U u 1 0.5366 
02-Jun-2018_15:33:49 7338 20 female R 2 3 4 moral moralOther Y y 1 0.3645 
02-Jun-2018_15:33:51 7338 20 female R 2 3 5 moral moralSelf Y y 1 0.4512 
02-Jun-2018_15:33:53 7338 20 female R 2 3 6 moral immoralSelf U u 1 0.5429 
02-Jun-2018_15:33:54 7338 20 female R 2 3 7 moral immoralOther U y 0 0.3580 
02-Jun-2018_15:33:56 7338 20 female R 2 3 8 moral immoralOther U y 0 0.4861 
02-Jun-2018_15:33:57 7338 20 female R 2 3 9 moral immoralOther U y 0 0.4080 
02-Jun-2018_15:33:59 7338 20 female R 2 3 10 moral immoralSelf U u 1 0.5723 
02-Jun-2018_15:34:00 7338 20 female R 2 3 11 moral immoralSelf U u 1 0.3903 
02-Jun-2018_15:34:02 7338 20 female R 2 3 12 moral immoralOther U y 0 0.4304 
02-Jun-2018_15:34:03 7338 20 female R 2 3 13 moral immoralOther U y 0 0.4130 
02-Jun-2018_15:34:05 7338 20 female R 2 3 14 moral immoralOther U y 0 0.4309 
02-Jun-2018_15:34:06 7338 20 female R 2 3 15 moral immoralSelf U u 1 0.4865 
02-Jun-2018_15:34:08 7338 20 female R 2 3 16 moral moralSelf Y y 1 0.5623 
02-Jun-2018_15:34:10 7338 20 female R 2 3 17 moral moralOther Y y 1 0.5234 
02-Jun-2018_15:34:12 7338 20 female R 2 3 18 moral moralSelf Y y 1 0.3201 
02-Jun-2018_15:34:14 7338 20 female R 2 3 19 moral moralOther Y y 1 0.4361 
02-Jun-2018_15:34:15 7338 20 female R 2 3 20 moral immoralSelf U u 1 0.5024 
02-Jun-2018_15:34:17 7338 20 female R 2 3 21 moral moralSelf Y y 1 0.5509 
02-Jun-2018_15:34:19 7338 20 female R 2 3 22 moral moralOther Y y 1 0.5711 
02-Jun-2018_15:34:21 7338 20 female R 2 3 23 moral moralSelf Y y 1 0.6226 
02-Jun-2018_15:34:22 7338 20 female R 2 3 24 moral moralOther Y y 1 0.4048 
02-Jun-2018_15:34:24 7338 20 female R 2 4 1 moral moralOther Y y 1 0.4519 
02-Jun-2018_15:34:26 7338 20 female R 2 4 2 moral moralOther Y y 1 0.3310 
02-Jun-2018_15:34:27 7338 20 female R 2 4 3 moral immoralOther U y 0 0.3815 
02-Jun-2018_15:34:29 7338 20 female R 2 4 4 moral immoralSelf U u 1 0.4460 
02-Jun-2018_15:34:31 7338 20 female R 2 4 5 moral moralOther Y y 1 0.4197 
02-Jun-2018_15:34:32 7338 20 female R 2 4 6 moral immoralSelf U u 1 0.3695 
02-Jun-2018_15:34:34 7338 20 female R 2 4 7 moral immoralOther U y 0 0.4495 
02-Jun-2018_15:34:36 7338 20 female R 2 4 8 moral moralSelf Y y 1 0.3601 
02-Jun-2018_15:34:37 7338 20 female R 2 4 9 moral moralSelf Y y 1 0.3427 
02-Jun-2018_15:34:39 7338 20 female R 2 4 10 moral moralOther Y y 1 0.4638 
02-Jun-2018_15:34:40 7338 20 female R 2 4 11 moral immoralOther U y 0 0.3608 
02-Jun-2018_15:34:42 7338 20 female R 2 4 12 moral immoralSelf U u 1 0.4861 
02-Jun-2018_15:34:44 7338 20 female R 2 4 13 moral immoralOther U y 0 0.5472 
02-Jun-2018_15:34:45 7338 20 female R 2 4 14 moral moralSelf Y y 1 0.3304 
02-Jun-2018_15:34:47 7338 20 female R 2 4 15 moral immoralSelf U u 1 0.3628 
02-Jun-2018_15:34:49 7338 20 female R 2 4 16 moral immoralSelf U u 1 0.4349 
02-Jun-2018_15:34:50 7338 20 female R 2 4 17 moral immoralOther U y 0 0.3857 
02-Jun-2018_15:34:52 7338 20 female R 2 4 18 moral immoralOther U y 0 0.4286 
02-Jun-2018_15:34:53 7338 20 female R 2 4 19 moral moralOther Y y 1 0.3759 
02-Jun-2018_15:34:55 7338 20 female R 2 4 20 moral moralSelf Y y 1 0.3463 
02-Jun-2018_15:34:57 7338 20 female R 2 4 21 moral moralOther Y y 1 0.4070 
02-Jun-2018_15:34:58 7338 20 female R 2 4 22 moral moralSelf Y y 1 0.3450 
02-Jun-2018_15:35:00 7338 20 female R 2 4 23 moral immoralSelf U y 0 0.2735 
02-Jun-2018_15:35:02 7338 20 female R 2 4 24 moral moralSelf Y y 1 0.4514 
02-Jun-2018_15:35:08 7338 20 female R 2 5 1 moral moralSelf Y y 1 0.4211 
02-Jun-2018_15:35:10 7338 20 female R 2 5 2 moral moralOther Y y 1 0.3690 
02-Jun-2018_15:35:12 7338 20 female R 2 5 3 moral immoralSelf U u 1 0.5992 
02-Jun-2018_15:35:13 7338 20 female R 2 5 4 moral moralSelf Y y 1 0.5678 
02-Jun-2018_15:35:15 7338 20 female R 2 5 5 moral moralSelf Y y 1 0.4008 
02-Jun-2018_15:35:17 7338 20 female R 2 5 6 moral moralSelf Y y 1 0.4959 
02-Jun-2018_15:35:19 7338 20 female R 2 5 7 moral immoralSelf U u 1 0.4277 
02-Jun-2018_15:35:20 7338 20 female R 2 5 8 moral immoralOther U y 0 0.3656 
02-Jun-2018_15:35:22 7338 20 female R 2 5 9 moral moralSelf Y y 1 0.5332 
02-Jun-2018_15:35:24 7338 20 female R 2 5 10 moral immoralOther U y 0 0.4604 
02-Jun-2018_15:35:26 7338 20 female R 2 5 11 moral immoralSelf U u 1 0.4726 
02-Jun-2018_15:35:28 7338 20 female R 2 5 12 moral moralOther Y y 1 0.5348 
02-Jun-2018_15:35:29 7338 20 female R 2 5 13 moral immoralOther U y 0 0.3716 
02-Jun-2018_15:35:31 7338 20 female R 2 5 14 moral moralSelf Y y 1 0.3599 
02-Jun-2018_15:35:33 7338 20 female R 2 5 15 moral immoralSelf U u 1 0.4997 
02-Jun-2018_15:35:34 7338 20 female R 2 5 16 moral moralOther Y y 1 0.3638 
02-Jun-2018_15:35:36 7338 20 female R 2 5 17 moral moralOther Y y 1 0.4302 
02-Jun-2018_15:35:38 7338 20 female R 2 5 18 moral moralOther Y y 1 0.4064 
02-Jun-2018_15:35:40 7338 20 female R 2 5 19 moral immoralSelf U u 1 0.4092 
02-Jun-2018_15:35:41 7338 20 female R 2 5 20 moral immoralSelf U u 1 0.3250 
02-Jun-2018_15:35:43 7338 20 female R 2 5 21 moral immoralOther U y 0 0.3915 
02-Jun-2018_15:35:44 7338 20 female R 2 5 22 moral moralOther Y y 1 0.3614 
02-Jun-2018_15:35:46 7338 20 female R 2 5 23 moral immoralOther U y 0 0.4659 
02-Jun-2018_15:35:48 7338 20 female R 2 5 24 moral immoralOther U y 0 0.4561 
Date Sub Age Sex Hand Block Bin Trial Task Shape corrResp Resp ACC RT
02-Jun-2018_15:38:28 7338 20 female R 3 1 1 moral immoralSelf U u 1 0.6343 
02-Jun-2018_15:38:30 7338 20 female R 3 1 2 moral moralOther Y y 1 0.7649 
02-Jun-2018_15:38:32 7338 20 female R 3 1 3 moral moralOther Y y 1 0.5574 
02-Jun-2018_15:38:34 7338 20 female R 3 1 4 moral immoralSelf U u 1 0.6191 
02-Jun-2018_15:38:35 7338 20 female R 3 1 5 moral moralOther Y y 1 0.4917 
02-Jun-2018_15:38:37 7338 20 female R 3 1 6 moral moralSelf Y u 0 0.3450 
02-Jun-2018_15:38:39 7338 20 female R 3 1 7 moral immoralSelf U u 1 0.5097 
02-Jun-2018_15:38:41 7338 20 female R 3 1 8 moral moralSelf Y y 1 0.5399 
02-Jun-2018_15:38:43 7338 20 female R 3 1 9 moral moralSelf Y y 1 0.4971 
02-Jun-2018_15:38:45 7338 20 female R 3 1 10 moral immoralOther U u 1 0.6929 
02-Jun-2018_15:38:47 7338 20 female R 3 1 11 moral immoralOther U u 1 0.5086 
02-Jun-2018_15:38:49 7338 20 female R 3 1 12 moral immoralOther U u 1 0.5407 
02-Jun-2018_15:38:50 7338 20 female R 3 1 13 moral moralSelf Y u 0 0.7450 
02-Jun-2018_15:38:52 7338 20 female R 3 1 14 moral immoralSelf U u 1 0.5606 
02-Jun-2018_15:38:54 7338 20 female R 3 1 15 moral moralSelf Y u 0 0.5471 
02-Jun-2018_15:38:56 7338 20 female R 3 1 16 moral immoralOther U u 1 0.4681 
02-Jun-2018_15:38:58 7338 20 female R 3 1 17 moral moralOther Y y 1 0.4832 
02-Jun-2018_15:39:00 7338 20 female R 3 1 18 moral moralSelf Y u 0 0.5304 
02-Jun-2018_15:39:01 7338 20 female R 3 1 19 moral moralOther Y y 1 0.5746 
02-Jun-2018_15:39:03 7338 20 female R 3 1 20 moral immoralOther U u 1 0.5229 
02-Jun-2018_15:39:05 7338 20 female R 3 1 21 moral immoralOther U u 1 0.4270 
02-Jun-2018_15:39:06 7338 20 female R 3 1 22 moral moralOther Y y 1 0.4990 
02-Jun-2018_15:39:08 7338 20 female R 3 1 23 moral immoralSelf U u 1 0.4934 
02-Jun-2018_15:39:10 7338 20 female R 3 1 24 moral immoralSelf U u 1 0.4276 
02-Jun-2018_15:39:12 7338 20 female R 3 2 1 moral moralOther Y y 1 0.5699 
02-Jun-2018_15:39:14 7338 20 female R 3 2 2 moral moralSelf Y u 0 0.7129 
02-Jun-2018_15:39:15 7338 20 female R 3 2 3 moral immoralOther U u 1 0.3934 
02-Jun-2018_15:39:17 7338 20 female R 3 2 4 moral moralSelf Y u 0 0.3107 
02-Jun-2018_15:39:19 7338 20 female R 3 2 5 moral moralSelf Y u 0 0.3442 
02-Jun-2018_15:39:20 7338 20 female R 3 2 6 moral immoralSelf U u 1 0.3710 
02-Jun-2018_15:39:22 7338 20 female R 3 2 7 moral immoralOther U u 1 0.4022 
02-Jun-2018_15:39:24 7338 20 female R 3 2 8 moral moralOther Y y 1 0.5322 
02-Jun-2018_15:39:26 7338 20 female R 3 2 9 moral moralOther Y y 1 0.3684 
02-Jun-2018_15:39:28 7338 20 female R 3 2 10 moral immoralSelf U u 1 0.6654 
02-Jun-2018_15:39:29 7338 20 female R 3 2 11 moral immoralSelf U u 1 0.4222 
02-Jun-2018_15:39:31 7338 20 female R 3 2 12 moral immoralSelf U u 1 0.4397 
02-Jun-2018_15:39:32 7338 20 female R 3 2 13 moral immoralSelf U u 1 0.4906 
02-Jun-2018_15:39:34 7338 20 female R 3 2 14 moral immoralOther U u 1 0.5575 
02-Jun-2018_15:39:35 7338 20 female R 3 2 15 moral moralOther Y y 1 0.4215 
02-Jun-2018_15:39:37 7338 20 female R 3 2 16 moral immoralOther U u 1 0.4945 
02-Jun-2018_15:39:39 7338 20 female R 3 2 17 moral immoralOther U u 1 0.5459 
02-Jun-2018_15:39:41 7338 20 female R 3 2 18 moral moralSelf Y u 0 0.5116 
02-Jun-2018_15:39:42 7338 20 female R 3 2 19 moral moralSelf Y u 0 0.4341 
02-Jun-2018_15:39:44 7338 20 female R 3 2 20 moral immoralSelf U u 1 0.5315 
02-Jun-2018_15:39:46 7338 20 female R 3 2 21 moral moralSelf Y u 0 0.4685 
02-Jun-2018_15:39:47 7338 20 female R 3 2 22 moral moralOther Y y 1 0.3670 
02-Jun-2018_15:39:49 7338 20 female R 3 2 23 moral moralOther Y y 1 0.4879 
02-Jun-2018_15:39:51 7338 20 female R 3 2 24 moral immoralOther U u 1 0.6541 
02-Jun-2018_15:40:11 7338 20 female R 3 3 1 moral moralSelf Y u 0 0.4677 
02-Jun-2018_15:40:13 7338 20 female R 3 3 2 moral immoralOther U u 1 0.4658 
02-Jun-2018_15:40:14 7338 20 female R 3 3 3 moral moralOther Y y 1 0.4122 
02-Jun-2018_15:40:16 7338 20 female R 3 3 4 moral immoralSelf U u 1 0.3327 
02-Jun-2018_15:40:18 7338 20 female R 3 3 5 moral moralSelf Y u 0 0.3776 
02-Jun-2018_15:40:19 7338 20 female R 3 3 6 moral immoralSelf U u 1 0.2957 
02-Jun-2018_15:40:21 7338 20 female R 3 3 7 moral moralOther Y y 1 0.4162 
02-Jun-2018_15:40:23 7338 20 female R 3 3 8 moral immoralOther U u 1 0.4842 
02-Jun-2018_15:40:25 7338 20 female R 3 3 9 moral moralOther Y y 1 0.4380 
02-Jun-2018_15:40:27 7338 20 female R 3 3 10 moral moralSelf Y u 0 0.5172 
02-Jun-2018_15:40:28 7338 20 female R 3 3 11 moral immoralSelf U u 1 0.3897 
02-Jun-2018_15:40:30 7338 20 female R 3 3 12 moral immoralOther U u 1 0.6151 
02-Jun-2018_15:40:31 7338 20 female R 3 3 13 moral moralSelf Y u 0 0.3781 
02-Jun-2018_15:40:33 7338 20 female R 3 3 14 moral moralSelf Y u 0 0.3541 
02-Jun-2018_15:40:34 7338 20 female R 3 3 15 moral immoralSelf U u 1 0.3235 
02-Jun-2018_15:40:36 7338 20 female R 3 3 16 moral immoralSelf U u 1 0.4553 
02-Jun-2018_15:40:38 7338 20 female R 3 3 17 moral moralOther Y y 1 0.6329 
02-Jun-2018_15:40:40 7338 20 female R 3 3 18 moral immoralOther U u 1 0.4508 
02-Jun-2018_15:40:42 7338 20 female R 3 3 19 moral immoralOther U u 1 0.6218 
02-Jun-2018_15:40:43 7338 20 female R 3 3 20 moral moralSelf Y u 0 0.3662 
02-Jun-2018_15:40:45 7338 20 female R 3 3 21 moral moralOther Y y 1 0.5320 
02-Jun-2018_15:40:47 7338 20 female R 3 3 22 moral immoralOther U u 1 0.5993 
02-Jun-2018_15:40:49 7338 20 female R 3 3 23 moral immoralSelf U u 1 0.4494 
02-Jun-2018_15:40:50 7338 20 female R 3 3 24 moral moralOther Y y 1 0.5200 
02-Jun-2018_15:40:52 7338 20 female R 3 4 1 moral immoralOther U u 1 0.3633 
02-Jun-2018_15:40:54 7338 20 female R 3 4 2 moral moralSelf Y u 0 0.3394 
02-Jun-2018_15:40:55 7338 20 female R 3 4 3 moral moralSelf Y u 0 0.3601 
02-Jun-2018_15:40:57 7338 20 female R 3 4 4 moral immoralOther U u 1 0.5601 
02-Jun-2018_15:40:59 7338 20 female R 3 4 5 moral immoralSelf U u 1 0.2859 
02-Jun-2018_15:41:01 7338 20 female R 3 4 6 moral moralOther Y y 1 0.4413 
02-Jun-2018_15:41:03 7338 20 female R 3 4 7 moral immoralOther U u 1 0.3627 
02-Jun-2018_15:41:04 7338 20 female R 3 4 8 moral immoralSelf U u 1 0.3394 
02-Jun-2018_15:41:06 7338 20 female R 3 4 9 moral immoralSelf U u 1 0.3083 
02-Jun-2018_15:41:08 7338 20 female R 3 4 10 moral moralSelf Y u 0 0.3766 
02-Jun-2018_15:41:09 7338 20 female R 3 4 11 moral moralSelf Y u 0 0.3451 
02-Jun-2018_15:41:11 7338 20 female R 3 4 12 moral immoralOther U u 1 0.4087 
02-Jun-2018_15:41:12 7338 20 female R 3 4 13 moral moralOther Y y 1 0.3702 
02-Jun-2018_15:41:14 7338 20 female R 3 4 14 moral immoralOther U u 1 0.5100 
02-Jun-2018_15:41:16 7338 20 female R 3 4 15 moral immoralOther U u 1 0.3209 
02-Jun-2018_15:41:17 7338 20 female R 3 4 16 moral moralOther Y y 1 0.4311 
02-Jun-2018_15:41:19 7338 20 female R 3 4 17 moral moralOther Y y 1 0.4095 
02-Jun-2018_15:41:20 7338 20 female R 3 4 18 moral immoralSelf U u 1 0.4115 
02-Jun-2018_15:41:22 7338 20 female R 3 4 19 moral immoralSelf U u 1 0.2662 
02-Jun-2018_15:41:23 7338 20 female R 3 4 20 moral immoralSelf U u 1 0.2981 
02-Jun-2018_15:41:25 7338 20 female R 3 4 21 moral moralOther Y y 1 0.4436 
02-Jun-2018_15:41:26 7338 20 female R 3 4 22 moral moralSelf Y u 0 0.3566 
02-Jun-2018_15:41:28 7338 20 female R 3 4 23 moral moralSelf Y u 0 0.2923 
02-Jun-2018_15:41:30 7338 20 female R 3 4 24 moral moralOther Y y 1 0.3944 
02-Jun-2018_15:42:01 7338 20 female R 3 5 1 moral immoralSelf U u 1 0.5744 
02-Jun-2018_15:42:03 7338 20 female R 3 5 2 moral moralOther Y y 1 0.5138 
02-Jun-2018_15:42:05 7338 20 female R 3 5 3 moral moralSelf Y u 0 0.5021 
02-Jun-2018_15:42:06 7338 20 female R 3 5 4 moral moralSelf Y u 0 0.4306 
02-Jun-2018_15:42:08 7338 20 female R 3 5 5 moral moralOther Y y 1 0.5088 
02-Jun-2018_15:42:10 7338 20 female R 3 5 6 moral moralSelf Y u 0 0.3437 
02-Jun-2018_15:42:12 7338 20 female R 3 5 7 moral immoralSelf U u 1 0.7263 
02-Jun-2018_15:42:14 7338 20 female R 3 5 8 moral moralSelf Y u 0 0.3354 
02-Jun-2018_15:42:15 7338 20 female R 3 5 9 moral moralSelf Y u 0 0.3590 
02-Jun-2018_15:42:17 7338 20 female R 3 5 10 moral immoralSelf U u 1 0.4442 
02-Jun-2018_15:42:19 7338 20 female R 3 5 11 moral moralOther Y y 1 0.3710 
02-Jun-2018_15:42:20 7338 20 female R 3 5 12 moral immoralOther U u 1 0.5427 
02-Jun-2018_15:42:22 7338 20 female R 3 5 13 moral moralSelf Y u 0 0.4860 
02-Jun-2018_15:42:24 7338 20 female R 3 5 14 moral immoralSelf U u 1 0.4651 
02-Jun-2018_15:42:25 7338 20 female R 3 5 15 moral moralOther Y y 1 0.4648 
02-Jun-2018_15:42:27 7338 20 female R 3 5 16 moral immoralOther U u 1 0.3806 
02-Jun-2018_15:42:29 7338 20 female R 3 5 17 moral moralOther Y y 1 0.4917 
02-Jun-2018_15:42:30 7338 20 female R 3 5 18 moral immoralSelf U u 1 0.4108 
02-Jun-2018_15:42:32 7338 20 female R 3 5 19 moral immoralOther U u 1 0.4189 
02-Jun-2018_15:42:34 7338 20 female R 3 5 20 moral immoralOther U u 1 0.3549 
02-Jun-2018_15:42:36 7338 20 female R 3 5 21 moral immoralOther U u 1 0.7438 
02-Jun-2018_15:42:38 7338 20 female R 3 5 22 moral moralOther Y y 1 0.4384 
02-Jun-2018_15:42:39 7338 20 female R 3 5 23 moral immoralSelf U u 1 0.3758 
02-Jun-2018_15:42:41 7338 20 female R 3 5 24 moral immoralOther U u 1 0.3614 
Date Sub Age Sex Hand Block Bin Trial Task Shape corrResp Resp ACC RT
02-Jun-2018_15:45:12 7338 20 female R 4 1 1 self moralOther H NA -1 1.0841 
02-Jun-2018_15:45:14 7338 20 female R 4 1 2 self moralSelf J j 1 0.9606 
02-Jun-2018_15:45:16 7338 20 female R 4 1 3 self moralOther H h 1 0.6074 
02-Jun-2018_15:45:17 7338 20 female R 4 1 4 self moralOther H h 1 0.4379 
02-Jun-2018_15:45:19 7338 20 female R 4 1 5 self immoralOther H j 0 0.4362 
02-Jun-2018_15:45:20 7338 20 female R 4 1 6 self moralOther H h 1 0.4442 
02-Jun-2018_15:45:22 7338 20 female R 4 1 7 self immoralOther H j 0 0.5479 
02-Jun-2018_15:45:24 7338 20 female R 4 1 8 self immoralOther H j 0 0.4335 
02-Jun-2018_15:45:25 7338 20 female R 4 1 9 self immoralSelf J j 1 0.5592 
02-Jun-2018_15:45:27 7338 20 female R 4 1 10 self immoralOther H j 0 0.4214 
02-Jun-2018_15:45:29 7338 20 female R 4 1 11 self immoralSelf J j 1 0.3729 
02-Jun-2018_15:45:30 7338 20 female R 4 1 12 self moralSelf J j 1 0.3297 
02-Jun-2018_15:45:32 7338 20 female R 4 1 13 self immoralOther H j 0 0.5572 
02-Jun-2018_15:45:34 7338 20 female R 4 1 14 self moralSelf J j 1 0.2720 
02-Jun-2018_15:45:36 7338 20 female R 4 1 15 self immoralSelf J j 1 0.3079 
02-Jun-2018_15:45:37 7338 20 female R 4 1 16 self immoralOther H j 0 0.3263 
02-Jun-2018_15:45:39 7338 20 female R 4 1 17 self immoralSelf J j 1 0.3743 
02-Jun-2018_15:45:41 7338 20 female R 4 1 18 self immoralSelf J j 1 0.3000 
02-Jun-2018_15:45:42 7338 20 female R 4 1 19 self immoralSelf J j 1 0.2827 
02-Jun-2018_15:45:44 7338 20 female R 4 1 20 self moralOther H h 1 0.4851 
02-Jun-2018_15:45:45 7338 20 female R 4 1 21 self moralSelf J j 1 0.5237 
02-Jun-2018_15:45:47 7338 20 female R 4 1 22 self moralSelf J j 1 0.4137 
02-Jun-2018_15:45:49 7338 20 female R 4 1 23 self moralSelf J j 1 0.3286 
02-Jun-2018_15:45:51 7338 20 female R 4 1 24 self moralOther H h 1 0.5499 
02-Jun-2018_15:45:52 7338 20 female R 4 2 1 self immoralSelf J j 1 0.4991 
02-Jun-2018_15:45:54 7338 20 female R 4 2 2 self moralSelf J j 1 0.7015 
02-Jun-2018_15:45:56 7338 20 female R 4 2 3 self moralSelf J j 1 0.4173 
02-Jun-2018_15:45:57 7338 20 female R 4 2 4 self moralSelf J j 1 0.3213 
02-Jun-2018_15:45:59 7338 20 female R 4 2 5 self moralOther H h 1 0.4597 
02-Jun-2018_15:46:01 7338 20 female R 4 2 6 self immoralOther H j 0 0.3908 
02-Jun-2018_15:46:03 7338 20 female R 4 2 7 self immoralOther H j 0 0.4830 
02-Jun-2018_15:46:04 7338 20 female R 4 2 8 self moralSelf J j 1 0.4374 
02-Jun-2018_15:46:06 7338 20 female R 4 2 9 self immoralSelf J j 1 0.3928 
02-Jun-2018_15:46:08 7338 20 female R 4 2 10 self immoralOther H j 0 0.4022 
02-Jun-2018_15:46:10 7338 20 female R 4 2 11 self immoralSelf J j 1 0.3891 
02-Jun-2018_15:46:11 7338 20 female R 4 2 12 self moralOther H h 1 0.3525 
02-Jun-2018_15:46:13 7338 20 female R 4 2 13 self moralOther H h 1 0.4447 
02-Jun-2018_15:46:14 7338 20 female R 4 2 14 self immoralSelf J j 1 0.4030 
02-Jun-2018_15:46:16 7338 20 female R 4 2 15 self immoralSelf J j 1 0.4595 
02-Jun-2018_15:46:17 7338 20 female R 4 2 16 self immoralOther H j 0 0.4280 
02-Jun-2018_15:46:19 7338 20 female R 4 2 17 self immoralOther H j 0 0.4027 
02-Jun-2018_15:46:21 7338 20 female R 4 2 18 self moralSelf J j 1 0.5124 
02-Jun-2018_15:46:23 7338 20 female R 4 2 19 self moralOther H h 1 0.5275 
02-Jun-2018_15:46:24 7338 20 female R 4 2 20 self moralOther H h 1 0.3803 
02-Jun-2018_15:46:26 7338 20 female R 4 2 21 self moralOther H h 1 0.3705 
02-Jun-2018_15:46:28 7338 20 female R 4 2 22 self immoralOther H j 0 0.3527 
02-Jun-2018_15:46:29 7338 20 female R 4 2 23 self immoralSelf J j 1 0.2887 
02-Jun-2018_15:46:31 7338 20 female R 4 2 24 self moralSelf J j 1 0.3833 
02-Jun-2018_15:47:06 7338 20 female R 4 3 1 self moralOther H h 1 0.5588 
02-Jun-2018_15:47:08 7338 20 female R 4 3 2 self moralOther H h 1 0.3382 
02-Jun-2018_15:47:09 7338 20 female R 4 3 3 self immoralSelf J j 1 0.3241 
02-Jun-2018_15:47:11 7338 20 female R 4 3 4 self immoralOther H j 0 0.4611 
02-Jun-2018_15:47:12 7338 20 female R 4 3 5 self immoralOther H j 0 0.3379 
02-Jun-2018_15:47:14 7338 20 female R 4 3 6 self immoralOther H j 0 0.2533 
02-Jun-2018_15:47:16 7338 20 female R 4 3 7 self moralSelf J j 1 0.4468 
02-Jun-2018_15:47:18 7338 20 female R 4 3 8 self moralOther H h 1 0.4538 
02-Jun-2018_15:47:19 7338 20 female R 4 3 9 self moralSelf J j 1 0.3649 
02-Jun-2018_15:47:21 7338 20 female R 4 3 10 self moralSelf J j 1 0.4714 
02-Jun-2018_15:47:23 7338 20 female R 4 3 11 self moralOther H h 1 0.2922 
02-Jun-2018_15:47:24 7338 20 female R 4 3 12 self immoralSelf J j 1 0.2504 
02-Jun-2018_15:47:26 7338 20 female R 4 3 13 self immoralOther H j 0 0.3120 
02-Jun-2018_15:47:27 7338 20 female R 4 3 14 self immoralSelf J j 1 0.2910 
02-Jun-2018_15:47:29 7338 20 female R 4 3 15 self immoralSelf J j 1 0.3179 
02-Jun-2018_15:47:31 7338 20 female R 4 3 16 self moralOther H h 1 0.4633 
02-Jun-2018_15:47:32 7338 20 female R 4 3 17 self immoralSelf J j 1 0.2835 
02-Jun-2018_15:47:34 7338 20 female R 4 3 18 self moralSelf J j 1 0.3068 
02-Jun-2018_15:47:36 7338 20 female R 4 3 19 self moralSelf J j 1 0.2663 
02-Jun-2018_15:47:37 7338 20 female R 4 3 20 self moralSelf J j 1 0.3873 
02-Jun-2018_15:47:39 7338 20 female R 4 3 21 self immoralSelf J j 1 0.3779 
02-Jun-2018_15:47:40 7338 20 female R 4 3 22 self moralOther H h 1 0.3888 
02-Jun-2018_15:47:42 7338 20 female R 4 3 23 self immoralOther H j 0 0.4544 
02-Jun-2018_15:47:43 7338 20 female R 4 3 24 self immoralOther H j 0 0.3569 
02-Jun-2018_15:47:45 7338 20 female R 4 4 1 self moralSelf J j 1 0.3622 
02-Jun-2018_15:47:47 7338 20 female R 4 4 2 self immoralSelf J j 1 0.2917 
02-Jun-2018_15:47:48 7338 20 female R 4 4 3 self immoralSelf J j 1 0.2809 
02-Jun-2018_15:47:50 7338 20 female R 4 4 4 self immoralSelf J j 1 0.3874 
02-Jun-2018_15:47:51 7338 20 female R 4 4 5 self moralSelf J j 1 0.3808 
02-Jun-2018_15:47:53 7338 20 female R 4 4 6 self immoralSelf J j 1 0.3932 
02-Jun-2018_15:47:55 7338 20 female R 4 4 7 self moralOther H h 1 0.4934 
02-Jun-2018_15:47:56 7338 20 female R 4 4 8 self immoralOther H j 0 0.3151 
02-Jun-2018_15:47:58 7338 20 female R 4 4 9 self moralOther H h 1 0.4582 
02-Jun-2018_15:48:00 7338 20 female R 4 4 10 self moralSelf J j 1 0.4183 
02-Jun-2018_15:48:02 7338 20 female R 4 4 11 self immoralSelf J j 1 0.3807 
02-Jun-2018_15:48:03 7338 20 female R 4 4 12 self immoralOther H j 0 0.3539 
02-Jun-2018_15:48:04 7338 20 female R 4 4 13 self moralSelf J j 1 0.4618 
02-Jun-2018_15:48:06 7338 20 female R 4 4 14 self immoralOther H j 0 0.3799 
02-Jun-2018_15:48:08 7338 20 female R 4 4 15 self moralOther H h 1 0.5720 
02-Jun-2018_15:48:09 7338 20 female R 4 4 16 self immoralSelf J j 1 0.3425 
02-Jun-2018_15:48:11 7338 20 female R 4 4 17 self moralOther H h 1 0.4516 
02-Jun-2018_15:48:13 7338 20 female R 4 4 18 self moralOther H h 1 0.4301 
02-Jun-2018_15:48:15 7338 20 female R 4 4 19 self moralSelf J j 1 0.3628 
02-Jun-2018_15:48:16 7338 20 female R 4 4 20 self immoralOther H j 0 0.2928 
02-Jun-2018_15:48:17 7338 20 female R 4 4 21 self moralSelf J j 1 0.4237 
02-Jun-2018_15:48:19 7338 20 female R 4 4 22 self immoralOther H j 0 0.4252 
02-Jun-2018_15:48:21 7338 20 female R 4 4 23 self immoralOther H j 0 0.5194 
02-Jun-2018_15:48:22 7338 20 female R 4 4 24 self moralOther H h 1 0.4780 
02-Jun-2018_15:48:41 7338 20 female R 4 5 1 self immoralSelf J j 1 0.4688 
02-Jun-2018_15:48:43 7338 20 female R 4 5 2 self moralOther H h 1 0.4754 
02-Jun-2018_15:48:45 7338 20 female R 4 5 3 self immoralSelf J j 1 0.4766 
02-Jun-2018_15:48:46 7338 20 female R 4 5 4 self immoralSelf J j 1 0.4385 
02-Jun-2018_15:48:48 7338 20 female R 4 5 5 self immoralSelf J j 1 0.2088 
02-Jun-2018_15:48:50 7338 20 female R 4 5 6 self moralOther H h 1 0.5199 
02-Jun-2018_15:48:52 7338 20 female R 4 5 7 self moralOther H h 1 0.4080 
02-Jun-2018_15:48:53 7338 20 female R 4 5 8 self moralSelf J j 1 0.3860 
02-Jun-2018_15:48:55 7338 20 female R 4 5 9 self immoralSelf J j 1 0.3249 
02-Jun-2018_15:48:56 7338 20 female R 4 5 10 self moralSelf J j 1 0.4341 
02-Jun-2018_15:48:58 7338 20 female R 4 5 11 self moralOther H h 1 0.6366 
02-Jun-2018_15:49:00 7338 20 female R 4 5 12 self moralSelf J j 1 0.4822 
02-Jun-2018_15:49:01 7338 20 female R 4 5 13 self moralSelf J j 1 0.3632 
02-Jun-2018_15:49:03 7338 20 female R 4 5 14 self moralOther H h 1 0.3807 
02-Jun-2018_15:49:05 7338 20 female R 4 5 15 self immoralOther H j 0 0.3668 
02-Jun-2018_15:49:06 7338 20 female R 4 5 16 self immoralOther H j 0 0.3126 
02-Jun-2018_15:49:08 7338 20 female R 4 5 17 self immoralOther H j 0 0.3230 
02-Jun-2018_15:49:10 7338 20 female R 4 5 18 self immoralOther H j 0 0.3029 
02-Jun-2018_15:49:11 7338 20 female R 4 5 19 self moralSelf J h 0 0.4078 
02-Jun-2018_15:49:13 7338 20 female R 4 5 20 self moralSelf J j 1 0.3802 
02-Jun-2018_15:49:15 7338 20 female R 4 5 21 self immoralSelf J j 1 0.4424 
02-Jun-2018_15:49:16 7338 20 female R 4 5 22 self moralOther H h 1 0.4815 
02-Jun-2018_15:49:18 7338 20 female R 4 5 23 self immoralOther H j 0 0.3926 
02-Jun-2018_15:49:20 7338 20 female R 4 5 24 self immoralOther H j 0 0.3498 
Date Sub Age Sex Hand Block Bin Trial Task Shape corrResp Resp ACC RT
02-Jun-2018_15:52:04 7338 20 female R 5 1 1 self immoralOther H j 0 0.5890 
02-Jun-2018_15:52:06 7338 20 female R 5 1 2 self immoralOther H j 0 0.3928 
02-Jun-2018_15:52:08 7338 20 female R 5 1 3 self moralOther H h 1 0.5379 
02-Jun-2018_15:52:09 7338 20 female R 5 1 4 self moralOther H h 1 0.4057 
02-Jun-2018_15:52:11 7338 20 female R 5 1 5 self moralOther H h 1 0.3959 
02-Jun-2018_15:52:13 7338 20 female R 5 1 6 self immoralSelf J j 1 0.2995 
02-Jun-2018_15:52:14 7338 20 female R 5 1 7 self moralSelf J j 1 0.2887 
02-Jun-2018_15:52:16 7338 20 female R 5 1 8 self immoralOther H j 0 0.3665 
02-Jun-2018_15:52:18 7338 20 female R 5 1 9 self moralOther H h 1 0.5232 
02-Jun-2018_15:52:19 7338 20 female R 5 1 10 self moralOther H h 1 0.4381 
02-Jun-2018_15:52:21 7338 20 female R 5 1 11 self immoralOther H j 0 0.3572 
02-Jun-2018_15:52:23 7338 20 female R 5 1 12 self immoralSelf J j 1 0.3014 
02-Jun-2018_15:52:25 7338 20 female R 5 1 13 self moralSelf J j 1 0.3904 
02-Jun-2018_15:52:26 7338 20 female R 5 1 14 self moralSelf J j 1 0.3357 
02-Jun-2018_15:52:28 7338 20 female R 5 1 15 self moralSelf J j 1 0.3537 
02-Jun-2018_15:52:29 7338 20 female R 5 1 16 self immoralOther H j 0 0.3001 
02-Jun-2018_15:52:31 7338 20 female R 5 1 17 self immoralSelf J j 1 0.3383 
02-Jun-2018_15:52:33 7338 20 female R 5 1 18 self immoralSelf J j 1 0.3750 
02-Jun-2018_15:52:35 7338 20 female R 5 1 19 self moralOther H h 1 0.4919 
02-Jun-2018_15:52:36 7338 20 female R 5 1 20 self immoralSelf J j 1 0.3305 
02-Jun-2018_15:52:38 7338 20 female R 5 1 21 self immoralSelf J j 1 0.3824 
02-Jun-2018_15:52:40 7338 20 female R 5 1 22 self moralSelf J j 1 0.3076 
02-Jun-2018_15:52:41 7338 20 female R 5 1 23 self moralSelf J j 1 0.3382 
02-Jun-2018_15:52:43 7338 20 female R 5 1 24 self immoralOther H j 0 0.4894 
02-Jun-2018_15:52:45 7338 20 female R 5 2 1 self moralOther H h 1 0.5232 
02-Jun-2018_15:52:46 7338 20 female R 5 2 2 self moralSelf J j 1 0.3469 
02-Jun-2018_15:52:48 7338 20 female R 5 2 3 self moralSelf J j 1 0.3748 
02-Jun-2018_15:52:50 7338 20 female R 5 2 4 self immoralOther H j 0 0.3070 
02-Jun-2018_15:52:51 7338 20 female R 5 2 5 self immoralSelf J j 1 0.3410 
02-Jun-2018_15:52:53 7338 20 female R 5 2 6 self moralSelf J j 1 0.4008 
02-Jun-2018_15:52:55 7338 20 female R 5 2 7 self moralOther H h 1 0.5058 
02-Jun-2018_15:52:57 7338 20 female R 5 2 8 self moralOther H h 1 0.4649 
02-Jun-2018_15:52:58 7338 20 female R 5 2 9 self immoralOther H j 0 0.3953 
02-Jun-2018_15:53:00 7338 20 female R 5 2 10 self immoralSelf J j 1 0.4124 
02-Jun-2018_15:53:01 7338 20 female R 5 2 11 self moralSelf J j 1 0.4552 
02-Jun-2018_15:53:03 7338 20 female R 5 2 12 self immoralOther H j 0 0.4294 
02-Jun-2018_15:53:05 7338 20 female R 5 2 13 self immoralOther H j 0 0.3668 
02-Jun-2018_15:53:06 7338 20 female R 5 2 14 self moralSelf J j 1 0.3834 
02-Jun-2018_15:53:08 7338 20 female R 5 2 15 self moralOther H h 1 0.6216 
02-Jun-2018_15:53:10 7338 20 female R 5 2 16 self immoralOther H j 0 0.3350 
02-Jun-2018_15:53:12 7338 20 female R 5 2 17 self moralOther H h 1 0.5013 
02-Jun-2018_15:53:14 7338 20 female R 5 2 18 self immoralSelf J j 1 0.4882 
02-Jun-2018_15:53:15 7338 20 female R 5 2 19 self moralOther H h 1 0.5316 
02-Jun-2018_15:53:17 7338 20 female R 5 2 20 self immoralOther H j 0 0.4319 
02-Jun-2018_15:53:19 7338 20 female R 5 2 21 self immoralSelf J j 1 0.3848 
02-Jun-2018_15:53:21 7338 20 female R 5 2 22 self immoralSelf J j 1 0.3586 
02-Jun-2018_15:53:23 7338 20 female R 5 2 23 self moralSelf J j 1 0.3444 
02-Jun-2018_15:53:24 7338 20 female R 5 2 24 self immoralSelf J j 1 0.3366 
02-Jun-2018_15:55:13 7338 20 female R 5 3 1 self moralOther H h 1 0.4278 
02-Jun-2018_15:55:15 7338 20 female R 5 3 2 self moralOther H h 1 0.3544 
02-Jun-2018_15:55:17 7338 20 female R 5 3 3 self immoralOther H j 0 0.4086 
02-Jun-2018_15:55:19 7338 20 female R 5 3 4 self immoralSelf J j 1 0.5837 
02-Jun-2018_15:55:20 7338 20 female R 5 3 5 self immoralOther H j 0 0.3319 
02-Jun-2018_15:55:22 7338 20 female R 5 3 6 self moralSelf J j 1 0.2964 
02-Jun-2018_15:55:23 7338 20 female R 5 3 7 self moralOther H h 1 0.3981 
02-Jun-2018_15:55:25 7338 20 female R 5 3 8 self moralSelf J j 1 0.3850 
02-Jun-2018_15:55:27 7338 20 female R 5 3 9 self moralSelf J j 1 0.3793 
02-Jun-2018_15:55:28 7338 20 female R 5 3 10 self immoralOther H j 0 0.3398 
02-Jun-2018_15:55:30 7338 20 female R 5 3 11 self immoralSelf J j 1 0.3560 
02-Jun-2018_15:55:31 7338 20 female R 5 3 12 self immoralSelf J j 1 0.2892 
02-Jun-2018_15:55:33 7338 20 female R 5 3 13 self immoralOther H j 0 0.3556 
02-Jun-2018_15:55:35 7338 20 female R 5 3 14 self immoralSelf J j 1 0.3034 
02-Jun-2018_15:55:36 7338 20 female R 5 3 15 self immoralOther H j 0 0.3303 
02-Jun-2018_15:55:38 7338 20 female R 5 3 16 self moralOther H h 1 0.5016 
02-Jun-2018_15:55:40 7338 20 female R 5 3 17 self immoralSelf J j 1 0.2533 
02-Jun-2018_15:55:41 7338 20 female R 5 3 18 self moralSelf J j 1 0.3239 
02-Jun-2018_15:55:43 7338 20 female R 5 3 19 self moralSelf J j 1 0.3818 
02-Jun-2018_15:55:45 7338 20 female R 5 3 20 self moralOther H h 1 0.3579 
02-Jun-2018_15:55:46 7338 20 female R 5 3 21 self immoralSelf J j 1 0.3114 
02-Jun-2018_15:55:48 7338 20 female R 5 3 22 self moralSelf J j 1 0.2818 
02-Jun-2018_15:55:50 7338 20 female R 5 3 23 self moralOther H h 1 0.4677 
02-Jun-2018_15:55:51 7338 20 female R 5 3 24 self immoralOther H j 0 0.4019 
02-Jun-2018_15:55:53 7338 20 female R 5 4 1 self moralSelf J j 1 0.4171 
02-Jun-2018_15:55:54 7338 20 female R 5 4 2 self immoralSelf J j 1 0.2600 
02-Jun-2018_15:55:56 7338 20 female R 5 4 3 self immoralOther H j 0 0.4369 
02-Jun-2018_15:55:58 7338 20 female R 5 4 4 self moralOther H h 1 0.5241 
02-Jun-2018_15:56:00 7338 20 female R 5 4 5 self immoralOther H j 0 0.2988 
02-Jun-2018_15:56:01 7338 20 female R 5 4 6 self moralOther H h 1 0.4202 
02-Jun-2018_15:56:03 7338 20 female R 5 4 7 self immoralSelf J j 1 0.4678 
02-Jun-2018_15:56:05 7338 20 female R 5 4 8 self immoralOther H j 0 0.4273 
02-Jun-2018_15:56:06 7338 20 female R 5 4 9 self moralSelf J j 1 0.4124 
02-Jun-2018_15:56:07 7338 20 female R 5 4 10 self moralSelf J j 1 0.3898 
02-Jun-2018_15:56:09 7338 20 female R 5 4 11 self moralOther H h 1 0.4821 
02-Jun-2018_15:56:11 7338 20 female R 5 4 12 self moralOther H h 1 0.4770 
02-Jun-2018_15:56:12 7338 20 female R 5 4 13 self moralSelf J j 1 0.3415 
02-Jun-2018_15:56:14 7338 20 female R 5 4 14 self moralSelf J j 1 0.3803 
02-Jun-2018_15:56:15 7338 20 female R 5 4 15 self immoralSelf J j 1 0.3031 
02-Jun-2018_15:56:17 7338 20 female R 5 4 16 self moralOther H h 1 0.4194 
02-Jun-2018_15:56:19 7338 20 female R 5 4 17 self immoralOther H j 0 0.3320 
02-Jun-2018_15:56:20 7338 20 female R 5 4 18 self moralSelf J j 1 0.3099 
02-Jun-2018_15:56:22 7338 20 female R 5 4 19 self immoralSelf J j 1 0.3984 
02-Jun-2018_15:56:23 7338 20 female R 5 4 20 self immoralSelf J j 1 0.3574 
02-Jun-2018_15:56:25 7338 20 female R 5 4 21 self immoralSelf J j 1 0.2893 
02-Jun-2018_15:56:26 7338 20 female R 5 4 22 self immoralOther H j 0 0.3078 
02-Jun-2018_15:56:28 7338 20 female R 5 4 23 self moralOther H h 1 0.4161 
02-Jun-2018_15:56:30 7338 20 female R 5 4 24 self immoralOther H j 0 0.3987 
02-Jun-2018_15:56:47 7338 20 female R 5 5 1 self moralSelf J j 1 0.5321 
02-Jun-2018_15:56:48 7338 20 female R 5 5 2 self moralSelf J j 1 0.2714 
02-Jun-2018_15:56:50 7338 20 female R 5 5 3 self immoralOther H j 0 0.2653 
02-Jun-2018_15:56:52 7338 20 female R 5 5 4 self moralSelf J j 1 0.2796 
02-Jun-2018_15:56:53 7338 20 female R 5 5 5 self moralOther H h 1 0.3737 
02-Jun-2018_15:56:55 7338 20 female R 5 5 6 self immoralSelf J j 1 0.3794 
02-Jun-2018_15:56:57 7338 20 female R 5 5 7 self moralOther H h 1 0.4167 
02-Jun-2018_15:56:59 7338 20 female R 5 5 8 self immoralSelf J j 1 0.4026 
02-Jun-2018_15:57:00 7338 20 female R 5 5 9 self moralSelf J j 1 0.3185 
02-Jun-2018_15:57:02 7338 20 female R 5 5 10 self immoralSelf J j 1 0.2908 
02-Jun-2018_15:57:04 7338 20 female R 5 5 11 self immoralOther H j 0 0.4264 
02-Jun-2018_15:57:06 7338 20 female R 5 5 12 self immoralOther H j 0 0.2992 
02-Jun-2018_15:57:07 7338 20 female R 5 5 13 self immoralSelf J j 1 0.2953 
02-Jun-2018_15:57:09 7338 20 female R 5 5 14 self moralOther H h 1 0.4760 
02-Jun-2018_15:57:11 7338 20 female R 5 5 15 self immoralOther H j 0 0.6774 
02-Jun-2018_15:57:13 7338 20 female R 5 5 16 self moralSelf J j 1 0.3641 
02-Jun-2018_15:57:14 7338 20 female R 5 5 17 self moralOther H h 1 0.4249 
02-Jun-2018_15:57:16 7338 20 female R 5 5 18 self moralOther H h 1 0.5458 
02-Jun-2018_15:57:18 7338 20 female R 5 5 19 self immoralOther H j 0 0.3828 
02-Jun-2018_15:57:19 7338 20 female R 5 5 20 self moralSelf J j 1 0.3113 
02-Jun-2018_15:57:21 7338 20 female R 5 5 21 self immoralSelf J j 1 0.3869 
02-Jun-2018_15:57:22 7338 20 female R 5 5 22 self immoralSelf J j 1 0.4317 
02-Jun-2018_15:57:24 7338 20 female R 5 5 23 self moralOther H h 1 0.4911 
02-Jun-2018_15:57:26 7338 20 female R 5 5 24 self immoralOther H j 0 0.2902 
Date Sub Age Sex Hand Block Bin Trial Task Shape corrResp Resp ACC RT
02-Jun-2018_16:00:14 7338 20 female R 6 1 1 moral immoralOther U NA -1 1.0841 
02-Jun-2018_16:00:17 7338 20 female R 6 1 2 moral immoralOther U NA -1 1.0841 
02-Jun-2018_16:00:18 7338 20 female R 6 1 3 moral immoralSelf U y 0 0.6690 
02-Jun-2018_16:00:20 7338 20 female R 6 1 4 moral immoralOther U y 0 0.4470 
02-Jun-2018_16:00:22 7338 20 female R 6 1 5 moral moralOther Y u 0 0.4342 
02-Jun-2018_16:00:24 7338 20 female R 6 1 6 moral immoralSelf U y 0 0.6095 
02-Jun-2018_16:00:25 7338 20 female R 6 1 7 moral moralSelf Y y 1 0.3624 
02-Jun-2018_16:00:27 7338 20 female R 6 1 8 moral moralOther Y u 0 0.4214 
02-Jun-2018_16:00:29 7338 20 female R 6 1 9 moral immoralSelf U y 0 0.4196 
02-Jun-2018_16:00:31 7338 20 female R 6 1 10 moral moralOther Y u 0 0.3965 
02-Jun-2018_16:00:32 7338 20 female R 6 1 11 moral immoralSelf U y 0 0.4578 
02-Jun-2018_16:00:34 7338 20 female R 6 1 12 moral moralOther Y u 0 0.5609 
02-Jun-2018_16:00:36 7338 20 female R 6 1 13 moral moralSelf Y y 1 0.5383 
02-Jun-2018_16:00:37 7338 20 female R 6 1 14 moral moralOther Y u 0 0.4834 
02-Jun-2018_16:00:39 7338 20 female R 6 1 15 moral moralSelf Y y 1 0.5667 
02-Jun-2018_16:00:41 7338 20 female R 6 1 16 moral immoralSelf U y 0 0.5311 
02-Jun-2018_16:00:43 7338 20 female R 6 1 17 moral immoralSelf U y 0 0.3528 
02-Jun-2018_16:00:44 7338 20 female R 6 1 18 moral moralSelf Y y 1 0.4023 
02-Jun-2018_16:00:46 7338 20 female R 6 1 19 moral immoralOther U y 0 0.5449 
02-Jun-2018_16:00:48 7338 20 female R 6 1 20 moral moralSelf Y y 1 0.5563 
02-Jun-2018_16:00:49 7338 20 female R 6 1 21 moral immoralOther U y 0 0.4339 
02-Jun-2018_16:00:51 7338 20 female R 6 1 22 moral immoralOther U y 0 0.3046 
02-Jun-2018_16:00:52 7338 20 female R 6 1 23 moral moralSelf Y y 1 0.3804 
02-Jun-2018_16:00:54 7338 20 female R 6 1 24 moral moralOther Y u 0 0.4860 
02-Jun-2018_16:00:56 7338 20 female R 6 2 1 moral immoralSelf U y 0 0.5679 
02-Jun-2018_16:00:57 7338 20 female R 6 2 2 moral moralOther Y u 0 0.5040 
02-Jun-2018_16:00:59 7338 20 female R 6 2 3 moral moralSelf Y y 1 0.3252 
02-Jun-2018_16:01:01 7338 20 female R 6 2 4 moral immoralOther U y 0 0.3747 
02-Jun-2018_16:01:03 7338 20 female R 6 2 5 moral immoralSelf U y 0 0.6302 
02-Jun-2018_16:01:04 7338 20 female R 6 2 6 moral immoralOther U y 0 0.5649 
02-Jun-2018_16:01:06 7338 20 female R 6 2 7 moral immoralSelf U y 0 0.4455 
02-Jun-2018_16:01:08 7338 20 female R 6 2 8 moral moralOther Y u 0 0.4012 
02-Jun-2018_16:01:09 7338 20 female R 6 2 9 moral moralOther Y u 0 0.4098 
02-Jun-2018_16:01:11 7338 20 female R 6 2 10 moral immoralOther U y 0 0.4354 
02-Jun-2018_16:01:13 7338 20 female R 6 2 11 moral immoralOther U y 0 0.3896 
02-Jun-2018_16:01:15 7338 20 female R 6 2 12 moral immoralSelf U y 0 0.4137 
02-Jun-2018_16:01:16 7338 20 female R 6 2 13 moral moralOther Y u 0 0.3738 
02-Jun-2018_16:01:18 7338 20 female R 6 2 14 moral immoralSelf U y 0 0.4510 
02-Jun-2018_16:01:19 7338 20 female R 6 2 15 moral immoralSelf U y 0 0.4088 
02-Jun-2018_16:01:21 7338 20 female R 6 2 16 moral moralSelf Y y 1 0.4328 
02-Jun-2018_16:01:23 7338 20 female R 6 2 17 moral moralSelf Y y 1 0.3067 
02-Jun-2018_16:01:24 7338 20 female R 6 2 18 moral moralSelf Y y 1 0.3830 
02-Jun-2018_16:01:26 7338 20 female R 6 2 19 moral moralSelf Y y 1 0.4566 
02-Jun-2018_16:01:28 7338 20 female R 6 2 20 moral immoralOther U y 0 0.5431 
02-Jun-2018_16:01:30 7338 20 female R 6 2 21 moral moralOther Y u 0 0.4849 
02-Jun-2018_16:01:31 7338 20 female R 6 2 22 moral moralOther Y u 0 0.4126 
02-Jun-2018_16:01:33 7338 20 female R 6 2 23 moral moralSelf Y y 1 0.4827 
02-Jun-2018_16:01:35 7338 20 female R 6 2 24 moral immoralOther U y 0 0.4780 
02-Jun-2018_16:01:43 7338 20 female R 6 3 1 moral immoralOther U y 0 0.4299 
02-Jun-2018_16:01:45 7338 20 female R 6 3 2 moral moralSelf Y y 1 0.4145 
02-Jun-2018_16:01:47 7338 20 female R 6 3 3 moral immoralSelf U y 0 0.5712 
02-Jun-2018_16:01:49 7338 20 female R 6 3 4 moral immoralOther U y 0 0.3534 
02-Jun-2018_16:01:50 7338 20 female R 6 3 5 moral moralSelf Y y 1 0.3258 
02-Jun-2018_16:01:52 7338 20 female R 6 3 6 moral moralOther Y u 0 0.5036 
02-Jun-2018_16:01:54 7338 20 female R 6 3 7 moral moralSelf Y y 1 0.6459 
02-Jun-2018_16:01:55 7338 20 female R 6 3 8 moral immoralOther U y 0 0.3617 
02-Jun-2018_16:01:57 7338 20 female R 6 3 9 moral immoralSelf U y 0 0.4478 
02-Jun-2018_16:01:59 7338 20 female R 6 3 10 moral immoralOther U y 0 0.4008 
02-Jun-2018_16:02:01 7338 20 female R 6 3 11 moral immoralOther U y 0 0.4216 
02-Jun-2018_16:02:02 7338 20 female R 6 3 12 moral immoralSelf U y 0 0.2532 
02-Jun-2018_16:02:04 7338 20 female R 6 3 13 moral immoralSelf U y 0 0.1968 
02-Jun-2018_16:02:05 7338 20 female R 6 3 14 moral immoralSelf U y 0 0.2726 
02-Jun-2018_16:02:07 7338 20 female R 6 3 15 moral moralOther Y y 1 0.2963 
02-Jun-2018_16:02:09 7338 20 female R 6 3 16 moral immoralOther U y 0 0.4384 
02-Jun-2018_16:02:10 7338 20 female R 6 3 17 moral moralSelf Y y 1 0.3260 
02-Jun-2018_16:02:12 7338 20 female R 6 3 18 moral moralOther Y y 1 0.3016 
02-Jun-2018_16:02:14 7338 20 female R 6 3 19 moral moralSelf Y y 1 0.2480 
02-Jun-2018_16:02:15 7338 20 female R 6 3 20 moral immoralSelf U y 0 0.2499 
02-Jun-2018_16:02:17 7338 20 female R 6 3 21 moral moralOther Y u 0 0.4081 
02-Jun-2018_16:02:18 7338 20 female R 6 3 22 moral moralSelf Y y 1 0.3941 
02-Jun-2018_16:02:20 7338 20 female R 6 3 23 moral moralOther Y u 0 0.3400 
02-Jun-2018_16:02:21 7338 20 female R 6 3 24 moral moralOther Y u 0 0.3966 
02-Jun-2018_16:02:23 7338 20 female R 6 4 1 moral moralOther Y u 0 0.3321 
02-Jun-2018_16:02:25 7338 20 female R 6 4 2 moral moralSelf Y y 1 0.4390 
02-Jun-2018_16:02:26 7338 20 female R 6 4 3 moral moralOther Y u 0 0.3430 
02-Jun-2018_16:02:28 7338 20 female R 6 4 4 moral immoralSelf U y 0 0.4509 
02-Jun-2018_16:02:30 7338 20 female R 6 4 5 moral moralSelf Y y 1 0.5116 
02-Jun-2018_16:02:31 7338 20 female R 6 4 6 moral moralOther Y u 0 0.4943 
02-Jun-2018_16:02:33 7338 20 female R 6 4 7 moral moralSelf Y y 1 0.3207 
02-Jun-2018_16:02:34 7338 20 female R 6 4 8 moral moralOther Y u 0 0.2592 
02-Jun-2018_16:02:36 7338 20 female R 6 4 9 moral immoralOther U y 0 0.3279 
02-Jun-2018_16:02:38 7338 20 female R 6 4 10 moral immoralSelf U y 0 0.4528 
02-Jun-2018_16:02:40 7338 20 female R 6 4 11 moral moralOther Y u 0 0.4612 
02-Jun-2018_16:02:41 7338 20 female R 6 4 12 moral moralSelf Y y 1 0.4350 
02-Jun-2018_16:02:43 7338 20 female R 6 4 13 moral immoralSelf U y 0 0.4689 
02-Jun-2018_16:02:45 7338 20 female R 6 4 14 moral moralSelf Y y 1 0.6101 
02-Jun-2018_16:02:46 7338 20 female R 6 4 15 moral immoralOther U y 0 0.2771 
02-Jun-2018_16:02:48 7338 20 female R 6 4 16 moral immoralSelf U y 0 0.6634 
02-Jun-2018_16:02:50 7338 20 female R 6 4 17 moral immoralOther U y 0 0.5181 
02-Jun-2018_16:02:52 7338 20 female R 6 4 18 moral immoralOther U y 0 0.3266 
02-Jun-2018_16:02:53 7338 20 female R 6 4 19 moral moralSelf Y y 1 0.3384 
02-Jun-2018_16:02:55 7338 20 female R 6 4 20 moral immoralSelf U y 0 0.4058 
02-Jun-2018_16:02:56 7338 20 female R 6 4 21 moral immoralOther U y 0 0.4468 
02-Jun-2018_16:02:58 7338 20 female R 6 4 22 moral immoralOther U y 0 0.3814 
02-Jun-2018_16:02:59 7338 20 female R 6 4 23 moral moralOther Y u 0 0.3621 
02-Jun-2018_16:03:02 7338 20 female R 6 4 24 moral immoralSelf U y 0 0.7664 
02-Jun-2018_16:04:05 7338 20 female R 6 5 1 moral moralSelf Y y 1 0.6842 
02-Jun-2018_16:04:07 7338 20 female R 6 5 2 moral moralOther Y u 0 0.5610 
02-Jun-2018_16:04:09 7338 20 female R 6 5 3 moral moralOther Y u 0 0.3281 
02-Jun-2018_16:04:10 7338 20 female R 6 5 4 moral immoralOther U y 0 0.4040 
02-Jun-2018_16:04:12 7338 20 female R 6 5 5 moral immoralSelf U y 0 0.3569 
02-Jun-2018_16:04:13 7338 20 female R 6 5 6 moral moralSelf Y y 1 0.4168 
02-Jun-2018_16:04:15 7338 20 female R 6 5 7 moral immoralOther U y 0 0.3368 
02-Jun-2018_16:04:17 7338 20 female R 6 5 8 moral moralSelf Y y 1 0.3242 
02-Jun-2018_16:04:18 7338 20 female R 6 5 9 moral immoralOther U y 0 0.3205 
02-Jun-2018_16:04:20 7338 20 female R 6 5 10 moral immoralOther U y 0 0.3347 
02-Jun-2018_16:04:22 7338 20 female R 6 5 11 moral moralOther Y u 0 0.2590 
02-Jun-2018_16:04:23 7338 20 female R 6 5 12 moral moralOther Y u 0 0.3776 
02-Jun-2018_16:04:25 7338 20 female R 6 5 13 moral moralSelf Y y 1 0.4201 
02-Jun-2018_16:04:27 7338 20 female R 6 5 14 moral immoralSelf U y 0 0.5312 
02-Jun-2018_16:04:29 7338 20 female R 6 5 15 moral moralSelf Y y 1 0.3619 
02-Jun-2018_16:04:30 7338 20 female R 6 5 16 moral immoralSelf U y 0 0.3035 
02-Jun-2018_16:04:32 7338 20 female R 6 5 17 moral immoralSelf U y 0 0.4335 
02-Jun-2018_16:04:33 7338 20 female R 6 5 18 moral immoralOther U y 0 0.3701 
02-Jun-2018_16:04:35 7338 20 female R 6 5 19 moral immoralSelf U y 0 0.5268 
02-Jun-2018_16:04:37 7338 20 female R 6 5 20 moral immoralSelf U y 0 0.3358 
02-Jun-2018_16:04:39 7338 20 female R 6 5 21 moral moralSelf Y y 1 0.6753 
02-Jun-2018_16:04:40 7338 20 female R 6 5 22 moral moralOther Y u 0 0.4762 
02-Jun-2018_16:04:42 7338 20 female R 6 5 23 moral moralOther Y u 0 0.4165 
02-Jun-2018_16:04:44 7338 20 female R 6 5 24 moral immoralOther U y 0 0.5939 
