Date Prac Sub Age Sex Hand Block Bin Trial Shape Label Match CorrResp Resp ACC RT
16-May-2018_14:03:27 Exp 7315 20 female R 1 1 1 moralSelf moralSelf match n n 1 0.4002 
16-May-2018_14:03:29 Exp 7315 20 female R 1 1 2 immoralSelf immoralSelf match n n 1 0.5410 
16-May-2018_14:03:32 Exp 7315 20 female R 1 1 3 immoralOther immoralOther match n n 1 0.7007 
16-May-2018_14:03:34 Exp 7315 20 female R 1 1 4 immoralSelf moralSelf mismatch m n 0 0.5394 
16-May-2018_14:03:36 Exp 7315 20 female R 1 1 5 moralSelf moralSelf match n n 1 0.4111 
16-May-2018_14:03:38 Exp 7315 20 female R 1 1 6 moralOther immoralSelf mismatch m m 1 0.5880 
16-May-2018_14:03:41 Exp 7315 20 female R 1 1 7 moralOther immoralOther mismatch m NA -1 1.0841 
16-May-2018_14:03:43 Exp 7315 20 female R 1 1 8 immoralOther moralOther mismatch m m 1 0.1991 
16-May-2018_14:03:45 Exp 7315 20 female R 1 1 9 moralOther moralOther match n n 1 0.4279 
16-May-2018_14:03:47 Exp 7315 20 female R 1 1 10 immoralSelf moralOther mismatch m m 1 0.5291 
16-May-2018_14:03:49 Exp 7315 20 female R 1 1 11 immoralOther immoralOther match n m 0 0.6045 
16-May-2018_14:03:51 Exp 7315 20 female R 1 1 12 moralSelf immoralOther mismatch m m 1 0.6813 
16-May-2018_14:03:54 Exp 7315 20 female R 1 1 13 immoralOther immoralOther match n m 0 0.5237 
16-May-2018_14:03:56 Exp 7315 20 female R 1 1 14 moralOther moralSelf mismatch m n 0 0.5388 
16-May-2018_14:03:58 Exp 7315 20 female R 1 1 15 immoralSelf immoralSelf match n m 0 0.6585 
16-May-2018_14:04:01 Exp 7315 20 female R 1 1 16 moralSelf moralOther mismatch m m 1 0.9324 
16-May-2018_14:04:03 Exp 7315 20 female R 1 1 17 immoralSelf immoralSelf match n n 1 0.9359 
16-May-2018_14:04:05 Exp 7315 20 female R 1 1 18 moralOther moralOther match n m 0 0.6192 
16-May-2018_14:04:08 Exp 7315 20 female R 1 1 19 immoralOther moralOther mismatch m m 1 0.7243 
16-May-2018_14:04:10 Exp 7315 20 female R 1 1 20 moralSelf moralSelf match n n 1 0.3554 
16-May-2018_14:04:12 Exp 7315 20 female R 1 1 21 immoralSelf moralOther mismatch m m 1 0.7913 
16-May-2018_14:04:14 Exp 7315 20 female R 1 1 22 moralOther moralOther match n m 0 0.5039 
16-May-2018_14:04:16 Exp 7315 20 female R 1 1 23 immoralOther moralOther mismatch m n 0 0.4588 
16-May-2018_14:04:19 Exp 7315 20 female R 1 1 24 moralSelf immoralOther mismatch m m 1 0.5647 
16-May-2018_14:04:21 Exp 7315 20 female R 1 2 1 moralSelf moralSelf match n n 1 0.5328 
16-May-2018_14:04:23 Exp 7315 20 female R 1 2 2 moralOther immoralSelf mismatch m m 1 0.8962 
16-May-2018_14:04:26 Exp 7315 20 female R 1 2 3 immoralOther moralSelf mismatch m m 1 0.6709 
16-May-2018_14:04:28 Exp 7315 20 female R 1 2 4 moralSelf moralSelf match n n 1 0.4771 
16-May-2018_14:04:30 Exp 7315 20 female R 1 2 5 moralOther moralSelf mismatch m m 1 0.5154 
16-May-2018_14:04:32 Exp 7315 20 female R 1 2 6 moralSelf moralSelf match n n 1 0.4585 
16-May-2018_14:04:34 Exp 7315 20 female R 1 2 7 moralOther immoralSelf mismatch m m 1 0.7324 
16-May-2018_14:04:37 Exp 7315 20 female R 1 2 8 moralOther moralOther match n m 0 0.4958 
16-May-2018_14:04:39 Exp 7315 20 female R 1 2 9 immoralSelf immoralSelf match n n 1 0.6945 
16-May-2018_14:04:41 Exp 7315 20 female R 1 2 10 immoralSelf moralOther mismatch m m 1 0.5331 
16-May-2018_14:04:43 Exp 7315 20 female R 1 2 11 immoralOther moralOther mismatch m m 1 0.5366 
16-May-2018_14:04:46 Exp 7315 20 female R 1 2 12 immoralSelf moralSelf mismatch m m 1 0.7160 
16-May-2018_14:04:48 Exp 7315 20 female R 1 2 13 moralSelf immoralSelf mismatch m m 1 0.9231 
16-May-2018_14:04:51 Exp 7315 20 female R 1 2 14 moralOther moralOther match n n 1 0.9943 
16-May-2018_14:04:53 Exp 7315 20 female R 1 2 15 immoralSelf immoralOther mismatch m m 1 0.5229 
16-May-2018_14:04:55 Exp 7315 20 female R 1 2 16 moralSelf immoralSelf mismatch m m 1 0.7220 
16-May-2018_14:04:58 Exp 7315 20 female R 1 2 17 immoralSelf immoralSelf match n n 1 1.0092 
16-May-2018_14:05:00 Exp 7315 20 female R 1 2 18 immoralOther immoralOther match n m 0 0.5783 
16-May-2018_14:05:02 Exp 7315 20 female R 1 2 19 moralSelf immoralSelf mismatch m m 1 0.8065 
16-May-2018_14:05:05 Exp 7315 20 female R 1 2 20 immoralOther immoralSelf mismatch m m 1 0.8913 
16-May-2018_14:05:07 Exp 7315 20 female R 1 2 21 immoralSelf immoralSelf match n m 0 0.7301 
16-May-2018_14:05:10 Exp 7315 20 female R 1 2 22 immoralOther immoralOther match n m 0 0.5734 
16-May-2018_14:05:12 Exp 7315 20 female R 1 2 23 moralOther moralOther match n m 0 0.7816 
16-May-2018_14:05:15 Exp 7315 20 female R 1 2 24 immoralOther immoralOther match n n 1 0.9859 
16-May-2018_14:05:17 Exp 7315 20 female R 1 3 1 immoralOther immoralOther match n n 1 0.7144 
16-May-2018_14:05:19 Exp 7315 20 female R 1 3 2 moralOther moralOther match n n 1 0.8614 
16-May-2018_14:05:22 Exp 7315 20 female R 1 3 3 moralOther moralSelf mismatch m m 1 0.6475 
16-May-2018_14:05:24 Exp 7315 20 female R 1 3 4 immoralOther moralOther mismatch m n 0 1.0211 
16-May-2018_14:05:27 Exp 7315 20 female R 1 3 5 immoralOther moralSelf mismatch m m 1 0.9303 
16-May-2018_14:05:30 Exp 7315 20 female R 1 3 6 moralOther immoralSelf mismatch m m 1 0.9178 
16-May-2018_14:05:32 Exp 7315 20 female R 1 3 7 moralOther moralSelf mismatch m m 1 0.8290 
16-May-2018_14:05:34 Exp 7315 20 female R 1 3 8 moralSelf immoralOther mismatch m m 1 0.7382 
16-May-2018_14:05:37 Exp 7315 20 female R 1 3 9 moralOther moralOther match n NA -1 1.0841 
16-May-2018_14:05:39 Exp 7315 20 female R 1 3 10 immoralSelf immoralSelf match n n 1 0.7883 
16-May-2018_14:05:42 Exp 7315 20 female R 1 3 11 moralSelf immoralOther mismatch m m 1 0.6608 
16-May-2018_14:05:44 Exp 7315 20 female R 1 3 12 immoralOther immoralOther match n n 1 0.9988 
16-May-2018_14:05:47 Exp 7315 20 female R 1 3 13 immoralSelf moralSelf mismatch m m 1 0.8757 
16-May-2018_14:05:49 Exp 7315 20 female R 1 3 14 immoralOther moralSelf mismatch m m 1 0.8019 
16-May-2018_14:05:52 Exp 7315 20 female R 1 3 15 moralOther moralOther match n n 1 0.7666 
16-May-2018_14:05:54 Exp 7315 20 female R 1 3 16 moralSelf immoralOther mismatch m m 1 0.8148 
16-May-2018_14:05:56 Exp 7315 20 female R 1 3 17 moralSelf moralSelf match n n 1 0.4478 
16-May-2018_14:05:59 Exp 7315 20 female R 1 3 18 immoralOther immoralOther match n n 1 0.8296 
16-May-2018_14:06:01 Exp 7315 20 female R 1 3 19 immoralSelf moralOther mismatch m m 1 0.6668 
16-May-2018_14:06:03 Exp 7315 20 female R 1 3 20 immoralSelf immoralSelf match n n 1 0.7487 
16-May-2018_14:06:06 Exp 7315 20 female R 1 3 21 immoralSelf immoralSelf match n m 0 0.9885 
16-May-2018_14:06:08 Exp 7315 20 female R 1 3 22 moralSelf moralSelf match n n 1 0.5810 
16-May-2018_14:06:10 Exp 7315 20 female R 1 3 23 immoralSelf moralOther mismatch m m 1 0.5773 
16-May-2018_14:06:12 Exp 7315 20 female R 1 3 24 moralSelf moralSelf match n n 1 0.3737 
16-May-2018_14:06:33 Exp 7315 20 female R 1 4 1 immoralSelf immoralSelf match n n 1 0.6850 
16-May-2018_14:06:35 Exp 7315 20 female R 1 4 2 moralOther moralSelf mismatch m m 1 0.5275 
16-May-2018_14:06:37 Exp 7315 20 female R 1 4 3 immoralSelf moralSelf mismatch m m 1 0.9868 
16-May-2018_14:06:40 Exp 7315 20 female R 1 4 4 moralSelf moralOther mismatch m m 1 0.7475 
16-May-2018_14:06:42 Exp 7315 20 female R 1 4 5 moralOther immoralOther mismatch m n 0 0.7551 
16-May-2018_14:06:44 Exp 7315 20 female R 1 4 6 immoralOther immoralOther match n m 0 0.7910 
16-May-2018_14:06:47 Exp 7315 20 female R 1 4 7 moralSelf immoralOther mismatch m m 1 0.6635 
16-May-2018_14:06:49 Exp 7315 20 female R 1 4 8 moralOther immoralSelf mismatch m m 1 0.8575 
16-May-2018_14:06:52 Exp 7315 20 female R 1 4 9 moralSelf moralSelf match n n 1 0.6035 
16-May-2018_14:06:54 Exp 7315 20 female R 1 4 10 immoralOther immoralSelf mismatch m m 1 0.5683 
16-May-2018_14:06:56 Exp 7315 20 female R 1 4 11 immoralSelf moralOther mismatch m m 1 0.6324 
16-May-2018_14:06:58 Exp 7315 20 female R 1 4 12 moralOther moralOther match n m 0 0.6659 
16-May-2018_14:07:01 Exp 7315 20 female R 1 4 13 immoralOther moralSelf mismatch m m 1 0.6999 
16-May-2018_14:07:03 Exp 7315 20 female R 1 4 14 moralSelf moralSelf match n n 1 0.5465 
16-May-2018_14:07:05 Exp 7315 20 female R 1 4 15 immoralOther immoralOther match n n 1 0.8982 
16-May-2018_14:07:08 Exp 7315 20 female R 1 4 16 moralOther moralOther match n n 1 0.7128 
16-May-2018_14:07:10 Exp 7315 20 female R 1 4 17 moralOther moralOther match n n 1 0.6198 
16-May-2018_14:07:12 Exp 7315 20 female R 1 4 18 immoralOther immoralSelf mismatch m m 1 0.7008 
16-May-2018_14:07:14 Exp 7315 20 female R 1 4 19 immoralSelf immoralSelf match n m 0 0.6195 
16-May-2018_14:07:17 Exp 7315 20 female R 1 4 20 immoralOther immoralOther match n n 1 0.8446 
16-May-2018_14:07:19 Exp 7315 20 female R 1 4 21 moralSelf moralOther mismatch m n 0 0.6103 
16-May-2018_14:07:22 Exp 7315 20 female R 1 4 22 immoralSelf moralSelf mismatch m m 1 0.8514 
16-May-2018_14:07:24 Exp 7315 20 female R 1 4 23 immoralSelf immoralSelf match n n 1 0.6331 
16-May-2018_14:07:26 Exp 7315 20 female R 1 4 24 moralSelf moralSelf match n n 1 0.5305 
16-May-2018_14:07:28 Exp 7315 20 female R 1 5 1 immoralSelf immoralSelf match n n 1 0.5259 
16-May-2018_14:07:31 Exp 7315 20 female R 1 5 2 moralOther immoralOther mismatch m m 1 1.0611 
16-May-2018_14:07:33 Exp 7315 20 female R 1 5 3 immoralOther moralSelf mismatch m m 1 0.6791 
16-May-2018_14:07:36 Exp 7315 20 female R 1 5 4 moralOther moralOther match n n 1 0.8372 
16-May-2018_14:07:38 Exp 7315 20 female R 1 5 5 immoralOther moralSelf mismatch m m 1 0.5828 
16-May-2018_14:07:40 Exp 7315 20 female R 1 5 6 immoralOther immoralOther match n n 1 0.8592 
16-May-2018_14:07:43 Exp 7315 20 female R 1 5 7 immoralSelf immoralOther mismatch m NA -1 1.0841 
16-May-2018_14:07:45 Exp 7315 20 female R 1 5 8 moralSelf moralSelf match n n 1 0.4476 
16-May-2018_14:07:48 Exp 7315 20 female R 1 5 9 moralSelf immoralSelf mismatch m m 1 0.7334 
16-May-2018_14:07:50 Exp 7315 20 female R 1 5 10 moralSelf moralSelf match n n 1 0.5127 
16-May-2018_14:07:52 Exp 7315 20 female R 1 5 11 moralOther moralOther match n n 1 0.7956 
16-May-2018_14:07:55 Exp 7315 20 female R 1 5 12 immoralOther moralOther mismatch m m 1 0.7162 
16-May-2018_14:07:57 Exp 7315 20 female R 1 5 13 immoralSelf immoralSelf match n n 1 0.8993 
16-May-2018_14:07:59 Exp 7315 20 female R 1 5 14 moralSelf moralSelf match n n 1 0.4100 
16-May-2018_14:08:02 Exp 7315 20 female R 1 5 15 moralOther immoralOther mismatch m m 1 0.8031 
16-May-2018_14:08:04 Exp 7315 20 female R 1 5 16 immoralSelf moralSelf mismatch m m 1 0.5599 
16-May-2018_14:08:06 Exp 7315 20 female R 1 5 17 moralOther moralOther match n n 1 0.8677 
16-May-2018_14:08:09 Exp 7315 20 female R 1 5 18 immoralSelf immoralSelf match n m 0 0.6339 
16-May-2018_14:08:11 Exp 7315 20 female R 1 5 19 immoralOther immoralOther match n m 0 0.9714 
16-May-2018_14:08:14 Exp 7315 20 female R 1 5 20 moralOther immoralSelf mismatch m m 1 0.8676 
16-May-2018_14:08:16 Exp 7315 20 female R 1 5 21 moralSelf moralOther mismatch m n 0 0.5057 
16-May-2018_14:08:18 Exp 7315 20 female R 1 5 22 moralSelf immoralOther mismatch m m 1 0.5487 
16-May-2018_14:08:20 Exp 7315 20 female R 1 5 23 immoralSelf moralSelf mismatch m m 1 0.6523 
16-May-2018_14:08:23 Exp 7315 20 female R 1 5 24 immoralOther immoralOther match n NA -1 1.0841 
16-May-2018_14:08:29 Exp 7315 20 female R 2 1 1 moralSelf moralSelf match n NA -1 1.0841 
16-May-2018_14:08:31 Exp 7315 20 female R 2 1 2 immoralOther moralOther mismatch m n 0 0.3436 
16-May-2018_14:08:33 Exp 7315 20 female R 2 1 3 immoralSelf moralSelf mismatch m m 1 0.6712 
16-May-2018_14:08:35 Exp 7315 20 female R 2 1 4 moralOther moralOther match n m 0 0.7894 
16-May-2018_14:08:37 Exp 7315 20 female R 2 1 5 moralSelf moralSelf match n n 1 0.3180 
16-May-2018_14:08:40 Exp 7315 20 female R 2 1 6 immoralSelf immoralSelf match n n 1 0.6131 
16-May-2018_14:08:42 Exp 7315 20 female R 2 1 7 moralSelf moralOther mismatch m n 0 0.3662 
16-May-2018_14:08:44 Exp 7315 20 female R 2 1 8 immoralSelf moralSelf mismatch m m 1 0.4942 
16-May-2018_14:08:46 Exp 7315 20 female R 2 1 9 immoralOther moralOther mismatch m n 0 0.7169 
16-May-2018_14:08:48 Exp 7315 20 female R 2 1 10 immoralOther immoralOther match n n 1 0.7880 
16-May-2018_14:08:51 Exp 7315 20 female R 2 1 11 immoralSelf immoralSelf match n n 1 0.7487 
16-May-2018_14:08:53 Exp 7315 20 female R 2 1 12 immoralOther immoralOther match n n 1 0.9163 
16-May-2018_14:08:56 Exp 7315 20 female R 2 1 13 immoralOther immoralOther match n n 1 0.5634 
16-May-2018_14:08:58 Exp 7315 20 female R 2 1 14 moralOther moralOther match n n 1 0.8035 
16-May-2018_14:09:01 Exp 7315 20 female R 2 1 15 moralOther immoralSelf mismatch m m 1 0.8883 
16-May-2018_14:09:03 Exp 7315 20 female R 2 1 16 moralSelf moralSelf match n n 1 0.5628 
16-May-2018_14:09:05 Exp 7315 20 female R 2 1 17 moralOther immoralOther mismatch m NA -1 1.0841 
16-May-2018_14:09:08 Exp 7315 20 female R 2 1 18 moralOther moralOther match n n 1 0.7093 
16-May-2018_14:09:10 Exp 7315 20 female R 2 1 19 immoralSelf immoralSelf match n n 1 0.5682 
16-May-2018_14:09:13 Exp 7315 20 female R 2 1 20 moralOther immoralSelf mismatch m m 1 1.0244 
16-May-2018_14:09:15 Exp 7315 20 female R 2 1 21 moralSelf immoralOther mismatch m m 1 0.6776 
16-May-2018_14:09:17 Exp 7315 20 female R 2 1 22 immoralOther immoralSelf mismatch m m 1 0.7558 
16-May-2018_14:09:20 Exp 7315 20 female R 2 1 23 immoralSelf moralOther mismatch m m 1 0.9117 
16-May-2018_14:09:22 Exp 7315 20 female R 2 1 24 moralSelf immoralOther mismatch m m 1 0.5866 
16-May-2018_14:09:24 Exp 7315 20 female R 2 2 1 moralOther moralSelf mismatch m m 1 0.5872 
16-May-2018_14:09:27 Exp 7315 20 female R 2 2 2 immoralSelf moralSelf mismatch m m 1 0.6357 
16-May-2018_14:09:29 Exp 7315 20 female R 2 2 3 immoralSelf immoralSelf match n n 1 0.6532 
16-May-2018_14:09:31 Exp 7315 20 female R 2 2 4 moralOther immoralOther mismatch m m 1 0.5470 
16-May-2018_14:09:34 Exp 7315 20 female R 2 2 5 moralOther moralOther match n n 1 0.8906 
16-May-2018_14:09:36 Exp 7315 20 female R 2 2 6 moralOther moralOther match n NA -1 1.0841 
16-May-2018_14:09:39 Exp 7315 20 female R 2 2 7 immoralOther immoralOther match n m 0 0.5596 
16-May-2018_14:09:41 Exp 7315 20 female R 2 2 8 immoralOther moralSelf mismatch m m 1 0.6914 
16-May-2018_14:09:43 Exp 7315 20 female R 2 2 9 moralSelf immoralOther mismatch m m 1 0.7301 
16-May-2018_14:09:46 Exp 7315 20 female R 2 2 10 immoralSelf immoralOther mismatch m m 1 0.8055 
16-May-2018_14:09:48 Exp 7315 20 female R 2 2 11 moralOther moralOther match n n 1 0.8263 
16-May-2018_14:09:50 Exp 7315 20 female R 2 2 12 moralSelf moralSelf match n n 1 0.4876 
16-May-2018_14:09:53 Exp 7315 20 female R 2 2 13 immoralSelf moralSelf mismatch m m 1 0.6979 
16-May-2018_14:09:55 Exp 7315 20 female R 2 2 14 moralSelf moralOther mismatch m m 1 0.6487 
16-May-2018_14:09:58 Exp 7315 20 female R 2 2 15 immoralOther immoralOther match n NA -1 1.0841 
16-May-2018_14:10:00 Exp 7315 20 female R 2 2 16 moralSelf immoralSelf mismatch m m 1 0.6489 
16-May-2018_14:10:02 Exp 7315 20 female R 2 2 17 immoralSelf immoralSelf match n n 1 0.5506 
16-May-2018_14:10:04 Exp 7315 20 female R 2 2 18 immoralSelf immoralSelf match n m 0 0.7465 
16-May-2018_14:10:07 Exp 7315 20 female R 2 2 19 moralOther immoralOther mismatch m m 1 0.5381 
16-May-2018_14:10:09 Exp 7315 20 female R 2 2 20 immoralOther immoralOther match n NA -1 1.0841 
16-May-2018_14:10:12 Exp 7315 20 female R 2 2 21 moralSelf moralSelf match n n 1 0.5962 
16-May-2018_14:10:14 Exp 7315 20 female R 2 2 22 immoralOther moralOther mismatch m m 1 0.5807 
16-May-2018_14:10:16 Exp 7315 20 female R 2 2 23 moralSelf moralSelf match n n 1 0.4011 
16-May-2018_14:10:18 Exp 7315 20 female R 2 2 24 immoralOther moralSelf mismatch m m 1 0.6219 
16-May-2018_14:10:20 Exp 7315 20 female R 2 3 1 immoralSelf immoralSelf match n n 1 0.6351 
16-May-2018_14:10:23 Exp 7315 20 female R 2 3 2 moralSelf moralOther mismatch m n 0 0.5886 
16-May-2018_14:10:25 Exp 7315 20 female R 2 3 3 moralSelf moralSelf match n n 1 0.4292 
16-May-2018_14:10:27 Exp 7315 20 female R 2 3 4 immoralOther immoralSelf mismatch m m 1 0.6345 
16-May-2018_14:10:29 Exp 7315 20 female R 2 3 5 moralOther moralOther match n n 1 0.8599 
16-May-2018_14:10:32 Exp 7315 20 female R 2 3 6 immoralSelf moralOther mismatch m m 1 0.7500 
16-May-2018_14:10:34 Exp 7315 20 female R 2 3 7 immoralSelf moralOther mismatch m m 1 0.5058 
16-May-2018_14:10:36 Exp 7315 20 female R 2 3 8 moralSelf moralSelf match n n 1 0.3327 
16-May-2018_14:10:38 Exp 7315 20 female R 2 3 9 immoralOther immoralOther match n m 0 0.5040 
16-May-2018_14:10:40 Exp 7315 20 female R 2 3 10 moralOther moralSelf mismatch m n 0 0.3310 
16-May-2018_14:10:42 Exp 7315 20 female R 2 3 11 moralOther moralOther match n m 0 0.5104 
16-May-2018_14:10:44 Exp 7315 20 female R 2 3 12 moralSelf immoralSelf mismatch m n 0 0.3213 
16-May-2018_14:10:46 Exp 7315 20 female R 2 3 13 immoralSelf immoralOther mismatch m m 1 0.6724 
16-May-2018_14:10:49 Exp 7315 20 female R 2 3 14 immoralOther immoralOther match n n 1 0.9827 
16-May-2018_14:10:51 Exp 7315 20 female R 2 3 15 immoralSelf immoralSelf match n m 0 0.5790 
16-May-2018_14:10:53 Exp 7315 20 female R 2 3 16 moralSelf immoralSelf mismatch m m 1 0.5913 
16-May-2018_14:10:55 Exp 7315 20 female R 2 3 17 immoralSelf immoralSelf match n n 1 0.4719 
16-May-2018_14:10:58 Exp 7315 20 female R 2 3 18 moralOther moralOther match n n 1 0.6860 
16-May-2018_14:11:00 Exp 7315 20 female R 2 3 19 immoralOther immoralOther match n n 1 0.8405 
16-May-2018_14:11:02 Exp 7315 20 female R 2 3 20 moralSelf moralSelf match n n 1 0.3861 
16-May-2018_14:11:05 Exp 7315 20 female R 2 3 21 moralOther moralSelf mismatch m n 0 0.8666 
16-May-2018_14:11:07 Exp 7315 20 female R 2 3 22 immoralOther moralSelf mismatch m m 1 0.6206 
16-May-2018_14:11:10 Exp 7315 20 female R 2 3 23 moralOther immoralOther mismatch m NA -1 1.0841 
16-May-2018_14:11:12 Exp 7315 20 female R 2 3 24 immoralOther immoralSelf mismatch m m 1 0.7243 
16-May-2018_14:11:23 Exp 7315 20 female R 2 4 1 immoralOther moralSelf mismatch m m 1 0.5046 
16-May-2018_14:11:26 Exp 7315 20 female R 2 4 2 moralOther moralOther match n n 1 0.6834 
16-May-2018_14:11:28 Exp 7315 20 female R 2 4 3 immoralOther immoralOther match n n 1 0.7019 
16-May-2018_14:11:30 Exp 7315 20 female R 2 4 4 moralSelf moralSelf match n n 1 0.4846 
16-May-2018_14:11:32 Exp 7315 20 female R 2 4 5 immoralSelf immoralSelf match n n 1 0.5671 
16-May-2018_14:11:35 Exp 7315 20 female R 2 4 6 moralOther moralOther match n n 1 0.6392 
16-May-2018_14:11:37 Exp 7315 20 female R 2 4 7 moralOther moralOther match n n 1 0.6326 
16-May-2018_14:11:39 Exp 7315 20 female R 2 4 8 moralSelf moralSelf match n n 1 0.4582 
16-May-2018_14:11:42 Exp 7315 20 female R 2 4 9 immoralSelf moralSelf mismatch m m 1 0.8601 
16-May-2018_14:11:44 Exp 7315 20 female R 2 4 10 moralSelf immoralSelf mismatch m m 1 0.6940 
16-May-2018_14:11:47 Exp 7315 20 female R 2 4 11 moralSelf immoralSelf mismatch m m 1 0.9728 
16-May-2018_14:11:49 Exp 7315 20 female R 2 4 12 immoralSelf moralSelf mismatch m m 1 0.5569 
16-May-2018_14:11:51 Exp 7315 20 female R 2 4 13 moralOther immoralOther mismatch m m 1 0.7607 
16-May-2018_14:11:53 Exp 7315 20 female R 2 4 14 moralSelf immoralSelf mismatch m m 1 0.6046 
16-May-2018_14:11:56 Exp 7315 20 female R 2 4 15 immoralOther immoralSelf mismatch m m 1 0.5774 
16-May-2018_14:11:58 Exp 7315 20 female R 2 4 16 moralOther moralSelf mismatch m m 1 0.4857 
16-May-2018_14:12:00 Exp 7315 20 female R 2 4 17 moralSelf moralSelf match n n 1 0.4242 
16-May-2018_14:12:02 Exp 7315 20 female R 2 4 18 immoralSelf immoralSelf match n n 1 0.6135 
16-May-2018_14:12:04 Exp 7315 20 female R 2 4 19 immoralOther immoralOther match n m 0 0.6304 
16-May-2018_14:12:07 Exp 7315 20 female R 2 4 20 moralOther immoralOther mismatch m m 1 0.8357 
16-May-2018_14:12:09 Exp 7315 20 female R 2 4 21 immoralOther moralOther mismatch m m 1 0.8293 
16-May-2018_14:12:12 Exp 7315 20 female R 2 4 22 immoralOther immoralOther match n n 1 0.9225 
16-May-2018_14:12:14 Exp 7315 20 female R 2 4 23 immoralSelf immoralSelf match n m 0 0.5697 
16-May-2018_14:12:16 Exp 7315 20 female R 2 4 24 immoralSelf moralOther mismatch m m 1 0.5299 
16-May-2018_14:12:18 Exp 7315 20 female R 2 5 1 immoralOther moralSelf mismatch m m 1 0.5491 
16-May-2018_14:12:21 Exp 7315 20 female R 2 5 2 immoralOther immoralOther match n NA -1 1.0841 
16-May-2018_14:12:23 Exp 7315 20 female R 2 5 3 immoralSelf immoralSelf match n n 1 0.7672 
16-May-2018_14:12:26 Exp 7315 20 female R 2 5 4 moralSelf immoralSelf mismatch m m 1 0.5914 
16-May-2018_14:12:28 Exp 7315 20 female R 2 5 5 moralOther moralOther match n n 1 0.5839 
16-May-2018_14:12:30 Exp 7315 20 female R 2 5 6 immoralSelf immoralOther mismatch m m 1 0.9802 
16-May-2018_14:12:33 Exp 7315 20 female R 2 5 7 moralOther moralOther match n n 1 0.7766 
16-May-2018_14:12:35 Exp 7315 20 female R 2 5 8 moralOther immoralOther mismatch m m 1 0.9169 
16-May-2018_14:12:38 Exp 7315 20 female R 2 5 9 immoralSelf immoralSelf match n n 1 0.6601 
16-May-2018_14:12:40 Exp 7315 20 female R 2 5 10 moralSelf moralSelf match n n 1 0.3661 
16-May-2018_14:12:42 Exp 7315 20 female R 2 5 11 moralSelf moralSelf match n n 1 0.5181 
16-May-2018_14:12:44 Exp 7315 20 female R 2 5 12 immoralOther immoralSelf mismatch m m 1 0.7492 
16-May-2018_14:12:46 Exp 7315 20 female R 2 5 13 immoralSelf moralSelf mismatch m n 0 0.4129 
16-May-2018_14:12:48 Exp 7315 20 female R 2 5 14 moralSelf immoralOther mismatch m m 1 0.6140 
16-May-2018_14:12:51 Exp 7315 20 female R 2 5 15 moralOther moralSelf mismatch m m 1 0.5829 
16-May-2018_14:12:53 Exp 7315 20 female R 2 5 16 moralSelf moralOther mismatch m m 1 0.6353 
16-May-2018_14:12:55 Exp 7315 20 female R 2 5 17 immoralOther immoralOther match n m 0 0.6688 
16-May-2018_14:12:58 Exp 7315 20 female R 2 5 18 moralOther immoralOther mismatch m m 1 0.6830 
16-May-2018_14:13:00 Exp 7315 20 female R 2 5 19 immoralOther moralOther mismatch m m 1 0.6774 
16-May-2018_14:13:02 Exp 7315 20 female R 2 5 20 immoralSelf immoralSelf match n n 1 0.6677 
16-May-2018_14:13:04 Exp 7315 20 female R 2 5 21 moralSelf moralSelf match n n 1 0.3939 
16-May-2018_14:13:07 Exp 7315 20 female R 2 5 22 immoralSelf moralOther mismatch m m 1 0.7544 
16-May-2018_14:13:09 Exp 7315 20 female R 2 5 23 moralOther moralOther match n m 0 0.5263 
16-May-2018_14:13:11 Exp 7315 20 female R 2 5 24 immoralOther immoralOther match n m 0 0.5496 
16-May-2018_14:13:16 Exp 7315 20 female R 3 1 1 immoralOther immoralOther match n m 0 0.5896 
16-May-2018_14:13:19 Exp 7315 20 female R 3 1 2 immoralOther immoralSelf mismatch m m 1 0.6943 
16-May-2018_14:13:21 Exp 7315 20 female R 3 1 3 immoralSelf immoralSelf match n n 1 0.5649 
16-May-2018_14:13:23 Exp 7315 20 female R 3 1 4 moralSelf moralSelf match n n 1 0.3410 
16-May-2018_14:13:25 Exp 7315 20 female R 3 1 5 immoralOther immoralSelf mismatch m m 1 0.6047 
16-May-2018_14:13:27 Exp 7315 20 female R 3 1 6 immoralSelf moralOther mismatch m m 1 0.7854 
16-May-2018_14:13:30 Exp 7315 20 female R 3 1 7 moralOther moralSelf mismatch m m 1 0.6099 
16-May-2018_14:13:32 Exp 7315 20 female R 3 1 8 moralOther moralOther match n n 1 0.6670 
16-May-2018_14:13:34 Exp 7315 20 female R 3 1 9 immoralOther moralOther mismatch m m 1 0.6370 
16-May-2018_14:13:37 Exp 7315 20 female R 3 1 10 moralOther immoralSelf mismatch m NA -1 1.0841 
16-May-2018_14:13:39 Exp 7315 20 female R 3 1 11 immoralSelf immoralOther mismatch m m 1 0.6650 
16-May-2018_14:13:42 Exp 7315 20 female R 3 1 12 immoralOther immoralOther match n n 1 0.8909 
16-May-2018_14:13:44 Exp 7315 20 female R 3 1 13 immoralOther immoralOther match n n 1 0.5014 
16-May-2018_14:13:46 Exp 7315 20 female R 3 1 14 moralOther moralOther match n n 1 0.9081 
16-May-2018_14:13:49 Exp 7315 20 female R 3 1 15 moralSelf immoralSelf mismatch m n 0 0.5190 
16-May-2018_14:13:51 Exp 7315 20 female R 3 1 16 moralSelf moralSelf match n n 1 0.5341 
16-May-2018_14:13:53 Exp 7315 20 female R 3 1 17 immoralSelf immoralSelf match n n 1 0.8575 
16-May-2018_14:13:55 Exp 7315 20 female R 3 1 18 moralOther moralOther match n n 1 0.5955 
16-May-2018_14:13:58 Exp 7315 20 female R 3 1 19 immoralSelf immoralSelf match n n 1 0.6441 
16-May-2018_14:14:00 Exp 7315 20 female R 3 1 20 moralOther moralSelf mismatch m m 1 0.7058 
16-May-2018_14:14:03 Exp 7315 20 female R 3 1 21 moralSelf immoralOther mismatch m m 1 0.8767 
16-May-2018_14:14:05 Exp 7315 20 female R 3 1 22 moralSelf moralSelf match n n 1 0.4349 
16-May-2018_14:14:07 Exp 7315 20 female R 3 1 23 immoralSelf moralOther mismatch m m 1 0.8764 
16-May-2018_14:14:09 Exp 7315 20 female R 3 1 24 moralSelf moralOther mismatch m n 0 0.6827 
16-May-2018_14:14:12 Exp 7315 20 female R 3 2 1 immoralSelf immoralSelf match n n 1 0.6692 
16-May-2018_14:14:14 Exp 7315 20 female R 3 2 2 immoralOther immoralOther match n n 1 0.8514 
16-May-2018_14:14:17 Exp 7315 20 female R 3 2 3 immoralOther immoralSelf mismatch m m 1 0.9131 
16-May-2018_14:14:19 Exp 7315 20 female R 3 2 4 immoralSelf immoralOther mismatch m m 1 0.8360 
16-May-2018_14:14:22 Exp 7315 20 female R 3 2 5 moralOther immoralOther mismatch m m 1 0.6856 
16-May-2018_14:14:24 Exp 7315 20 female R 3 2 6 moralOther moralOther match n n 1 0.6640 
16-May-2018_14:14:27 Exp 7315 20 female R 3 2 7 moralOther immoralOther mismatch m NA -1 1.0841 
16-May-2018_14:14:29 Exp 7315 20 female R 3 2 8 moralSelf moralOther mismatch m m 1 0.6926 
16-May-2018_14:14:31 Exp 7315 20 female R 3 2 9 moralSelf moralSelf match n n 1 0.4432 
16-May-2018_14:14:33 Exp 7315 20 female R 3 2 10 moralSelf immoralOther mismatch m m 1 0.5246 
16-May-2018_14:14:35 Exp 7315 20 female R 3 2 11 immoralSelf moralOther mismatch m m 1 0.6277 
16-May-2018_14:14:38 Exp 7315 20 female R 3 2 12 immoralOther immoralOther match n n 1 0.9210 
16-May-2018_14:14:40 Exp 7315 20 female R 3 2 13 immoralOther immoralOther match n n 1 0.6962 
16-May-2018_14:14:42 Exp 7315 20 female R 3 2 14 moralOther immoralSelf mismatch m m 1 0.6149 
16-May-2018_14:14:45 Exp 7315 20 female R 3 2 15 moralOther moralOther match n n 1 0.7919 
16-May-2018_14:14:47 Exp 7315 20 female R 3 2 16 moralSelf immoralSelf mismatch m m 1 0.7285 
16-May-2018_14:14:49 Exp 7315 20 female R 3 2 17 moralSelf moralSelf match n n 1 0.5639 
16-May-2018_14:14:52 Exp 7315 20 female R 3 2 18 moralOther moralOther match n n 1 0.6280 
16-May-2018_14:14:54 Exp 7315 20 female R 3 2 19 immoralSelf moralSelf mismatch m m 1 0.7132 
16-May-2018_14:14:56 Exp 7315 20 female R 3 2 20 immoralOther moralSelf mismatch m n 0 0.5642 
16-May-2018_14:14:58 Exp 7315 20 female R 3 2 21 immoralOther immoralSelf mismatch m m 1 0.4682 
16-May-2018_14:15:01 Exp 7315 20 female R 3 2 22 immoralSelf immoralSelf match n n 1 0.8264 
16-May-2018_14:15:03 Exp 7315 20 female R 3 2 23 immoralSelf immoralSelf match n n 1 0.7037 
16-May-2018_14:15:05 Exp 7315 20 female R 3 2 24 moralSelf moralSelf match n n 1 0.4747 
16-May-2018_14:15:07 Exp 7315 20 female R 3 3 1 immoralSelf immoralSelf match n n 1 0.4408 
16-May-2018_14:15:10 Exp 7315 20 female R 3 3 2 immoralOther immoralOther match n n 1 0.7783 
16-May-2018_14:15:12 Exp 7315 20 female R 3 3 3 moralOther moralOther match n n 1 0.4947 
16-May-2018_14:15:14 Exp 7315 20 female R 3 3 4 moralOther immoralOther mismatch m m 1 0.8854 
16-May-2018_14:15:17 Exp 7315 20 female R 3 3 5 moralSelf moralOther mismatch m m 1 0.7678 
16-May-2018_14:15:20 Exp 7315 20 female R 3 3 6 immoralOther moralOther mismatch m NA -1 1.0841 
16-May-2018_14:15:22 Exp 7315 20 female R 3 3 7 moralSelf moralSelf match n n 1 0.4823 
16-May-2018_14:15:24 Exp 7315 20 female R 3 3 8 immoralSelf immoralSelf match n n 1 0.4768 
16-May-2018_14:15:26 Exp 7315 20 female R 3 3 9 moralSelf moralSelf match n n 1 0.4190 
16-May-2018_14:15:28 Exp 7315 20 female R 3 3 10 moralSelf immoralSelf mismatch m n 0 0.4521 
16-May-2018_14:15:30 Exp 7315 20 female R 3 3 11 immoralSelf moralSelf mismatch m m 1 0.6417 
16-May-2018_14:15:32 Exp 7315 20 female R 3 3 12 immoralOther immoralSelf mismatch m m 1 0.6513 
16-May-2018_14:15:35 Exp 7315 20 female R 3 3 13 immoralSelf moralSelf mismatch m m 1 0.7850 
16-May-2018_14:15:37 Exp 7315 20 female R 3 3 14 immoralSelf immoralSelf match n n 1 0.6293 
16-May-2018_14:15:39 Exp 7315 20 female R 3 3 15 immoralOther immoralOther match n m 0 0.4906 
16-May-2018_14:15:41 Exp 7315 20 female R 3 3 16 moralOther immoralSelf mismatch m m 1 0.5810 
16-May-2018_14:15:44 Exp 7315 20 female R 3 3 17 moralOther immoralSelf mismatch m m 1 0.6894 
16-May-2018_14:15:46 Exp 7315 20 female R 3 3 18 moralSelf moralSelf match n n 1 0.5478 
16-May-2018_14:15:48 Exp 7315 20 female R 3 3 19 immoralSelf immoralOther mismatch m m 1 0.4834 
16-May-2018_14:15:51 Exp 7315 20 female R 3 3 20 immoralOther moralOther mismatch m m 1 0.8219 
16-May-2018_14:15:53 Exp 7315 20 female R 3 3 21 moralOther moralOther match n n 1 0.6831 
16-May-2018_14:15:55 Exp 7315 20 female R 3 3 22 moralSelf moralOther mismatch m m 1 0.7496 
16-May-2018_14:15:58 Exp 7315 20 female R 3 3 23 immoralOther immoralOther match n n 1 0.8853 
16-May-2018_14:16:00 Exp 7315 20 female R 3 3 24 moralOther moralOther match n n 1 0.7517 
16-May-2018_14:16:16 Exp 7315 20 female R 3 4 1 immoralSelf immoralSelf match n n 1 0.6846 
16-May-2018_14:16:19 Exp 7315 20 female R 3 4 2 moralOther immoralOther mismatch m m 1 0.5990 
16-May-2018_14:16:21 Exp 7315 20 female R 3 4 3 moralOther moralSelf mismatch m n 0 0.5239 
16-May-2018_14:16:23 Exp 7315 20 female R 3 4 4 immoralSelf immoralSelf match n m 0 0.5630 
16-May-2018_14:16:25 Exp 7315 20 female R 3 4 5 moralOther moralOther match n n 1 0.6910 
16-May-2018_14:16:28 Exp 7315 20 female R 3 4 6 moralSelf immoralSelf mismatch m m 1 0.7975 
16-May-2018_14:16:30 Exp 7315 20 female R 3 4 7 immoralSelf immoralSelf match n n 1 0.5784 
16-May-2018_14:16:32 Exp 7315 20 female R 3 4 8 moralSelf immoralOther mismatch m m 1 0.5667 
16-May-2018_14:16:35 Exp 7315 20 female R 3 4 9 moralSelf immoralSelf mismatch m m 1 0.9428 
16-May-2018_14:16:37 Exp 7315 20 female R 3 4 10 immoralOther immoralOther match n n 1 0.8144 
16-May-2018_14:16:40 Exp 7315 20 female R 3 4 11 immoralOther moralSelf mismatch m m 1 0.6715 
16-May-2018_14:16:42 Exp 7315 20 female R 3 4 12 immoralOther moralSelf mismatch m m 1 0.5656 
16-May-2018_14:16:44 Exp 7315 20 female R 3 4 13 moralSelf moralSelf match n n 1 0.4697 
16-May-2018_14:16:46 Exp 7315 20 female R 3 4 14 immoralSelf moralSelf mismatch m m 1 0.6360 
16-May-2018_14:16:48 Exp 7315 20 female R 3 4 15 moralSelf moralSelf match n n 1 0.4295 
16-May-2018_14:16:51 Exp 7315 20 female R 3 4 16 immoralOther immoralOther match n n 1 0.9627 
16-May-2018_14:16:53 Exp 7315 20 female R 3 4 17 moralOther moralOther match n n 1 0.7628 
16-May-2018_14:16:55 Exp 7315 20 female R 3 4 18 moralSelf moralSelf match n n 1 0.4269 
16-May-2018_14:16:58 Exp 7315 20 female R 3 4 19 moralOther moralOther match n n 1 0.6402 
16-May-2018_14:17:00 Exp 7315 20 female R 3 4 20 immoralOther immoralSelf mismatch m m 1 0.7137 
16-May-2018_14:17:02 Exp 7315 20 female R 3 4 21 immoralOther immoralOther match n n 1 0.8285 
16-May-2018_14:17:05 Exp 7315 20 female R 3 4 22 moralOther immoralSelf mismatch m m 1 0.7379 
16-May-2018_14:17:07 Exp 7315 20 female R 3 4 23 immoralSelf moralOther mismatch m m 1 0.6693 
16-May-2018_14:17:09 Exp 7315 20 female R 3 4 24 immoralSelf immoralOther mismatch m m 1 0.6675 
16-May-2018_14:17:11 Exp 7315 20 female R 3 5 1 immoralSelf immoralSelf match n n 1 0.5495 
16-May-2018_14:17:14 Exp 7315 20 female R 3 5 2 immoralOther moralOther mismatch m m 1 0.8610 
16-May-2018_14:17:16 Exp 7315 20 female R 3 5 3 immoralOther moralOther mismatch m m 1 0.5031 
16-May-2018_14:17:18 Exp 7315 20 female R 3 5 4 moralOther moralOther match n n 1 0.5300 
16-May-2018_14:17:21 Exp 7315 20 female R 3 5 5 immoralSelf moralSelf mismatch m n 0 0.7494 
16-May-2018_14:17:23 Exp 7315 20 female R 3 5 6 immoralSelf moralOther mismatch m m 1 0.5570 
16-May-2018_14:17:25 Exp 7315 20 female R 3 5 7 immoralOther immoralOther match n n 1 0.9288 
16-May-2018_14:17:27 Exp 7315 20 female R 3 5 8 moralSelf moralSelf match n n 1 0.4683 
16-May-2018_14:17:30 Exp 7315 20 female R 3 5 9 immoralSelf immoralSelf match n n 1 0.6744 
16-May-2018_14:17:32 Exp 7315 20 female R 3 5 10 immoralSelf immoralSelf match n n 1 1.0247 
16-May-2018_14:17:35 Exp 7315 20 female R 3 5 11 moralSelf immoralSelf mismatch m m 1 0.5499 
16-May-2018_14:17:37 Exp 7315 20 female R 3 5 12 moralSelf moralSelf match n n 1 0.6498 
16-May-2018_14:17:39 Exp 7315 20 female R 3 5 13 moralSelf moralOther mismatch m m 1 0.6875 
16-May-2018_14:17:42 Exp 7315 20 female R 3 5 14 moralSelf immoralSelf mismatch m m 1 0.7860 
16-May-2018_14:17:44 Exp 7315 20 female R 3 5 15 immoralSelf moralSelf mismatch m n 0 0.4985 
16-May-2018_14:17:46 Exp 7315 20 female R 3 5 16 moralOther immoralSelf mismatch m m 1 0.8012 
16-May-2018_14:17:49 Exp 7315 20 female R 3 5 17 moralOther immoralOther mismatch m m 1 0.9580 
16-May-2018_14:17:51 Exp 7315 20 female R 3 5 18 immoralOther moralSelf mismatch m m 1 0.6100 
16-May-2018_14:17:53 Exp 7315 20 female R 3 5 19 moralOther moralSelf mismatch m m 1 0.5150 
16-May-2018_14:17:56 Exp 7315 20 female R 3 5 20 immoralOther immoralOther match n n 1 0.8021 
16-May-2018_14:17:58 Exp 7315 20 female R 3 5 21 moralOther moralOther match n n 1 0.7269 
16-May-2018_14:18:01 Exp 7315 20 female R 3 5 22 immoralOther immoralOther match n NA -1 1.0841 
16-May-2018_14:18:03 Exp 7315 20 female R 3 5 23 moralSelf moralSelf match n n 1 0.5727 
16-May-2018_14:18:05 Exp 7315 20 female R 3 5 24 moralOther moralOther match n n 1 0.8208 
Date Prac Sub Age Sex Hand Block Bin Trial Shape Label Match CorrResp Resp ACC RT
16-May-2018_14:22:57 Exp 7315 20 female R 1 1 1 moralOther moralOther match n NA -1 1.0841 
16-May-2018_14:22:59 Exp 7315 20 female R 1 1 2 moralSelf immoralOther mismatch m u 2 0.5886 
16-May-2018_14:23:02 Exp 7315 20 female R 1 1 3 moralOther moralSelf mismatch m NA -1 1.0841 
16-May-2018_14:23:04 Exp 7315 20 female R 1 1 4 moralOther immoralSelf mismatch m m 1 0.7277 
16-May-2018_14:23:06 Exp 7315 20 female R 1 1 5 immoralOther moralSelf mismatch m n 0 0.6111 
16-May-2018_14:23:08 Exp 7315 20 female R 1 1 6 moralOther immoralSelf mismatch m m 1 0.5642 
16-May-2018_14:23:11 Exp 7315 20 female R 1 1 7 immoralOther immoralOther match n m 0 0.5883 
16-May-2018_14:23:13 Exp 7315 20 female R 1 1 8 immoralOther moralSelf mismatch m m 1 0.7008 
16-May-2018_14:23:15 Exp 7315 20 female R 1 1 9 immoralSelf moralSelf mismatch m m 1 0.8035 
16-May-2018_14:23:18 Exp 7315 20 female R 1 1 10 immoralOther immoralOther match n n 1 0.7523 
16-May-2018_14:23:20 Exp 7315 20 female R 1 1 11 immoralSelf immoralSelf match n n 1 0.7322 
16-May-2018_14:23:22 Exp 7315 20 female R 1 1 12 moralSelf moralOther mismatch m n 0 0.5355 
16-May-2018_14:23:25 Exp 7315 20 female R 1 1 13 immoralOther immoralOther match n n 1 0.8030 
16-May-2018_14:23:27 Exp 7315 20 female R 1 1 14 moralSelf immoralOther mismatch m m 1 0.7598 
16-May-2018_14:23:30 Exp 7315 20 female R 1 1 15 immoralSelf immoralSelf match n n 1 0.7316 
16-May-2018_14:23:32 Exp 7315 20 female R 1 1 16 immoralOther moralSelf mismatch m m 1 0.5431 
16-May-2018_14:23:34 Exp 7315 20 female R 1 1 17 immoralSelf immoralSelf match n n 1 0.6386 
16-May-2018_14:23:36 Exp 7315 20 female R 1 1 18 immoralSelf moralSelf mismatch m m 1 0.7201 
16-May-2018_14:23:39 Exp 7315 20 female R 1 1 19 immoralSelf moralSelf mismatch m m 1 0.7993 
16-May-2018_14:23:41 Exp 7315 20 female R 1 1 20 moralOther moralOther match n n 1 0.6041 
16-May-2018_14:23:43 Exp 7315 20 female R 1 1 21 moralSelf moralSelf match n n 1 0.4570 
16-May-2018_14:23:45 Exp 7315 20 female R 1 1 22 moralSelf moralSelf match n m 0 0.6349 
16-May-2018_14:23:47 Exp 7315 20 female R 1 1 23 moralSelf moralSelf match n n 1 0.3963 
16-May-2018_14:23:50 Exp 7315 20 female R 1 1 24 moralOther moralOther match n n 1 0.7089 
16-May-2018_14:23:52 Exp 7315 20 female R 1 2 1 immoralSelf moralOther mismatch m m 1 0.7119 
16-May-2018_14:23:54 Exp 7315 20 female R 1 2 2 immoralSelf immoralSelf match n n 1 0.6027 
16-May-2018_14:23:57 Exp 7315 20 female R 1 2 3 moralOther immoralOther mismatch m NA -1 1.0841 
16-May-2018_14:23:59 Exp 7315 20 female R 1 2 4 immoralOther immoralOther match n n 1 0.7060 
16-May-2018_14:24:02 Exp 7315 20 female R 1 2 5 immoralOther moralSelf mismatch m m 1 0.5490 
16-May-2018_14:24:04 Exp 7315 20 female R 1 2 6 immoralOther immoralOther match n n 1 0.6286 
16-May-2018_14:24:06 Exp 7315 20 female R 1 2 7 moralOther moralOther match n n 1 0.5058 
16-May-2018_14:24:09 Exp 7315 20 female R 1 2 8 immoralOther immoralSelf mismatch m n 0 0.9407 
16-May-2018_14:24:11 Exp 7315 20 female R 1 2 9 moralOther moralOther match n n 1 0.5803 
16-May-2018_14:24:13 Exp 7315 20 female R 1 2 10 immoralSelf immoralSelf match n n 1 0.5207 
16-May-2018_14:24:15 Exp 7315 20 female R 1 2 11 moralSelf immoralOther mismatch m m 1 0.6639 
16-May-2018_14:24:17 Exp 7315 20 female R 1 2 12 immoralSelf moralSelf mismatch m m 1 0.5618 
16-May-2018_14:24:20 Exp 7315 20 female R 1 2 13 immoralSelf immoralSelf match n n 1 0.5219 
16-May-2018_14:24:22 Exp 7315 20 female R 1 2 14 moralSelf immoralOther mismatch m m 1 0.6490 
16-May-2018_14:24:24 Exp 7315 20 female R 1 2 15 moralOther moralOther match n n 1 0.6228 
16-May-2018_14:24:26 Exp 7315 20 female R 1 2 16 moralSelf moralSelf match n n 1 0.4761 
16-May-2018_14:24:29 Exp 7315 20 female R 1 2 17 moralOther moralSelf mismatch m m 1 0.7063 
16-May-2018_14:24:31 Exp 7315 20 female R 1 2 18 moralSelf moralSelf match n n 1 0.3733 
16-May-2018_14:24:33 Exp 7315 20 female R 1 2 19 moralSelf immoralSelf mismatch m n 0 0.9013 
16-May-2018_14:24:35 Exp 7315 20 female R 1 2 20 moralOther immoralSelf mismatch m m 1 0.6600 
16-May-2018_14:24:38 Exp 7315 20 female R 1 2 21 immoralSelf moralSelf mismatch m m 1 0.8699 
16-May-2018_14:24:40 Exp 7315 20 female R 1 2 22 immoralOther immoralSelf mismatch m m 1 0.6361 
16-May-2018_14:24:42 Exp 7315 20 female R 1 2 23 moralSelf moralSelf match n n 1 0.5417 
16-May-2018_14:24:44 Exp 7315 20 female R 1 2 24 immoralOther immoralOther match n m 0 0.5493 
Date Prac Sub Age Sex Hand Block Bin Trial Shape Label Match CorrResp Resp ACC RT
16-May-2018_14:29:01 Exp 7315 20 female R 1 1 1 immoralOther moralOther mismatch m m 1 0.7903 
16-May-2018_14:29:03 Exp 7315 20 female R 1 1 2 immoralOther immoralOther match n m 0 0.5590 
16-May-2018_14:29:05 Exp 7315 20 female R 1 1 3 moralOther moralOther match n n 1 0.4189 
16-May-2018_14:29:08 Exp 7315 20 female R 1 1 4 moralOther moralOther match n n 1 0.8919 
16-May-2018_14:29:10 Exp 7315 20 female R 1 1 5 moralOther moralOther match n n 1 0.5466 
16-May-2018_14:29:12 Exp 7315 20 female R 1 1 6 immoralSelf moralSelf mismatch m n 0 0.8822 
16-May-2018_14:29:14 Exp 7315 20 female R 1 1 7 moralSelf moralSelf match n n 1 0.4606 
16-May-2018_14:29:17 Exp 7315 20 female R 1 1 8 immoralOther immoralOther match n n 1 0.7106 
16-May-2018_14:29:19 Exp 7315 20 female R 1 1 9 moralOther immoralOther mismatch m m 1 0.8416 
16-May-2018_14:29:22 Exp 7315 20 female R 1 1 10 moralOther moralSelf mismatch m NA -1 1.0841 
16-May-2018_14:29:24 Exp 7315 20 female R 1 1 11 immoralOther immoralSelf mismatch m m 1 0.8055 
16-May-2018_14:29:27 Exp 7315 20 female R 1 1 12 immoralSelf moralSelf mismatch m m 1 0.6983 
16-May-2018_14:29:29 Exp 7315 20 female R 1 1 13 moralSelf immoralSelf mismatch m m 1 0.6650 
16-May-2018_14:29:31 Exp 7315 20 female R 1 1 14 moralSelf moralSelf match n n 1 0.7950 
16-May-2018_14:29:34 Exp 7315 20 female R 1 1 15 moralSelf moralOther mismatch m m 1 0.6435 
16-May-2018_14:29:36 Exp 7315 20 female R 1 1 16 immoralOther immoralOther match n n 1 0.6930 
16-May-2018_14:29:38 Exp 7315 20 female R 1 1 17 immoralSelf immoralSelf match n n 1 0.8357 
16-May-2018_14:29:41 Exp 7315 20 female R 1 1 18 immoralSelf immoralSelf match n n 1 0.8293 
16-May-2018_14:29:43 Exp 7315 20 female R 1 1 19 moralOther immoralOther mismatch m m 1 0.7066 
16-May-2018_14:29:46 Exp 7315 20 female R 1 1 20 immoralSelf moralOther mismatch m m 1 0.7335 
16-May-2018_14:29:48 Exp 7315 20 female R 1 1 21 immoralSelf immoralSelf match n n 1 0.5848 
16-May-2018_14:29:50 Exp 7315 20 female R 1 1 22 moralSelf moralOther mismatch m m 1 0.6052 
16-May-2018_14:29:52 Exp 7315 20 female R 1 1 23 moralSelf moralSelf match n n 1 0.5620 
16-May-2018_14:29:55 Exp 7315 20 female R 1 1 24 immoralOther moralOther mismatch m m 1 0.9220 
16-May-2018_14:29:57 Exp 7315 20 female R 1 2 1 immoralOther immoralSelf mismatch m m 1 0.6572 
16-May-2018_14:30:00 Exp 7315 20 female R 1 2 2 moralSelf immoralSelf mismatch m m 1 0.7393 
16-May-2018_14:30:02 Exp 7315 20 female R 1 2 3 immoralSelf moralSelf mismatch m n 0 0.5468 
16-May-2018_14:30:04 Exp 7315 20 female R 1 2 4 moralOther moralOther match n n 1 0.5945 
16-May-2018_14:30:06 Exp 7315 20 female R 1 2 5 immoralSelf immoralSelf match n n 1 0.6751 
16-May-2018_14:30:09 Exp 7315 20 female R 1 2 6 moralSelf moralSelf match n n 1 0.7693 
16-May-2018_14:30:11 Exp 7315 20 female R 1 2 7 moralSelf immoralOther mismatch m m 1 0.6654 
16-May-2018_14:30:14 Exp 7315 20 female R 1 2 8 immoralOther moralSelf mismatch m m 1 0.9793 
16-May-2018_14:30:16 Exp 7315 20 female R 1 2 9 immoralSelf immoralSelf match n n 1 0.7037 
16-May-2018_14:30:18 Exp 7315 20 female R 1 2 10 moralSelf immoralSelf mismatch m m 1 0.6345 
16-May-2018_14:30:20 Exp 7315 20 female R 1 2 11 immoralOther moralOther mismatch m m 1 0.5880 
16-May-2018_14:30:23 Exp 7315 20 female R 1 2 12 moralSelf moralSelf match n n 1 0.5646 
16-May-2018_14:30:25 Exp 7315 20 female R 1 2 13 moralOther immoralSelf mismatch m m 1 0.8287 
16-May-2018_14:30:27 Exp 7315 20 female R 1 2 14 immoralOther immoralOther match n n 1 0.7700 
16-May-2018_14:30:30 Exp 7315 20 female R 1 2 15 moralOther immoralOther mismatch m m 1 0.6261 
16-May-2018_14:30:32 Exp 7315 20 female R 1 2 16 immoralOther immoralOther match n n 1 0.5194 
16-May-2018_14:30:34 Exp 7315 20 female R 1 2 17 moralOther moralOther match n m 0 0.6065 
16-May-2018_14:30:36 Exp 7315 20 female R 1 2 18 immoralSelf immoralOther mismatch m m 1 0.5312 
16-May-2018_14:30:38 Exp 7315 20 female R 1 2 19 immoralSelf immoralSelf match n n 1 0.6227 
16-May-2018_14:30:41 Exp 7315 20 female R 1 2 20 moralOther immoralSelf mismatch m m 1 0.6040 
16-May-2018_14:30:43 Exp 7315 20 female R 1 2 21 immoralSelf moralSelf mismatch m n 0 0.8247 
16-May-2018_14:30:46 Exp 7315 20 female R 1 2 22 immoralOther immoralOther match n n 1 0.8780 
16-May-2018_14:30:48 Exp 7315 20 female R 1 2 23 moralOther moralOther match n n 1 0.3802 
16-May-2018_14:30:50 Exp 7315 20 female R 1 2 24 moralSelf moralSelf match n n 1 0.5446 
Date Prac Sub Age Sex Hand Block Bin Trial Shape Label Match CorrResp Resp ACC RT
16-May-2018_14:34:55 Exp 7315 20 female R 1 1 1 immoralOther moralOther mismatch m h 2 0.5588 
16-May-2018_14:34:57 Exp 7315 20 female R 1 1 2 immoralOther immoralSelf mismatch m NA -1 1.0841 
16-May-2018_14:35:00 Exp 7315 20 female R 1 1 3 immoralSelf immoralSelf match n n 1 0.7892 
16-May-2018_14:35:02 Exp 7315 20 female R 1 1 4 immoralOther immoralOther match n n 1 0.7498 
16-May-2018_14:35:05 Exp 7315 20 female R 1 1 5 moralOther immoralSelf mismatch m m 1 0.7815 
16-May-2018_14:35:07 Exp 7315 20 female R 1 1 6 immoralSelf immoralSelf match n n 1 0.5619 
16-May-2018_14:35:09 Exp 7315 20 female R 1 1 7 moralSelf moralSelf match n n 1 0.3859 
16-May-2018_14:35:11 Exp 7315 20 female R 1 1 8 moralOther moralOther match n n 1 0.3784 
16-May-2018_14:35:13 Exp 7315 20 female R 1 1 9 immoralSelf immoralOther mismatch m m 1 0.9268 
16-May-2018_14:35:16 Exp 7315 20 female R 1 1 10 moralOther moralOther match n n 1 0.5861 
16-May-2018_14:35:18 Exp 7315 20 female R 1 1 11 immoralSelf immoralOther mismatch m m 1 0.6107 
16-May-2018_14:35:20 Exp 7315 20 female R 1 1 12 moralOther immoralOther mismatch m m 1 0.7557 
16-May-2018_14:35:23 Exp 7315 20 female R 1 1 13 moralSelf immoralSelf mismatch m NA -1 1.0841 
16-May-2018_14:35:25 Exp 7315 20 female R 1 1 14 moralOther immoralOther mismatch m m 1 0.8340 
16-May-2018_14:35:28 Exp 7315 20 female R 1 1 15 moralSelf moralSelf match n n 1 0.5395 
16-May-2018_14:35:30 Exp 7315 20 female R 1 1 16 immoralSelf immoralOther mismatch m m 1 0.9552 
16-May-2018_14:35:32 Exp 7315 20 female R 1 1 17 immoralSelf immoralSelf match n n 1 0.5271 
16-May-2018_14:35:35 Exp 7315 20 female R 1 1 18 moralSelf moralOther mismatch m m 1 0.7624 
16-May-2018_14:35:37 Exp 7315 20 female R 1 1 19 immoralOther moralOther mismatch m m 1 0.5225 
16-May-2018_14:35:39 Exp 7315 20 female R 1 1 20 moralSelf moralSelf match n n 1 0.4977 
16-May-2018_14:35:42 Exp 7315 20 female R 1 1 21 immoralOther immoralOther match n n 1 0.8244 
16-May-2018_14:35:44 Exp 7315 20 female R 1 1 22 immoralOther immoralOther match n m 0 0.5896 
16-May-2018_14:35:46 Exp 7315 20 female R 1 1 23 moralSelf immoralOther mismatch m m 1 0.5742 
16-May-2018_14:35:48 Exp 7315 20 female R 1 1 24 moralOther moralOther match n n 1 0.6025 
16-May-2018_14:35:50 Exp 7315 20 female R 1 2 1 immoralOther immoralOther match n n 1 0.6233 
16-May-2018_14:35:53 Exp 7315 20 female R 1 2 2 moralOther moralOther match n n 1 0.5886 
16-May-2018_14:35:55 Exp 7315 20 female R 1 2 3 immoralOther immoralOther match n n 1 0.6052 
16-May-2018_14:35:57 Exp 7315 20 female R 1 2 4 moralSelf moralSelf match n n 1 0.4900 
16-May-2018_14:35:59 Exp 7315 20 female R 1 2 5 moralSelf moralSelf match n n 1 0.5004 
16-May-2018_14:36:02 Exp 7315 20 female R 1 2 6 immoralSelf moralSelf mismatch m m 1 0.7791 
16-May-2018_14:36:04 Exp 7315 20 female R 1 2 7 immoralSelf immoralOther mismatch m m 1 0.7674 
16-May-2018_14:36:06 Exp 7315 20 female R 1 2 8 immoralOther moralOther mismatch m m 1 0.7675 
16-May-2018_14:36:09 Exp 7315 20 female R 1 2 9 moralSelf immoralSelf mismatch m n 0 0.5277 
16-May-2018_14:36:11 Exp 7315 20 female R 1 2 10 immoralOther immoralOther match n n 1 0.7070 
16-May-2018_14:36:13 Exp 7315 20 female R 1 2 11 moralOther moralOther match n n 1 0.4379 
16-May-2018_14:36:15 Exp 7315 20 female R 1 2 12 moralOther immoralOther mismatch m m 1 0.5915 
16-May-2018_14:36:17 Exp 7315 20 female R 1 2 13 moralSelf moralOther mismatch m m 1 0.6239 
16-May-2018_14:36:20 Exp 7315 20 female R 1 2 14 immoralSelf immoralOther mismatch m m 1 0.5973 
16-May-2018_14:36:22 Exp 7315 20 female R 1 2 15 moralOther immoralSelf mismatch m m 1 0.7780 
16-May-2018_14:36:25 Exp 7315 20 female R 1 2 16 moralOther moralSelf mismatch m m 1 0.8784 
16-May-2018_14:36:27 Exp 7315 20 female R 1 2 17 immoralOther moralSelf mismatch m m 1 0.5806 
16-May-2018_14:36:29 Exp 7315 20 female R 1 2 18 immoralSelf immoralSelf match n n 1 0.7529 
16-May-2018_14:36:32 Exp 7315 20 female R 1 2 19 moralSelf moralOther mismatch m m 1 0.7168 
16-May-2018_14:36:34 Exp 7315 20 female R 1 2 20 immoralSelf immoralSelf match n n 1 0.5559 
16-May-2018_14:36:36 Exp 7315 20 female R 1 2 21 moralOther moralOther match n n 1 0.6478 
16-May-2018_14:36:38 Exp 7315 20 female R 1 2 22 immoralSelf immoralSelf match n n 1 0.5655 
16-May-2018_14:36:40 Exp 7315 20 female R 1 2 23 moralSelf moralSelf match n n 1 0.5656 
16-May-2018_14:36:43 Exp 7315 20 female R 1 2 24 immoralOther moralSelf mismatch m m 1 0.7257 
Date Prac Sub Age Sex Hand Block Bin Trial Shape Label Match CorrResp Resp ACC RT
16-May-2018_14:41:40 Exp 7315 20 female R 1 1 1 immoralSelf moralOther mismatch m m 1 0.5181 
16-May-2018_14:41:42 Exp 7315 20 female R 1 1 2 moralOther moralOther match n n 1 0.5254 
16-May-2018_14:41:44 Exp 7315 20 female R 1 1 3 immoralOther immoralOther match n n 1 0.4846 
16-May-2018_14:41:47 Exp 7315 20 female R 1 1 4 moralOther immoralOther mismatch m m 1 0.8388 
16-May-2018_14:41:49 Exp 7315 20 female R 1 1 5 moralSelf immoralOther mismatch m m 1 0.6005 
16-May-2018_14:41:51 Exp 7315 20 female R 1 1 6 moralSelf moralSelf match n n 1 0.5092 
16-May-2018_14:41:53 Exp 7315 20 female R 1 1 7 immoralOther immoralSelf mismatch m m 1 0.7522 
16-May-2018_14:41:56 Exp 7315 20 female R 1 1 8 immoralOther immoralOther match n n 1 0.7241 
16-May-2018_14:41:58 Exp 7315 20 female R 1 1 9 immoralOther immoralOther match n n 1 0.5872 
16-May-2018_14:42:00 Exp 7315 20 female R 1 1 10 immoralSelf immoralSelf match n m 0 0.6358 
16-May-2018_14:42:02 Exp 7315 20 female R 1 1 11 moralSelf moralSelf match n n 1 0.4532 
16-May-2018_14:42:05 Exp 7315 20 female R 1 1 12 moralSelf moralSelf match n n 1 0.6751 
16-May-2018_14:42:07 Exp 7315 20 female R 1 1 13 moralOther moralOther match n n 1 0.6652 
16-May-2018_14:42:09 Exp 7315 20 female R 1 1 14 immoralSelf moralSelf mismatch m m 1 0.6032 
16-May-2018_14:42:12 Exp 7315 20 female R 1 1 15 moralSelf immoralSelf mismatch m m 1 0.7520 
16-May-2018_14:42:14 Exp 7315 20 female R 1 1 16 moralOther immoralOther mismatch m m 1 0.7398 
16-May-2018_14:42:16 Exp 7315 20 female R 1 1 17 immoralOther moralOther mismatch m m 1 0.7875 
16-May-2018_14:42:19 Exp 7315 20 female R 1 1 18 moralOther moralOther match n n 1 0.5801 
16-May-2018_14:42:21 Exp 7315 20 female R 1 1 19 immoralSelf immoralSelf match n n 1 0.7284 
16-May-2018_14:42:23 Exp 7315 20 female R 1 1 20 immoralSelf immoralSelf match n n 1 0.7878 
16-May-2018_14:42:26 Exp 7315 20 female R 1 1 21 immoralSelf immoralOther mismatch m m 1 0.7643 
16-May-2018_14:42:28 Exp 7315 20 female R 1 1 22 moralSelf immoralOther mismatch m m 1 0.5965 
16-May-2018_14:42:30 Exp 7315 20 female R 1 1 23 immoralOther moralSelf mismatch m m 1 0.7331 
16-May-2018_14:42:33 Exp 7315 20 female R 1 1 24 moralOther immoralSelf mismatch m m 1 0.7444 
16-May-2018_14:42:35 Exp 7315 20 female R 1 2 1 immoralSelf immoralSelf match n n 1 0.7521 
16-May-2018_14:42:37 Exp 7315 20 female R 1 2 2 immoralOther moralOther mismatch m m 1 0.6359 
16-May-2018_14:42:40 Exp 7315 20 female R 1 2 3 moralSelf moralSelf match n n 1 0.5734 
16-May-2018_14:42:42 Exp 7315 20 female R 1 2 4 moralOther moralOther match n n 1 0.7255 
16-May-2018_14:42:44 Exp 7315 20 female R 1 2 5 moralSelf moralSelf match n n 1 0.5886 
16-May-2018_14:42:47 Exp 7315 20 female R 1 2 6 immoralSelf moralSelf mismatch m m 1 0.8452 
16-May-2018_14:42:49 Exp 7315 20 female R 1 2 7 moralOther moralOther match n n 1 0.6429 
16-May-2018_14:42:51 Exp 7315 20 female R 1 2 8 immoralOther immoralOther match n n 1 0.8284 
16-May-2018_14:42:54 Exp 7315 20 female R 1 2 9 moralSelf moralSelf match n n 1 0.4897 
16-May-2018_14:42:56 Exp 7315 20 female R 1 2 10 moralOther immoralOther mismatch m m 1 0.8602 
16-May-2018_14:42:58 Exp 7315 20 female R 1 2 11 immoralSelf immoralOther mismatch m m 1 0.6222 
16-May-2018_14:43:01 Exp 7315 20 female R 1 2 12 moralOther immoralSelf mismatch m m 1 0.6994 
16-May-2018_14:43:03 Exp 7315 20 female R 1 2 13 immoralSelf immoralSelf match n n 1 0.7541 
16-May-2018_14:43:05 Exp 7315 20 female R 1 2 14 moralSelf immoralOther mismatch m m 1 0.7260 
16-May-2018_14:43:08 Exp 7315 20 female R 1 2 15 moralSelf immoralSelf mismatch m n 0 0.7891 
16-May-2018_14:43:10 Exp 7315 20 female R 1 2 16 immoralSelf immoralOther mismatch m m 1 0.6537 
16-May-2018_14:43:12 Exp 7315 20 female R 1 2 17 moralOther immoralSelf mismatch m m 1 0.6194 
16-May-2018_14:43:15 Exp 7315 20 female R 1 2 18 immoralSelf immoralSelf match n n 1 0.6844 
16-May-2018_14:43:17 Exp 7315 20 female R 1 2 19 moralOther moralOther match n n 1 0.7749 
16-May-2018_14:43:19 Exp 7315 20 female R 1 2 20 immoralOther moralSelf mismatch m m 1 0.7073 
16-May-2018_14:43:22 Exp 7315 20 female R 1 2 21 immoralOther immoralOther match n n 1 0.9661 
16-May-2018_14:43:24 Exp 7315 20 female R 1 2 22 immoralOther immoralOther match n n 1 0.6623 
16-May-2018_14:43:27 Exp 7315 20 female R 1 2 23 immoralOther moralOther mismatch m m 1 0.7043 
16-May-2018_14:43:29 Exp 7315 20 female R 1 2 24 moralSelf moralOther mismatch m m 1 0.5873 
Date Prac Sub Age Sex Hand Block Bin Trial Shape Label Match CorrResp Resp ACC RT
16-May-2018_14:47:38 Exp 7315 20 female R 1 1 1 immoralSelf immoralOther mismatch m m 1 0.6242 
16-May-2018_14:47:40 Exp 7315 20 female R 1 1 2 moralOther moralOther match n n 1 0.5416 
16-May-2018_14:47:42 Exp 7315 20 female R 1 1 3 immoralOther immoralOther match n n 1 0.5812 
16-May-2018_14:47:44 Exp 7315 20 female R 1 1 4 moralSelf immoralSelf mismatch m m 1 0.6975 
16-May-2018_14:47:47 Exp 7315 20 female R 1 1 5 moralOther immoralOther mismatch m m 1 0.7522 
16-May-2018_14:47:49 Exp 7315 20 female R 1 1 6 immoralOther moralOther mismatch m m 1 0.6840 
16-May-2018_14:47:51 Exp 7315 20 female R 1 1 7 moralOther immoralOther mismatch m m 1 0.5744 
16-May-2018_14:47:53 Exp 7315 20 female R 1 1 8 moralSelf moralSelf match n n 1 0.5708 
16-May-2018_14:47:56 Exp 7315 20 female R 1 1 9 moralSelf immoralSelf mismatch m m 1 0.9790 
16-May-2018_14:47:58 Exp 7315 20 female R 1 1 10 moralSelf moralSelf match n n 1 0.5753 
16-May-2018_14:48:00 Exp 7315 20 female R 1 1 11 moralOther moralOther match n n 1 0.5236 
16-May-2018_14:48:03 Exp 7315 20 female R 1 1 12 immoralOther immoralOther match n n 1 0.4508 
16-May-2018_14:48:05 Exp 7315 20 female R 1 1 13 immoralSelf immoralSelf match n n 1 0.9205 
16-May-2018_14:48:07 Exp 7315 20 female R 1 1 14 moralSelf moralSelf match n n 1 0.4716 
16-May-2018_14:48:09 Exp 7315 20 female R 1 1 15 immoralSelf moralSelf mismatch m m 1 0.7019 
16-May-2018_14:48:12 Exp 7315 20 female R 1 1 16 immoralSelf immoralSelf match n n 1 0.7326 
16-May-2018_14:48:14 Exp 7315 20 female R 1 1 17 immoralOther moralSelf mismatch m m 1 0.5279 
16-May-2018_14:48:16 Exp 7315 20 female R 1 1 18 moralSelf immoralSelf mismatch m m 1 0.6273 
16-May-2018_14:48:19 Exp 7315 20 female R 1 1 19 immoralSelf immoralSelf match n n 1 0.6886 
16-May-2018_14:48:21 Exp 7315 20 female R 1 1 20 immoralOther moralSelf mismatch m m 1 0.6110 
16-May-2018_14:48:23 Exp 7315 20 female R 1 1 21 immoralOther immoralOther match n n 1 0.7800 
16-May-2018_14:48:26 Exp 7315 20 female R 1 1 22 immoralSelf moralOther mismatch m m 1 0.6404 
16-May-2018_14:48:28 Exp 7315 20 female R 1 1 23 moralOther immoralOther mismatch m m 1 0.5299 
16-May-2018_14:48:30 Exp 7315 20 female R 1 1 24 moralOther moralOther match n n 1 0.5573 
16-May-2018_14:48:32 Exp 7315 20 female R 1 2 1 moralSelf moralSelf match n n 1 0.5451 
16-May-2018_14:48:34 Exp 7315 20 female R 1 2 2 moralSelf immoralOther mismatch m m 1 0.5048 
16-May-2018_14:48:36 Exp 7315 20 female R 1 2 3 moralSelf moralSelf match n n 1 0.5237 
16-May-2018_14:48:39 Exp 7315 20 female R 1 2 4 moralSelf moralSelf match n n 1 0.5789 
16-May-2018_14:48:41 Exp 7315 20 female R 1 2 5 immoralSelf immoralOther mismatch m m 1 0.7511 
16-May-2018_14:48:43 Exp 7315 20 female R 1 2 6 immoralSelf moralSelf mismatch m n 0 0.6750 
16-May-2018_14:48:46 Exp 7315 20 female R 1 2 7 immoralSelf immoralSelf match n n 1 0.7852 
16-May-2018_14:48:48 Exp 7315 20 female R 1 2 8 immoralSelf immoralSelf match n n 1 0.5495 
16-May-2018_14:48:50 Exp 7315 20 female R 1 2 9 moralOther moralSelf mismatch m m 1 0.7811 
16-May-2018_14:48:53 Exp 7315 20 female R 1 2 10 moralSelf immoralOther mismatch m m 1 0.7615 
16-May-2018_14:48:55 Exp 7315 20 female R 1 2 11 immoralOther immoralOther match n n 1 0.6614 
16-May-2018_14:48:57 Exp 7315 20 female R 1 2 12 immoralOther immoralOther match n n 1 0.5993 
16-May-2018_14:48:59 Exp 7315 20 female R 1 2 13 immoralSelf moralSelf mismatch m n 0 0.6361 
16-May-2018_14:49:02 Exp 7315 20 female R 1 2 14 immoralOther moralSelf mismatch m n 0 0.6696 
16-May-2018_14:49:04 Exp 7315 20 female R 1 2 15 immoralOther moralSelf mismatch m m 1 0.6199 
16-May-2018_14:49:06 Exp 7315 20 female R 1 2 16 immoralOther moralOther mismatch m m 1 0.7889 
16-May-2018_14:49:09 Exp 7315 20 female R 1 2 17 moralOther moralOther match n n 1 0.6375 
16-May-2018_14:49:11 Exp 7315 20 female R 1 2 18 immoralOther immoralOther match n n 1 0.8709 
16-May-2018_14:49:13 Exp 7315 20 female R 1 2 19 moralOther moralOther match n n 1 0.6372 
16-May-2018_14:49:16 Exp 7315 20 female R 1 2 20 moralOther moralSelf mismatch m m 1 0.6947 
16-May-2018_14:49:18 Exp 7315 20 female R 1 2 21 moralOther moralSelf mismatch m m 1 0.5174 
16-May-2018_14:49:20 Exp 7315 20 female R 1 2 22 immoralSelf immoralSelf match n n 1 0.7165 
16-May-2018_14:49:23 Exp 7315 20 female R 1 2 23 moralSelf immoralSelf mismatch m m 1 0.6756 
16-May-2018_14:49:25 Exp 7315 20 female R 1 2 24 moralOther moralOther match n n 1 0.6019 
