Date Prac Sub Age Sex Hand Block Bin Trial Shape Label Match CorrResp Resp ACC RT
06-May-2018_14:43:27 Exp 7305 18 male R 1 1 1 moralOther moralOther match n m 0 0.7289 
06-May-2018_14:43:30 Exp 7305 18 male R 1 1 2 moralOther moralSelf mismatch m m 1 1.0604 
06-May-2018_14:43:32 Exp 7305 18 male R 1 1 3 moralSelf moralOther mismatch m n 0 0.7264 
06-May-2018_14:43:35 Exp 7305 18 male R 1 1 4 immoralSelf immoralSelf match n m 0 0.6498 
06-May-2018_14:43:37 Exp 7305 18 male R 1 1 5 moralOther immoralSelf mismatch m m 1 0.8315 
06-May-2018_14:43:39 Exp 7305 18 male R 1 1 6 immoralSelf moralOther mismatch m n 0 0.6529 
06-May-2018_14:43:42 Exp 7305 18 male R 1 1 7 moralSelf moralOther mismatch m n 0 0.6906 
06-May-2018_14:43:44 Exp 7305 18 male R 1 1 8 immoralOther immoralOther match n n 1 0.6210 
06-May-2018_14:43:46 Exp 7305 18 male R 1 1 9 immoralOther immoralOther match n n 1 0.4502 
06-May-2018_14:43:48 Exp 7305 18 male R 1 1 10 immoralOther moralSelf mismatch m m 1 0.5520 
06-May-2018_14:43:51 Exp 7305 18 male R 1 1 11 moralSelf moralSelf match n m 0 0.7558 
06-May-2018_14:43:53 Exp 7305 18 male R 1 1 12 moralSelf moralSelf match n n 1 0.7437 
06-May-2018_14:43:56 Exp 7305 18 male R 1 1 13 immoralOther moralOther mismatch m m 1 0.9672 
06-May-2018_14:43:58 Exp 7305 18 male R 1 1 14 immoralOther moralOther mismatch m m 1 0.5595 
06-May-2018_14:44:00 Exp 7305 18 male R 1 1 15 moralSelf moralSelf match n n 1 0.9073 
06-May-2018_14:44:03 Exp 7305 18 male R 1 1 16 moralSelf moralOther mismatch m m 1 0.6703 
06-May-2018_14:44:05 Exp 7305 18 male R 1 1 17 immoralSelf immoralOther mismatch m n 0 0.7324 
06-May-2018_14:44:08 Exp 7305 18 male R 1 1 18 immoralOther immoralOther match n m 0 0.9838 
06-May-2018_14:44:10 Exp 7305 18 male R 1 1 19 immoralSelf immoralSelf match n m 0 0.9402 
06-May-2018_14:44:12 Exp 7305 18 male R 1 1 20 immoralSelf immoralOther mismatch m n 0 0.7318 
06-May-2018_14:44:15 Exp 7305 18 male R 1 1 21 moralOther moralSelf mismatch m n 0 0.6713 
06-May-2018_14:44:17 Exp 7305 18 male R 1 1 22 immoralSelf immoralSelf match n m 0 0.7254 
06-May-2018_14:44:20 Exp 7305 18 male R 1 1 23 moralOther moralOther match n m 0 0.7886 
06-May-2018_14:44:22 Exp 7305 18 male R 1 1 24 moralOther moralOther match n n 1 0.5731 
06-May-2018_14:44:24 Exp 7305 18 male R 1 2 1 moralSelf immoralOther mismatch m m 1 0.6693 
06-May-2018_14:44:26 Exp 7305 18 male R 1 2 2 immoralOther immoralOther match n n 1 0.8034 
06-May-2018_14:44:29 Exp 7305 18 male R 1 2 3 moralSelf moralSelf match n n 1 0.8403 
06-May-2018_14:44:31 Exp 7305 18 male R 1 2 4 immoralOther immoralOther match n n 1 0.6418 
06-May-2018_14:44:34 Exp 7305 18 male R 1 2 5 immoralOther moralOther mismatch m m 1 0.6512 
06-May-2018_14:44:36 Exp 7305 18 male R 1 2 6 moralOther moralOther match n n 1 0.5529 
06-May-2018_14:44:38 Exp 7305 18 male R 1 2 7 immoralOther immoralSelf mismatch m m 1 0.9888 
06-May-2018_14:44:41 Exp 7305 18 male R 1 2 8 immoralSelf moralSelf mismatch m n 0 0.7895 
06-May-2018_14:44:43 Exp 7305 18 male R 1 2 9 immoralSelf immoralSelf match n m 0 0.7501 
06-May-2018_14:44:45 Exp 7305 18 male R 1 2 10 immoralSelf immoralSelf match n n 1 0.4898 
06-May-2018_14:44:48 Exp 7305 18 male R 1 2 11 moralSelf moralSelf match n n 1 0.7723 
06-May-2018_14:44:50 Exp 7305 18 male R 1 2 12 immoralSelf moralSelf mismatch m m 1 0.6284 
06-May-2018_14:44:52 Exp 7305 18 male R 1 2 13 immoralSelf immoralSelf match n n 1 0.7937 
06-May-2018_14:44:55 Exp 7305 18 male R 1 2 14 moralOther moralOther match n n 1 0.6024 
06-May-2018_14:44:57 Exp 7305 18 male R 1 2 15 moralSelf immoralSelf mismatch m m 1 0.7911 
06-May-2018_14:45:00 Exp 7305 18 male R 1 2 16 immoralSelf immoralOther mismatch m m 1 0.9196 
06-May-2018_14:45:02 Exp 7305 18 male R 1 2 17 moralOther immoralOther mismatch m m 1 0.7988 
06-May-2018_14:45:04 Exp 7305 18 male R 1 2 18 moralOther moralOther match n n 1 0.5796 
06-May-2018_14:45:06 Exp 7305 18 male R 1 2 19 moralSelf moralSelf match n n 1 0.6159 
06-May-2018_14:45:09 Exp 7305 18 male R 1 2 20 moralOther immoralOther mismatch m m 1 0.6091 
06-May-2018_14:45:11 Exp 7305 18 male R 1 2 21 immoralOther immoralOther match n n 1 0.8260 
06-May-2018_14:45:13 Exp 7305 18 male R 1 2 22 immoralOther moralSelf mismatch m m 1 0.6713 
06-May-2018_14:45:16 Exp 7305 18 male R 1 2 23 moralOther moralSelf mismatch m n 0 0.6135 
06-May-2018_14:45:18 Exp 7305 18 male R 1 2 24 moralSelf moralOther mismatch m n 0 0.7265 
06-May-2018_14:45:20 Exp 7305 18 male R 1 3 1 moralSelf immoralOther mismatch m m 1 0.7139 
06-May-2018_14:45:23 Exp 7305 18 male R 1 3 2 moralOther immoralOther mismatch m m 1 0.7329 
06-May-2018_14:45:25 Exp 7305 18 male R 1 3 3 moralOther moralOther match n n 1 0.6883 
06-May-2018_14:45:27 Exp 7305 18 male R 1 3 4 immoralSelf immoralOther mismatch m m 1 0.6267 
06-May-2018_14:45:29 Exp 7305 18 male R 1 3 5 moralOther moralOther match n n 1 0.4640 
06-May-2018_14:45:32 Exp 7305 18 male R 1 3 6 immoralSelf immoralSelf match n m 0 0.7620 
06-May-2018_14:45:34 Exp 7305 18 male R 1 3 7 immoralOther immoralOther match n n 1 0.7381 
06-May-2018_14:45:36 Exp 7305 18 male R 1 3 8 immoralOther immoralOther match n n 1 0.4534 
06-May-2018_14:45:39 Exp 7305 18 male R 1 3 9 immoralSelf immoralOther mismatch m m 1 0.5792 
06-May-2018_14:45:41 Exp 7305 18 male R 1 3 10 immoralSelf immoralSelf match n n 1 1.0715 
06-May-2018_14:45:43 Exp 7305 18 male R 1 3 11 moralSelf moralSelf match n n 1 0.6138 
06-May-2018_14:45:46 Exp 7305 18 male R 1 3 12 moralSelf moralOther mismatch m n 0 0.7427 
06-May-2018_14:45:48 Exp 7305 18 male R 1 3 13 moralOther moralOther match n n 1 0.4624 
06-May-2018_14:45:50 Exp 7305 18 male R 1 3 14 moralOther immoralOther mismatch m m 1 0.5444 
06-May-2018_14:45:52 Exp 7305 18 male R 1 3 15 immoralSelf moralSelf mismatch m n 0 0.5759 
06-May-2018_14:45:55 Exp 7305 18 male R 1 3 16 immoralOther immoralSelf mismatch m m 1 0.9323 
06-May-2018_14:45:57 Exp 7305 18 male R 1 3 17 immoralSelf immoralSelf match n n 1 0.7357 
06-May-2018_14:46:00 Exp 7305 18 male R 1 3 18 moralOther immoralOther mismatch m m 1 0.7391 
06-May-2018_14:46:02 Exp 7305 18 male R 1 3 19 moralSelf moralOther mismatch m n 0 0.5867 
06-May-2018_14:46:04 Exp 7305 18 male R 1 3 20 immoralOther moralOther mismatch m m 1 0.7154 
06-May-2018_14:46:07 Exp 7305 18 male R 1 3 21 immoralOther immoralOther match n n 1 0.6745 
06-May-2018_14:46:09 Exp 7305 18 male R 1 3 22 moralSelf moralSelf match n m 0 0.8006 
06-May-2018_14:46:12 Exp 7305 18 male R 1 3 23 immoralOther immoralSelf mismatch m m 1 1.0534 
06-May-2018_14:46:14 Exp 7305 18 male R 1 3 24 moralSelf moralSelf match n n 1 0.6832 
06-May-2018_14:46:33 Exp 7305 18 male R 1 4 1 moralSelf moralSelf match n n 1 0.6172 
06-May-2018_14:46:36 Exp 7305 18 male R 1 4 2 immoralOther immoralOther match n n 1 0.6582 
06-May-2018_14:46:38 Exp 7305 18 male R 1 4 3 immoralSelf immoralSelf match n n 1 0.8922 
06-May-2018_14:46:41 Exp 7305 18 male R 1 4 4 immoralSelf moralOther mismatch m m 1 0.7229 
06-May-2018_14:46:43 Exp 7305 18 male R 1 4 5 moralOther moralOther match n n 1 0.6421 
06-May-2018_14:46:45 Exp 7305 18 male R 1 4 6 moralOther moralSelf mismatch m m 1 0.6835 
06-May-2018_14:46:48 Exp 7305 18 male R 1 4 7 immoralSelf moralSelf mismatch m m 1 1.0621 
06-May-2018_14:46:50 Exp 7305 18 male R 1 4 8 immoralOther moralSelf mismatch m m 1 0.6961 
06-May-2018_14:46:52 Exp 7305 18 male R 1 4 9 immoralOther immoralOther match n n 1 0.5508 
06-May-2018_14:46:55 Exp 7305 18 male R 1 4 10 immoralSelf immoralSelf match n m 0 0.7705 
06-May-2018_14:46:57 Exp 7305 18 male R 1 4 11 immoralSelf moralOther mismatch m m 1 0.7386 
06-May-2018_14:47:00 Exp 7305 18 male R 1 4 12 immoralOther immoralSelf mismatch m m 1 0.8983 
06-May-2018_14:47:02 Exp 7305 18 male R 1 4 13 moralOther moralOther match n n 1 0.5449 
06-May-2018_14:47:04 Exp 7305 18 male R 1 4 14 immoralSelf immoralSelf match n m 0 0.4485 
06-May-2018_14:47:06 Exp 7305 18 male R 1 4 15 moralSelf immoralSelf mismatch m m 1 0.8623 
06-May-2018_14:47:08 Exp 7305 18 male R 1 4 16 moralOther moralOther match n n 1 0.4563 
06-May-2018_14:47:11 Exp 7305 18 male R 1 4 17 moralOther immoralSelf mismatch m n 0 0.8103 
06-May-2018_14:47:13 Exp 7305 18 male R 1 4 18 moralSelf immoralSelf mismatch m m 1 0.7714 
06-May-2018_14:47:16 Exp 7305 18 male R 1 4 19 moralOther immoralSelf mismatch m m 1 0.7154 
06-May-2018_14:47:18 Exp 7305 18 male R 1 4 20 immoralOther immoralOther match n n 1 0.6266 
06-May-2018_14:47:20 Exp 7305 18 male R 1 4 21 moralSelf moralSelf match n n 1 0.7119 
06-May-2018_14:47:23 Exp 7305 18 male R 1 4 22 moralSelf moralSelf match n n 1 0.7068 
06-May-2018_14:47:25 Exp 7305 18 male R 1 4 23 moralSelf immoralOther mismatch m m 1 1.0057 
06-May-2018_14:47:27 Exp 7305 18 male R 1 4 24 immoralOther immoralSelf mismatch m n 0 0.5865 
06-May-2018_14:47:30 Exp 7305 18 male R 1 5 1 moralOther moralOther match n n 1 0.4510 
06-May-2018_14:47:32 Exp 7305 18 male R 1 5 2 immoralSelf immoralSelf match n n 1 0.6968 
06-May-2018_14:47:34 Exp 7305 18 male R 1 5 3 immoralSelf immoralOther mismatch m m 1 0.6555 
06-May-2018_14:47:36 Exp 7305 18 male R 1 5 4 moralSelf moralSelf match n n 1 0.6213 
06-May-2018_14:47:39 Exp 7305 18 male R 1 5 5 immoralSelf immoralSelf match n n 1 0.6105 
06-May-2018_14:47:41 Exp 7305 18 male R 1 5 6 immoralSelf immoralSelf match n n 1 0.4676 
06-May-2018_14:47:43 Exp 7305 18 male R 1 5 7 immoralOther immoralOther match n n 1 0.6295 
06-May-2018_14:47:45 Exp 7305 18 male R 1 5 8 moralOther immoralSelf mismatch m m 1 0.6988 
06-May-2018_14:47:47 Exp 7305 18 male R 1 5 9 moralOther moralOther match n n 1 0.4894 
06-May-2018_14:47:50 Exp 7305 18 male R 1 5 10 immoralOther immoralSelf mismatch m m 1 0.7638 
06-May-2018_14:47:52 Exp 7305 18 male R 1 5 11 immoralSelf moralSelf mismatch m n 0 0.7400 
06-May-2018_14:47:55 Exp 7305 18 male R 1 5 12 moralSelf immoralSelf mismatch m m 1 0.8757 
06-May-2018_14:47:57 Exp 7305 18 male R 1 5 13 immoralOther immoralOther match n n 1 0.4579 
06-May-2018_14:47:59 Exp 7305 18 male R 1 5 14 moralOther moralSelf mismatch m n 0 0.5638 
06-May-2018_14:48:01 Exp 7305 18 male R 1 5 15 moralSelf moralOther mismatch m n 0 0.6438 
06-May-2018_14:48:04 Exp 7305 18 male R 1 5 16 immoralOther immoralOther match n n 1 0.6694 
06-May-2018_14:48:06 Exp 7305 18 male R 1 5 17 moralOther moralSelf mismatch m m 1 0.8516 
06-May-2018_14:48:09 Exp 7305 18 male R 1 5 18 moralSelf immoralOther mismatch m m 1 0.8173 
06-May-2018_14:48:11 Exp 7305 18 male R 1 5 19 immoralSelf immoralOther mismatch m NA -1 1.0841 
06-May-2018_14:48:14 Exp 7305 18 male R 1 5 20 moralSelf moralSelf match n n 1 0.6689 
06-May-2018_14:48:16 Exp 7305 18 male R 1 5 21 immoralOther immoralSelf mismatch m m 1 0.7391 
06-May-2018_14:48:18 Exp 7305 18 male R 1 5 22 moralSelf moralSelf match n n 1 0.5148 
06-May-2018_14:48:20 Exp 7305 18 male R 1 5 23 moralOther moralOther match n n 1 0.6658 
06-May-2018_14:48:23 Exp 7305 18 male R 1 5 24 immoralOther immoralSelf mismatch m m 1 0.6598 
06-May-2018_14:48:28 Exp 7305 18 male R 2 1 1 immoralOther immoralOther match n n 1 0.6069 
06-May-2018_14:48:30 Exp 7305 18 male R 2 1 2 moralOther immoralOther mismatch m m 1 0.6117 
06-May-2018_14:48:32 Exp 7305 18 male R 2 1 3 moralSelf moralSelf match n n 1 0.6447 
06-May-2018_14:48:35 Exp 7305 18 male R 2 1 4 moralOther immoralSelf mismatch m m 1 0.5545 
06-May-2018_14:48:37 Exp 7305 18 male R 2 1 5 moralOther moralOther match n n 1 0.6704 
06-May-2018_14:48:39 Exp 7305 18 male R 2 1 6 immoralSelf immoralSelf match n n 1 0.7965 
06-May-2018_14:48:42 Exp 7305 18 male R 2 1 7 immoralOther immoralSelf mismatch m m 1 0.5410 
06-May-2018_14:48:44 Exp 7305 18 male R 2 1 8 immoralSelf immoralSelf match n n 1 0.5088 
06-May-2018_14:48:46 Exp 7305 18 male R 2 1 9 immoralSelf moralOther mismatch m m 1 0.8636 
06-May-2018_14:48:48 Exp 7305 18 male R 2 1 10 moralSelf moralSelf match n n 1 0.5297 
06-May-2018_14:48:51 Exp 7305 18 male R 2 1 11 immoralSelf moralOther mismatch m m 1 0.6849 
06-May-2018_14:48:53 Exp 7305 18 male R 2 1 12 immoralOther immoralOther match n n 1 0.5274 
06-May-2018_14:48:55 Exp 7305 18 male R 2 1 13 moralSelf immoralSelf mismatch m m 1 0.6428 
06-May-2018_14:48:57 Exp 7305 18 male R 2 1 14 immoralSelf immoralSelf match n n 1 0.5563 
06-May-2018_14:49:00 Exp 7305 18 male R 2 1 15 moralOther immoralSelf mismatch m m 1 0.6322 
06-May-2018_14:49:02 Exp 7305 18 male R 2 1 16 moralSelf immoralSelf mismatch m m 1 0.6775 
06-May-2018_14:49:04 Exp 7305 18 male R 2 1 17 immoralOther moralOther mismatch m n 0 0.3957 
06-May-2018_14:49:06 Exp 7305 18 male R 2 1 18 moralSelf moralSelf match n n 1 0.5803 
06-May-2018_14:49:08 Exp 7305 18 male R 2 1 19 moralSelf immoralOther mismatch m m 1 0.6006 
06-May-2018_14:49:11 Exp 7305 18 male R 2 1 20 moralOther moralOther match n n 1 0.5974 
06-May-2018_14:49:13 Exp 7305 18 male R 2 1 21 immoralSelf moralOther mismatch m m 1 0.6501 
06-May-2018_14:49:15 Exp 7305 18 male R 2 1 22 immoralOther immoralOther match n n 1 0.6479 
06-May-2018_14:49:17 Exp 7305 18 male R 2 1 23 immoralOther immoralSelf mismatch m n 0 0.6456 
06-May-2018_14:49:20 Exp 7305 18 male R 2 1 24 moralOther moralOther match n n 1 0.5314 
06-May-2018_14:49:22 Exp 7305 18 male R 2 2 1 moralOther moralOther match n m 0 0.5587 
06-May-2018_14:49:24 Exp 7305 18 male R 2 2 2 moralOther immoralSelf mismatch m m 1 0.7626 
06-May-2018_14:49:26 Exp 7305 18 male R 2 2 3 moralSelf moralSelf match n n 1 0.5788 
06-May-2018_14:49:29 Exp 7305 18 male R 2 2 4 immoralSelf immoralSelf match n n 1 0.5591 
06-May-2018_14:49:31 Exp 7305 18 male R 2 2 5 immoralSelf immoralSelf match n n 1 0.6669 
06-May-2018_14:49:33 Exp 7305 18 male R 2 2 6 immoralOther immoralSelf mismatch m m 1 0.5568 
06-May-2018_14:49:35 Exp 7305 18 male R 2 2 7 moralOther immoralSelf mismatch m m 1 0.6239 
06-May-2018_14:49:38 Exp 7305 18 male R 2 2 8 moralSelf immoralSelf mismatch m n 0 0.5660 
06-May-2018_14:49:40 Exp 7305 18 male R 2 2 9 immoralOther moralSelf mismatch m m 1 0.6221 
06-May-2018_14:49:42 Exp 7305 18 male R 2 2 10 moralOther moralOther match n n 1 0.6434 
06-May-2018_14:49:44 Exp 7305 18 male R 2 2 11 immoralSelf moralSelf mismatch m m 1 0.7728 
06-May-2018_14:49:47 Exp 7305 18 male R 2 2 12 moralSelf immoralSelf mismatch m m 1 0.6530 
06-May-2018_14:49:49 Exp 7305 18 male R 2 2 13 immoralOther immoralSelf mismatch m m 1 0.5707 
06-May-2018_14:49:51 Exp 7305 18 male R 2 2 14 moralSelf moralSelf match n n 1 0.5708 
06-May-2018_14:49:53 Exp 7305 18 male R 2 2 15 moralOther moralSelf mismatch m n 0 0.5948 
06-May-2018_14:49:55 Exp 7305 18 male R 2 2 16 moralSelf moralSelf match n n 1 0.4194 
06-May-2018_14:49:58 Exp 7305 18 male R 2 2 17 immoralOther immoralOther match n n 1 0.7565 
06-May-2018_14:50:00 Exp 7305 18 male R 2 2 18 moralSelf immoralOther mismatch m m 1 0.7203 
06-May-2018_14:50:02 Exp 7305 18 male R 2 2 19 immoralSelf immoralSelf match n n 1 0.6554 
06-May-2018_14:50:05 Exp 7305 18 male R 2 2 20 moralOther moralOther match n n 1 0.5332 
06-May-2018_14:50:07 Exp 7305 18 male R 2 2 21 immoralOther immoralOther match n m 0 0.5046 
06-May-2018_14:50:09 Exp 7305 18 male R 2 2 22 immoralSelf moralSelf mismatch m n 0 0.4355 
06-May-2018_14:50:11 Exp 7305 18 male R 2 2 23 immoralOther immoralOther match n n 1 0.5170 
06-May-2018_14:50:13 Exp 7305 18 male R 2 2 24 immoralSelf immoralOther mismatch m n 0 0.6922 
06-May-2018_14:50:15 Exp 7305 18 male R 2 3 1 immoralOther immoralOther match n n 1 0.5707 
06-May-2018_14:50:18 Exp 7305 18 male R 2 3 2 moralOther immoralSelf mismatch m m 1 0.7790 
06-May-2018_14:50:20 Exp 7305 18 male R 2 3 3 immoralSelf immoralSelf match n n 1 0.6074 
06-May-2018_14:50:22 Exp 7305 18 male R 2 3 4 immoralOther immoralSelf mismatch m n 0 0.5161 
06-May-2018_14:50:25 Exp 7305 18 male R 2 3 5 moralOther immoralOther mismatch m m 1 0.6913 
06-May-2018_14:50:27 Exp 7305 18 male R 2 3 6 moralOther moralOther match n m 0 0.8179 
06-May-2018_14:50:29 Exp 7305 18 male R 2 3 7 immoralOther immoralOther match n n 1 0.6349 
06-May-2018_14:50:32 Exp 7305 18 male R 2 3 8 moralSelf moralOther mismatch m m 1 0.7085 
06-May-2018_14:50:34 Exp 7305 18 male R 2 3 9 immoralSelf immoralOther mismatch m m 1 0.7994 
06-May-2018_14:50:36 Exp 7305 18 male R 2 3 10 immoralSelf moralSelf mismatch m n 0 0.5882 
06-May-2018_14:50:39 Exp 7305 18 male R 2 3 11 moralSelf moralOther mismatch m n 0 0.8607 
06-May-2018_14:50:41 Exp 7305 18 male R 2 3 12 moralSelf moralSelf match n m 0 0.7027 
06-May-2018_14:50:43 Exp 7305 18 male R 2 3 13 moralSelf immoralSelf mismatch m m 1 0.6854 
06-May-2018_14:50:46 Exp 7305 18 male R 2 3 14 immoralOther moralSelf mismatch m m 1 0.7199 
06-May-2018_14:50:48 Exp 7305 18 male R 2 3 15 moralSelf moralSelf match n n 1 0.7190 
06-May-2018_14:50:50 Exp 7305 18 male R 2 3 16 immoralSelf immoralSelf match n n 1 0.3982 
06-May-2018_14:50:52 Exp 7305 18 male R 2 3 17 immoralOther immoralOther match n n 1 0.5550 
06-May-2018_14:50:55 Exp 7305 18 male R 2 3 18 immoralSelf immoralOther mismatch m m 1 0.6469 
06-May-2018_14:50:57 Exp 7305 18 male R 2 3 19 immoralOther moralOther mismatch m m 1 0.6766 
06-May-2018_14:50:59 Exp 7305 18 male R 2 3 20 moralOther moralOther match n n 1 0.6028 
06-May-2018_14:51:01 Exp 7305 18 male R 2 3 21 immoralSelf immoralSelf match n n 1 0.5036 
06-May-2018_14:51:04 Exp 7305 18 male R 2 3 22 moralOther moralOther match n n 1 0.5225 
06-May-2018_14:51:06 Exp 7305 18 male R 2 3 23 moralOther immoralOther mismatch m m 1 0.5137 
06-May-2018_14:51:08 Exp 7305 18 male R 2 3 24 moralSelf moralSelf match n n 1 0.4845 
06-May-2018_14:51:42 Exp 7305 18 male R 2 4 1 moralSelf moralSelf match n n 1 0.4949 
06-May-2018_14:51:44 Exp 7305 18 male R 2 4 2 moralOther immoralSelf mismatch m m 1 0.6295 
06-May-2018_14:51:46 Exp 7305 18 male R 2 4 3 immoralSelf immoralSelf match n n 1 0.5230 
06-May-2018_14:51:49 Exp 7305 18 male R 2 4 4 moralOther immoralOther mismatch m n 0 0.6740 
06-May-2018_14:51:51 Exp 7305 18 male R 2 4 5 immoralOther immoralSelf mismatch m m 1 0.5363 
06-May-2018_14:51:53 Exp 7305 18 male R 2 4 6 moralSelf immoralOther mismatch m m 1 0.7158 
06-May-2018_14:51:55 Exp 7305 18 male R 2 4 7 immoralOther immoralOther match n n 1 0.5149 
06-May-2018_14:51:57 Exp 7305 18 male R 2 4 8 moralOther moralOther match n n 1 0.6259 
06-May-2018_14:52:00 Exp 7305 18 male R 2 4 9 immoralOther moralSelf mismatch m n 0 0.6071 
06-May-2018_14:52:02 Exp 7305 18 male R 2 4 10 moralOther immoralSelf mismatch m m 1 0.5800 
06-May-2018_14:52:04 Exp 7305 18 male R 2 4 11 moralSelf moralSelf match n n 1 0.4724 
06-May-2018_14:52:06 Exp 7305 18 male R 2 4 12 immoralOther immoralOther match n n 1 0.5505 
06-May-2018_14:52:08 Exp 7305 18 male R 2 4 13 immoralSelf moralOther mismatch m m 1 0.6344 
06-May-2018_14:52:11 Exp 7305 18 male R 2 4 14 immoralSelf immoralSelf match n n 1 0.3799 
06-May-2018_14:52:13 Exp 7305 18 male R 2 4 15 moralSelf immoralSelf mismatch m m 1 0.5682 
06-May-2018_14:52:15 Exp 7305 18 male R 2 4 16 moralOther moralOther match n n 1 0.4964 
06-May-2018_14:52:17 Exp 7305 18 male R 2 4 17 moralOther moralOther match n n 1 0.6070 
06-May-2018_14:52:19 Exp 7305 18 male R 2 4 18 immoralSelf immoralSelf match n n 1 0.4438 
06-May-2018_14:52:21 Exp 7305 18 male R 2 4 19 immoralSelf moralOther mismatch m m 1 0.5813 
06-May-2018_14:52:23 Exp 7305 18 male R 2 4 20 moralSelf moralSelf match n n 1 0.4336 
06-May-2018_14:52:26 Exp 7305 18 male R 2 4 21 immoralSelf immoralOther mismatch m m 1 0.5872 
06-May-2018_14:52:28 Exp 7305 18 male R 2 4 22 immoralOther moralOther mismatch m n 0 0.4197 
06-May-2018_14:52:30 Exp 7305 18 male R 2 4 23 immoralOther immoralOther match n n 1 0.6287 
06-May-2018_14:52:32 Exp 7305 18 male R 2 4 24 moralSelf immoralSelf mismatch m m 1 0.7060 
06-May-2018_14:52:34 Exp 7305 18 male R 2 5 1 moralSelf moralOther mismatch m n 0 0.4529 
06-May-2018_14:52:37 Exp 7305 18 male R 2 5 2 moralOther moralOther match n n 1 0.7226 
06-May-2018_14:52:39 Exp 7305 18 male R 2 5 3 immoralOther immoralOther match n n 1 0.5619 
06-May-2018_14:52:41 Exp 7305 18 male R 2 5 4 moralOther immoralOther mismatch m m 1 0.5300 
06-May-2018_14:52:43 Exp 7305 18 male R 2 5 5 moralOther moralOther match n n 1 0.4613 
06-May-2018_14:52:45 Exp 7305 18 male R 2 5 6 immoralSelf immoralSelf match n n 1 0.6072 
06-May-2018_14:52:48 Exp 7305 18 male R 2 5 7 moralOther moralSelf mismatch m m 1 0.7160 
06-May-2018_14:52:50 Exp 7305 18 male R 2 5 8 immoralSelf immoralOther mismatch m n 0 0.5551 
06-May-2018_14:52:52 Exp 7305 18 male R 2 5 9 immoralSelf immoralSelf match n n 1 0.5750 
06-May-2018_14:52:54 Exp 7305 18 male R 2 5 10 moralSelf moralSelf match n n 1 0.5314 
06-May-2018_14:52:57 Exp 7305 18 male R 2 5 11 immoralSelf immoralSelf match n n 1 0.5267 
06-May-2018_14:52:59 Exp 7305 18 male R 2 5 12 moralOther moralOther match n n 1 0.4822 
06-May-2018_14:53:01 Exp 7305 18 male R 2 5 13 moralSelf moralOther mismatch m n 0 0.5807 
06-May-2018_14:53:03 Exp 7305 18 male R 2 5 14 immoralOther moralSelf mismatch m m 1 0.6648 
06-May-2018_14:53:05 Exp 7305 18 male R 2 5 15 immoralOther moralSelf mismatch m m 1 0.7148 
06-May-2018_14:53:08 Exp 7305 18 male R 2 5 16 immoralOther moralOther mismatch m m 1 0.5220 
06-May-2018_14:53:10 Exp 7305 18 male R 2 5 17 moralSelf moralSelf match n n 1 0.4732 
06-May-2018_14:53:12 Exp 7305 18 male R 2 5 18 moralSelf moralOther mismatch m m 1 0.8073 
06-May-2018_14:53:15 Exp 7305 18 male R 2 5 19 immoralSelf moralSelf mismatch m m 1 0.7321 
06-May-2018_14:53:17 Exp 7305 18 male R 2 5 20 immoralSelf moralSelf mismatch m n 0 0.4955 
06-May-2018_14:53:19 Exp 7305 18 male R 2 5 21 moralSelf moralSelf match n n 1 0.5743 
06-May-2018_14:53:21 Exp 7305 18 male R 2 5 22 moralOther immoralOther mismatch m m 1 0.7706 
06-May-2018_14:53:24 Exp 7305 18 male R 2 5 23 immoralOther immoralOther match n n 1 0.7787 
06-May-2018_14:53:26 Exp 7305 18 male R 2 5 24 immoralOther immoralOther match n n 1 0.5351 
06-May-2018_14:53:31 Exp 7305 18 male R 3 1 1 immoralSelf immoralSelf match n n 1 0.5710 
06-May-2018_14:53:33 Exp 7305 18 male R 3 1 2 immoralOther immoralOther match n n 1 0.5871 
06-May-2018_14:53:35 Exp 7305 18 male R 3 1 3 immoralOther immoralOther match n n 1 0.4836 
06-May-2018_14:53:38 Exp 7305 18 male R 3 1 4 immoralOther immoralSelf mismatch m n 0 0.4461 
06-May-2018_14:53:40 Exp 7305 18 male R 3 1 5 moralOther moralOther match n n 1 0.5717 
06-May-2018_14:53:42 Exp 7305 18 male R 3 1 6 immoralOther moralOther mismatch m m 1 0.6439 
06-May-2018_14:53:44 Exp 7305 18 male R 3 1 7 immoralSelf moralSelf mismatch m n 0 0.6695 
06-May-2018_14:53:47 Exp 7305 18 male R 3 1 8 moralOther immoralSelf mismatch m m 1 0.6996 
06-May-2018_14:53:49 Exp 7305 18 male R 3 1 9 moralOther moralSelf mismatch m m 1 0.8583 
06-May-2018_14:53:51 Exp 7305 18 male R 3 1 10 immoralSelf moralOther mismatch m m 1 0.6283 
06-May-2018_14:53:54 Exp 7305 18 male R 3 1 11 moralSelf immoralOther mismatch m m 1 0.6095 
06-May-2018_14:53:56 Exp 7305 18 male R 3 1 12 immoralSelf immoralSelf match n n 1 0.6026 
06-May-2018_14:53:58 Exp 7305 18 male R 3 1 13 immoralOther moralOther mismatch m m 1 0.7434 
06-May-2018_14:54:00 Exp 7305 18 male R 3 1 14 moralSelf moralSelf match n n 1 0.6152 
06-May-2018_14:54:03 Exp 7305 18 male R 3 1 15 moralSelf moralSelf match n m 0 0.5921 
06-May-2018_14:54:05 Exp 7305 18 male R 3 1 16 moralOther moralOther match n n 1 0.7366 
06-May-2018_14:54:07 Exp 7305 18 male R 3 1 17 moralSelf immoralOther mismatch m m 1 0.6359 
06-May-2018_14:54:10 Exp 7305 18 male R 3 1 18 moralOther immoralSelf mismatch m m 1 0.6616 
06-May-2018_14:54:12 Exp 7305 18 male R 3 1 19 immoralSelf immoralSelf match n n 1 0.6394 
06-May-2018_14:54:14 Exp 7305 18 male R 3 1 20 moralSelf moralSelf match n n 1 0.5692 
06-May-2018_14:54:16 Exp 7305 18 male R 3 1 21 immoralSelf moralOther mismatch m m 1 0.6412 
06-May-2018_14:54:19 Exp 7305 18 male R 3 1 22 moralOther moralOther match n n 1 0.5547 
06-May-2018_14:54:21 Exp 7305 18 male R 3 1 23 immoralOther immoralOther match n n 1 0.6065 
06-May-2018_14:54:23 Exp 7305 18 male R 3 1 24 moralSelf moralOther mismatch m n 0 0.5633 
06-May-2018_14:54:25 Exp 7305 18 male R 3 2 1 immoralSelf immoralSelf match n n 1 0.5713 
06-May-2018_14:54:28 Exp 7305 18 male R 3 2 2 immoralOther immoralSelf mismatch m m 1 0.7154 
06-May-2018_14:54:30 Exp 7305 18 male R 3 2 3 moralSelf moralSelf match n n 1 0.5305 
06-May-2018_14:54:32 Exp 7305 18 male R 3 2 4 immoralSelf immoralSelf match n n 1 0.4860 
06-May-2018_14:54:34 Exp 7305 18 male R 3 2 5 moralSelf moralSelf match n n 1 0.4965 
06-May-2018_14:54:36 Exp 7305 18 male R 3 2 6 immoralOther moralSelf mismatch m m 1 0.5512 
06-May-2018_14:54:38 Exp 7305 18 male R 3 2 7 immoralSelf immoralSelf match n n 1 0.4509 
06-May-2018_14:54:41 Exp 7305 18 male R 3 2 8 moralSelf immoralOther mismatch m m 1 0.7527 
06-May-2018_14:54:43 Exp 7305 18 male R 3 2 9 moralOther immoralOther mismatch m m 1 0.7006 
06-May-2018_14:54:45 Exp 7305 18 male R 3 2 10 immoralSelf moralOther mismatch m m 1 0.6433 
06-May-2018_14:54:48 Exp 7305 18 male R 3 2 11 moralOther moralOther match n n 1 1.0367 
06-May-2018_14:54:50 Exp 7305 18 male R 3 2 12 moralOther moralOther match n n 1 0.4863 
06-May-2018_14:54:52 Exp 7305 18 male R 3 2 13 moralOther immoralOther mismatch m m 1 0.5207 
06-May-2018_14:54:55 Exp 7305 18 male R 3 2 14 immoralSelf immoralOther mismatch m m 1 0.7439 
06-May-2018_14:54:57 Exp 7305 18 male R 3 2 15 moralSelf moralSelf match n n 1 0.4795 
06-May-2018_14:54:59 Exp 7305 18 male R 3 2 16 moralSelf immoralOther mismatch m m 1 0.5140 
06-May-2018_14:55:01 Exp 7305 18 male R 3 2 17 immoralOther immoralOther match n n 1 0.5408 
06-May-2018_14:55:04 Exp 7305 18 male R 3 2 18 immoralSelf moralOther mismatch m m 1 0.9963 
06-May-2018_14:55:06 Exp 7305 18 male R 3 2 19 moralOther moralOther match n n 1 0.5490 
06-May-2018_14:55:08 Exp 7305 18 male R 3 2 20 moralOther immoralOther mismatch m m 1 0.6687 
06-May-2018_14:55:10 Exp 7305 18 male R 3 2 21 immoralOther moralOther mismatch m m 1 0.6750 
06-May-2018_14:55:13 Exp 7305 18 male R 3 2 22 immoralOther immoralOther match n n 1 0.6250 
06-May-2018_14:55:15 Exp 7305 18 male R 3 2 23 immoralOther immoralOther match n n 1 0.7584 
06-May-2018_14:55:18 Exp 7305 18 male R 3 2 24 moralSelf moralOther mismatch m m 1 0.9303 
06-May-2018_14:55:20 Exp 7305 18 male R 3 3 1 moralSelf moralSelf match n n 1 0.4616 
06-May-2018_14:55:22 Exp 7305 18 male R 3 3 2 immoralSelf immoralSelf match n n 1 0.3913 
06-May-2018_14:55:24 Exp 7305 18 male R 3 3 3 immoralOther immoralOther match n n 1 0.4882 
06-May-2018_14:55:26 Exp 7305 18 male R 3 3 4 immoralSelf moralSelf mismatch m n 0 0.6426 
06-May-2018_14:55:28 Exp 7305 18 male R 3 3 5 moralSelf moralSelf match n n 1 0.4521 
06-May-2018_14:55:31 Exp 7305 18 male R 3 3 6 moralOther immoralSelf mismatch m m 1 0.7139 
06-May-2018_14:55:33 Exp 7305 18 male R 3 3 7 moralOther immoralOther mismatch m m 1 0.7327 
06-May-2018_14:55:35 Exp 7305 18 male R 3 3 8 immoralOther moralOther mismatch m m 1 0.6482 
06-May-2018_14:55:37 Exp 7305 18 male R 3 3 9 moralOther moralOther match n n 1 0.5099 
06-May-2018_14:55:40 Exp 7305 18 male R 3 3 10 immoralSelf moralOther mismatch m m 1 0.7768 
06-May-2018_14:55:42 Exp 7305 18 male R 3 3 11 immoralOther immoralOther match n n 1 0.6051 
06-May-2018_14:55:44 Exp 7305 18 male R 3 3 12 moralSelf immoralOther mismatch m m 1 0.6019 
06-May-2018_14:55:46 Exp 7305 18 male R 3 3 13 immoralOther immoralOther match n n 1 0.5107 
06-May-2018_14:55:49 Exp 7305 18 male R 3 3 14 moralOther moralSelf mismatch m m 1 0.7536 
06-May-2018_14:55:51 Exp 7305 18 male R 3 3 15 immoralSelf immoralSelf match n n 1 0.6215 
06-May-2018_14:55:53 Exp 7305 18 male R 3 3 16 moralSelf moralOther mismatch m m 1 0.6588 
06-May-2018_14:55:55 Exp 7305 18 male R 3 3 17 immoralSelf immoralSelf match n n 1 0.5967 
06-May-2018_14:55:58 Exp 7305 18 male R 3 3 18 moralOther moralOther match n n 1 0.6534 
06-May-2018_14:56:00 Exp 7305 18 male R 3 3 19 immoralOther moralOther mismatch m m 1 0.6190 
06-May-2018_14:56:02 Exp 7305 18 male R 3 3 20 moralSelf moralSelf match n n 1 0.5321 
06-May-2018_14:56:04 Exp 7305 18 male R 3 3 21 immoralSelf moralOther mismatch m m 1 0.6555 
06-May-2018_14:56:07 Exp 7305 18 male R 3 3 22 moralOther moralOther match n n 1 0.7654 
06-May-2018_14:56:09 Exp 7305 18 male R 3 3 23 immoralOther moralOther mismatch m m 1 0.6053 
06-May-2018_14:56:12 Exp 7305 18 male R 3 3 24 moralSelf immoralOther mismatch m m 1 0.8981 
06-May-2018_14:56:36 Exp 7305 18 male R 3 4 1 moralSelf moralSelf match n n 1 0.5100 
06-May-2018_14:56:38 Exp 7305 18 male R 3 4 2 moralOther immoralSelf mismatch m m 1 0.8489 
06-May-2018_14:56:40 Exp 7305 18 male R 3 4 3 immoralOther moralSelf mismatch m m 1 0.6626 
06-May-2018_14:56:43 Exp 7305 18 male R 3 4 4 moralSelf moralSelf match n n 1 0.5446 
06-May-2018_14:56:45 Exp 7305 18 male R 3 4 5 moralOther moralSelf mismatch m m 1 0.5363 
06-May-2018_14:56:47 Exp 7305 18 male R 3 4 6 moralSelf moralSelf match n n 1 0.4036 
06-May-2018_14:56:49 Exp 7305 18 male R 3 4 7 moralOther immoralSelf mismatch m m 1 0.5204 
06-May-2018_14:56:51 Exp 7305 18 male R 3 4 8 moralOther moralOther match n m 0 0.6395 
06-May-2018_14:56:53 Exp 7305 18 male R 3 4 9 immoralSelf immoralSelf match n n 1 0.6811 
06-May-2018_14:56:56 Exp 7305 18 male R 3 4 10 immoralSelf moralOther mismatch m m 1 0.7714 
06-May-2018_14:56:58 Exp 7305 18 male R 3 4 11 immoralOther moralOther mismatch m m 1 0.6436 
06-May-2018_14:57:00 Exp 7305 18 male R 3 4 12 immoralSelf moralSelf mismatch m m 1 0.6851 
06-May-2018_14:57:03 Exp 7305 18 male R 3 4 13 moralSelf immoralSelf mismatch m m 1 0.7596 
06-May-2018_14:57:05 Exp 7305 18 male R 3 4 14 moralOther moralOther match n n 1 0.7394 
06-May-2018_14:57:08 Exp 7305 18 male R 3 4 15 immoralSelf immoralOther mismatch m m 1 0.7311 
06-May-2018_14:57:10 Exp 7305 18 male R 3 4 16 moralSelf immoralSelf mismatch m m 1 0.6624 
06-May-2018_14:57:12 Exp 7305 18 male R 3 4 17 immoralSelf immoralSelf match n n 1 0.6564 
06-May-2018_14:57:15 Exp 7305 18 male R 3 4 18 immoralOther immoralOther match n n 1 0.7544 
06-May-2018_14:57:17 Exp 7305 18 male R 3 4 19 moralSelf immoralSelf mismatch m m 1 0.6943 
06-May-2018_14:57:19 Exp 7305 18 male R 3 4 20 immoralOther immoralSelf mismatch m m 1 0.7970 
06-May-2018_14:57:21 Exp 7305 18 male R 3 4 21 immoralSelf immoralSelf match n n 1 0.4374 
06-May-2018_14:57:24 Exp 7305 18 male R 3 4 22 immoralOther immoralOther match n n 1 0.6550 
06-May-2018_14:57:26 Exp 7305 18 male R 3 4 23 moralOther moralOther match n n 1 0.5247 
06-May-2018_14:57:28 Exp 7305 18 male R 3 4 24 immoralOther immoralOther match n n 1 0.6599 
06-May-2018_14:57:30 Exp 7305 18 male R 3 5 1 immoralOther immoralOther match n n 1 0.4299 
06-May-2018_14:57:32 Exp 7305 18 male R 3 5 2 moralOther moralOther match n n 1 0.6032 
06-May-2018_14:57:35 Exp 7305 18 male R 3 5 3 moralOther moralSelf mismatch m m 1 0.8559 
06-May-2018_14:57:37 Exp 7305 18 male R 3 5 4 immoralOther moralOther mismatch m m 1 0.7619 
06-May-2018_14:57:40 Exp 7305 18 male R 3 5 5 immoralOther moralSelf mismatch m m 1 0.8020 
06-May-2018_14:57:42 Exp 7305 18 male R 3 5 6 moralOther immoralSelf mismatch m m 1 0.5669 
06-May-2018_14:57:44 Exp 7305 18 male R 3 5 7 moralOther moralSelf mismatch m n 0 0.5270 
06-May-2018_14:57:46 Exp 7305 18 male R 3 5 8 moralSelf immoralOther mismatch m m 1 0.6903 
06-May-2018_14:57:49 Exp 7305 18 male R 3 5 9 moralOther moralOther match n n 1 0.6048 
06-May-2018_14:57:51 Exp 7305 18 male R 3 5 10 immoralSelf immoralSelf match n n 1 0.6495 
06-May-2018_14:57:53 Exp 7305 18 male R 3 5 11 moralSelf immoralOther mismatch m m 1 0.6153 
06-May-2018_14:57:55 Exp 7305 18 male R 3 5 12 immoralOther immoralOther match n n 1 0.6004 
06-May-2018_14:57:58 Exp 7305 18 male R 3 5 13 immoralSelf moralSelf mismatch m m 1 0.7411 
06-May-2018_14:58:00 Exp 7305 18 male R 3 5 14 immoralOther moralSelf mismatch m m 1 0.6447 
06-May-2018_14:58:02 Exp 7305 18 male R 3 5 15 moralOther moralOther match n n 1 0.5145 
06-May-2018_14:58:04 Exp 7305 18 male R 3 5 16 moralSelf immoralOther mismatch m m 1 0.5494 
06-May-2018_14:58:07 Exp 7305 18 male R 3 5 17 moralSelf moralSelf match n n 1 0.6371 
06-May-2018_14:58:09 Exp 7305 18 male R 3 5 18 immoralOther immoralOther match n n 1 0.5986 
06-May-2018_14:58:11 Exp 7305 18 male R 3 5 19 immoralSelf moralOther mismatch m m 1 0.9555 
06-May-2018_14:58:14 Exp 7305 18 male R 3 5 20 immoralSelf immoralSelf match n n 1 0.5352 
06-May-2018_14:58:16 Exp 7305 18 male R 3 5 21 immoralSelf immoralSelf match n n 1 0.5226 
06-May-2018_14:58:18 Exp 7305 18 male R 3 5 22 moralSelf moralSelf match n n 1 0.6178 
06-May-2018_14:58:20 Exp 7305 18 male R 3 5 23 immoralSelf moralOther mismatch m m 1 0.6268 
06-May-2018_14:58:22 Exp 7305 18 male R 3 5 24 moralSelf moralSelf match n n 1 0.4080 
Date Prac Sub Age Sex Hand Block Bin Trial Shape Label Match CorrResp Resp ACC RT
06-May-2018_15:03:42 Exp 7305 18 male R 1 1 1 immoralSelf immoralSelf match n y 2 0.9544 
06-May-2018_15:03:45 Exp 7305 18 male R 1 1 2 moralSelf moralOther mismatch m n 0 1.0304 
06-May-2018_15:03:48 Exp 7305 18 male R 1 1 3 moralSelf moralSelf match n NA -1 1.0841 
06-May-2018_15:03:50 Exp 7305 18 male R 1 1 4 immoralOther immoralSelf mismatch m m 1 0.9421 
06-May-2018_15:03:52 Exp 7305 18 male R 1 1 5 moralOther moralOther match n n 1 0.5419 
06-May-2018_15:03:55 Exp 7305 18 male R 1 1 6 immoralSelf moralOther mismatch m m 1 0.7094 
06-May-2018_15:03:57 Exp 7305 18 male R 1 1 7 immoralSelf moralOther mismatch m m 1 1.0244 
06-May-2018_15:04:00 Exp 7305 18 male R 1 1 8 moralSelf moralSelf match n n 1 0.6536 
06-May-2018_15:04:02 Exp 7305 18 male R 1 1 9 immoralOther immoralOther match n n 1 0.7313 
06-May-2018_15:04:04 Exp 7305 18 male R 1 1 10 moralOther moralSelf mismatch m n 0 0.5108 
06-May-2018_15:04:06 Exp 7305 18 male R 1 1 11 moralOther moralOther match n n 1 0.3937 
06-May-2018_15:04:09 Exp 7305 18 male R 1 1 12 moralSelf immoralSelf mismatch m m 1 0.7382 
06-May-2018_15:04:11 Exp 7305 18 male R 1 1 13 immoralSelf immoralOther mismatch m m 1 0.7378 
06-May-2018_15:04:13 Exp 7305 18 male R 1 1 14 immoralOther immoralOther match n n 1 0.5493 
06-May-2018_15:04:16 Exp 7305 18 male R 1 1 15 immoralSelf immoralSelf match n m 0 0.8129 
06-May-2018_15:04:18 Exp 7305 18 male R 1 1 16 moralSelf immoralSelf mismatch m m 1 0.9099 
06-May-2018_15:04:20 Exp 7305 18 male R 1 1 17 immoralSelf immoralSelf match n n 1 0.5608 
06-May-2018_15:04:22 Exp 7305 18 male R 1 1 18 moralOther moralOther match n n 1 0.4207 
06-May-2018_15:04:25 Exp 7305 18 male R 1 1 19 immoralOther immoralOther match n n 1 0.5779 
06-May-2018_15:04:27 Exp 7305 18 male R 1 1 20 moralSelf moralSelf match n n 1 0.6063 
06-May-2018_15:04:29 Exp 7305 18 male R 1 1 21 moralOther moralSelf mismatch m n 0 0.5230 
06-May-2018_15:04:32 Exp 7305 18 male R 1 1 22 immoralOther moralSelf mismatch m m 1 0.9462 
06-May-2018_15:04:34 Exp 7305 18 male R 1 1 23 moralOther immoralOther mismatch m m 1 0.7940 
06-May-2018_15:04:36 Exp 7305 18 male R 1 1 24 immoralOther immoralSelf mismatch m m 1 0.7144 
06-May-2018_15:04:39 Exp 7305 18 male R 1 2 1 immoralOther moralSelf mismatch m m 1 0.9893 
06-May-2018_15:04:41 Exp 7305 18 male R 1 2 2 moralOther moralOther match n n 1 0.4779 
06-May-2018_15:04:43 Exp 7305 18 male R 1 2 3 immoralOther immoralOther match n n 1 0.6441 
06-May-2018_15:04:46 Exp 7305 18 male R 1 2 4 moralSelf moralSelf match n n 1 0.5939 
06-May-2018_15:04:48 Exp 7305 18 male R 1 2 5 immoralSelf immoralSelf match n n 1 0.6824 
06-May-2018_15:04:50 Exp 7305 18 male R 1 2 6 moralOther moralOther match n n 1 0.5169 
06-May-2018_15:04:52 Exp 7305 18 male R 1 2 7 moralOther moralOther match n n 1 0.5720 
06-May-2018_15:04:54 Exp 7305 18 male R 1 2 8 moralSelf moralSelf match n n 1 0.5241 
06-May-2018_15:04:57 Exp 7305 18 male R 1 2 9 immoralSelf moralSelf mismatch m m 1 0.6993 
06-May-2018_15:04:59 Exp 7305 18 male R 1 2 10 moralSelf immoralSelf mismatch m m 1 0.7140 
06-May-2018_15:05:01 Exp 7305 18 male R 1 2 11 moralSelf immoralSelf mismatch m m 1 0.6529 
06-May-2018_15:05:04 Exp 7305 18 male R 1 2 12 immoralSelf moralSelf mismatch m m 1 0.7548 
06-May-2018_15:05:06 Exp 7305 18 male R 1 2 13 moralOther immoralOther mismatch m m 1 0.6465 
06-May-2018_15:05:08 Exp 7305 18 male R 1 2 14 moralSelf immoralSelf mismatch m m 1 0.6122 
06-May-2018_15:05:11 Exp 7305 18 male R 1 2 15 immoralOther immoralSelf mismatch m m 1 0.7173 
06-May-2018_15:05:13 Exp 7305 18 male R 1 2 16 moralOther moralSelf mismatch m m 1 0.7644 
06-May-2018_15:05:16 Exp 7305 18 male R 1 2 17 moralSelf moralSelf match n n 1 0.8365 
06-May-2018_15:05:18 Exp 7305 18 male R 1 2 18 immoralSelf immoralSelf match n m 0 1.0061 
06-May-2018_15:05:20 Exp 7305 18 male R 1 2 19 immoralOther immoralOther match n n 1 0.6348 
06-May-2018_15:05:23 Exp 7305 18 male R 1 2 20 moralOther immoralOther mismatch m m 1 0.7324 
06-May-2018_15:05:25 Exp 7305 18 male R 1 2 21 immoralOther moralOther mismatch m m 1 0.6877 
06-May-2018_15:05:28 Exp 7305 18 male R 1 2 22 immoralOther immoralOther match n n 1 0.9622 
06-May-2018_15:05:30 Exp 7305 18 male R 1 2 23 immoralSelf immoralSelf match n n 1 0.6423 
06-May-2018_15:05:32 Exp 7305 18 male R 1 2 24 immoralSelf moralOther mismatch m m 1 0.8118 
Date Prac Sub Age Sex Hand Block Bin Trial Shape Label Match CorrResp Resp ACC RT
06-May-2018_15:10:38 Exp 7305 18 male R 1 1 1 immoralSelf immoralSelf match n j 2 0.9661 
06-May-2018_15:10:41 Exp 7305 18 male R 1 1 2 moralOther immoralOther mismatch m NA -1 1.0841 
06-May-2018_15:10:43 Exp 7305 18 male R 1 1 3 moralOther moralSelf mismatch m n 0 0.7687 
06-May-2018_15:10:45 Exp 7305 18 male R 1 1 4 immoralSelf immoralSelf match n n 1 0.6409 
06-May-2018_15:10:48 Exp 7305 18 male R 1 1 5 moralOther moralOther match n n 1 0.6264 
06-May-2018_15:10:50 Exp 7305 18 male R 1 1 6 moralSelf immoralSelf mismatch m m 1 0.6956 
06-May-2018_15:10:52 Exp 7305 18 male R 1 1 7 immoralSelf immoralSelf match n n 1 0.5743 
06-May-2018_15:10:55 Exp 7305 18 male R 1 1 8 moralSelf immoralOther mismatch m m 1 0.7467 
06-May-2018_15:10:57 Exp 7305 18 male R 1 1 9 moralSelf immoralSelf mismatch m n 0 0.7542 
06-May-2018_15:10:59 Exp 7305 18 male R 1 1 10 immoralOther immoralOther match n n 1 0.6781 
06-May-2018_15:11:02 Exp 7305 18 male R 1 1 11 immoralOther moralSelf mismatch m m 1 0.6284 
06-May-2018_15:11:04 Exp 7305 18 male R 1 1 12 immoralOther moralSelf mismatch m m 1 0.8576 
06-May-2018_15:11:07 Exp 7305 18 male R 1 1 13 moralSelf moralSelf match n n 1 0.9556 
06-May-2018_15:11:09 Exp 7305 18 male R 1 1 14 immoralSelf moralSelf mismatch m m 1 0.7275 
06-May-2018_15:11:11 Exp 7305 18 male R 1 1 15 moralSelf moralSelf match n n 1 0.4989 
06-May-2018_15:11:13 Exp 7305 18 male R 1 1 16 immoralOther immoralOther match n n 1 0.5295 
06-May-2018_15:11:16 Exp 7305 18 male R 1 1 17 moralOther moralOther match n n 1 0.8210 
06-May-2018_15:11:18 Exp 7305 18 male R 1 1 18 moralSelf moralSelf match n n 1 0.5943 
06-May-2018_15:11:20 Exp 7305 18 male R 1 1 19 moralOther moralOther match n n 1 0.5308 
06-May-2018_15:11:23 Exp 7305 18 male R 1 1 20 immoralOther immoralSelf mismatch m NA -1 1.0841 
06-May-2018_15:11:25 Exp 7305 18 male R 1 1 21 immoralOther immoralOther match n n 1 0.7607 
06-May-2018_15:11:28 Exp 7305 18 male R 1 1 22 moralOther immoralSelf mismatch m m 1 0.6605 
06-May-2018_15:11:30 Exp 7305 18 male R 1 1 23 immoralSelf moralOther mismatch m m 1 0.8465 
06-May-2018_15:11:32 Exp 7305 18 male R 1 1 24 immoralSelf immoralOther mismatch m m 1 0.6842 
06-May-2018_15:11:35 Exp 7305 18 male R 1 2 1 immoralSelf immoralSelf match n n 1 0.6547 
06-May-2018_15:11:37 Exp 7305 18 male R 1 2 2 immoralOther moralOther mismatch m m 1 0.8044 
06-May-2018_15:11:39 Exp 7305 18 male R 1 2 3 immoralOther moralOther mismatch m m 1 0.7772 
06-May-2018_15:11:42 Exp 7305 18 male R 1 2 4 moralOther moralOther match n n 1 0.9256 
06-May-2018_15:11:45 Exp 7305 18 male R 1 2 5 immoralSelf moralSelf mismatch m NA -1 1.0841 
06-May-2018_15:11:47 Exp 7305 18 male R 1 2 6 immoralSelf moralOther mismatch m NA -1 1.0841 
06-May-2018_15:11:50 Exp 7305 18 male R 1 2 7 immoralOther immoralOther match n n 1 0.6416 
06-May-2018_15:11:52 Exp 7305 18 male R 1 2 8 moralSelf moralSelf match n n 1 0.5233 
06-May-2018_15:11:54 Exp 7305 18 male R 1 2 9 immoralSelf immoralSelf match n n 1 0.6583 
06-May-2018_15:11:56 Exp 7305 18 male R 1 2 10 immoralSelf immoralSelf match n n 1 0.5324 
06-May-2018_15:11:59 Exp 7305 18 male R 1 2 11 moralSelf immoralSelf mismatch m m 1 0.5837 
06-May-2018_15:12:01 Exp 7305 18 male R 1 2 12 moralSelf moralSelf match n n 1 0.3800 
06-May-2018_15:12:03 Exp 7305 18 male R 1 2 13 moralSelf moralOther mismatch m m 1 0.5683 
06-May-2018_15:12:05 Exp 7305 18 male R 1 2 14 moralSelf immoralSelf mismatch m m 1 0.7125 
06-May-2018_15:12:07 Exp 7305 18 male R 1 2 15 immoralSelf moralSelf mismatch m m 1 0.7154 
06-May-2018_15:12:10 Exp 7305 18 male R 1 2 16 moralOther immoralSelf mismatch m m 1 0.8505 
06-May-2018_15:12:12 Exp 7305 18 male R 1 2 17 moralOther immoralOther mismatch m m 1 0.8163 
06-May-2018_15:12:15 Exp 7305 18 male R 1 2 18 immoralOther moralSelf mismatch m NA -1 1.0841 
06-May-2018_15:12:18 Exp 7305 18 male R 1 2 19 moralOther moralSelf mismatch m NA -1 1.0841 
06-May-2018_15:12:20 Exp 7305 18 male R 1 2 20 immoralOther immoralOther match n n 1 0.5423 
06-May-2018_15:12:22 Exp 7305 18 male R 1 2 21 moralOther moralOther match n n 1 0.7178 
06-May-2018_15:12:25 Exp 7305 18 male R 1 2 22 immoralOther immoralOther match n n 1 0.9010 
06-May-2018_15:12:27 Exp 7305 18 male R 1 2 23 moralSelf moralSelf match n n 1 0.4837 
06-May-2018_15:12:29 Exp 7305 18 male R 1 2 24 moralOther moralOther match n n 1 0.4221 
Date Prac Sub Age Sex Hand Block Bin Trial Shape Label Match CorrResp Resp ACC RT
06-May-2018_15:17:24 Exp 7305 18 male R 1 1 1 moralOther moralOther match n n 1 0.8235 
06-May-2018_15:17:27 Exp 7305 18 male R 1 1 2 moralSelf immoralOther mismatch m m 1 0.9409 
06-May-2018_15:17:30 Exp 7305 18 male R 1 1 3 moralOther moralSelf mismatch m NA -1 1.0841 
06-May-2018_15:17:32 Exp 7305 18 male R 1 1 4 moralOther immoralSelf mismatch m m 1 1.0070 
06-May-2018_15:17:35 Exp 7305 18 male R 1 1 5 immoralOther moralSelf mismatch m m 1 0.7878 
06-May-2018_15:17:37 Exp 7305 18 male R 1 1 6 moralOther immoralSelf mismatch m m 1 0.5724 
06-May-2018_15:17:39 Exp 7305 18 male R 1 1 7 immoralOther immoralOther match n n 1 0.6286 
06-May-2018_15:17:41 Exp 7305 18 male R 1 1 8 immoralOther moralSelf mismatch m m 1 0.4977 
06-May-2018_15:17:44 Exp 7305 18 male R 1 1 9 immoralSelf moralSelf mismatch m n 0 0.6325 
06-May-2018_15:17:46 Exp 7305 18 male R 1 1 10 immoralOther immoralOther match n m 0 0.5059 
06-May-2018_15:17:48 Exp 7305 18 male R 1 1 11 immoralSelf immoralSelf match n n 1 0.5648 
06-May-2018_15:17:51 Exp 7305 18 male R 1 1 12 moralSelf moralOther mismatch m NA -1 1.0841 
06-May-2018_15:17:53 Exp 7305 18 male R 1 1 13 immoralOther immoralOther match n n 1 0.7515 
06-May-2018_15:17:56 Exp 7305 18 male R 1 1 14 moralSelf immoralOther mismatch m m 1 0.9873 
06-May-2018_15:17:58 Exp 7305 18 male R 1 1 15 immoralSelf immoralSelf match n NA -1 1.0841 
06-May-2018_15:18:01 Exp 7305 18 male R 1 1 16 immoralOther moralSelf mismatch m NA -1 1.0841 
06-May-2018_15:18:03 Exp 7305 18 male R 1 1 17 immoralSelf immoralSelf match n n 1 0.5208 
06-May-2018_15:18:05 Exp 7305 18 male R 1 1 18 immoralSelf moralSelf mismatch m m 1 0.6639 
06-May-2018_15:18:08 Exp 7305 18 male R 1 1 19 immoralSelf moralSelf mismatch m n 0 0.8899 
06-May-2018_15:18:10 Exp 7305 18 male R 1 1 20 moralOther moralOther match n n 1 0.5724 
06-May-2018_15:18:12 Exp 7305 18 male R 1 1 21 moralSelf moralSelf match n n 1 0.5485 
06-May-2018_15:18:15 Exp 7305 18 male R 1 1 22 moralSelf moralSelf match n n 1 0.6200 
06-May-2018_15:18:17 Exp 7305 18 male R 1 1 23 moralSelf moralSelf match n n 1 0.4771 
06-May-2018_15:18:19 Exp 7305 18 male R 1 1 24 moralOther moralOther match n n 1 0.5794 
06-May-2018_15:18:21 Exp 7305 18 male R 1 2 1 immoralSelf moralOther mismatch m m 1 0.6238 
06-May-2018_15:18:24 Exp 7305 18 male R 1 2 2 immoralSelf immoralSelf match n n 1 0.9089 
06-May-2018_15:18:26 Exp 7305 18 male R 1 2 3 moralOther immoralOther mismatch m n 0 1.0558 
06-May-2018_15:18:29 Exp 7305 18 male R 1 2 4 immoralOther immoralOther match n n 1 0.8738 
06-May-2018_15:18:31 Exp 7305 18 male R 1 2 5 immoralOther moralSelf mismatch m m 1 0.6321 
06-May-2018_15:18:33 Exp 7305 18 male R 1 2 6 immoralOther immoralOther match n n 1 0.5253 
06-May-2018_15:18:35 Exp 7305 18 male R 1 2 7 moralOther moralOther match n n 1 0.4125 
06-May-2018_15:18:38 Exp 7305 18 male R 1 2 8 immoralOther immoralSelf mismatch m NA -1 1.0841 
06-May-2018_15:18:40 Exp 7305 18 male R 1 2 9 moralOther moralOther match n n 1 0.6320 
06-May-2018_15:18:43 Exp 7305 18 male R 1 2 10 immoralSelf immoralSelf match n n 1 0.7333 
06-May-2018_15:18:45 Exp 7305 18 male R 1 2 11 moralSelf immoralOther mismatch m m 1 0.8726 
06-May-2018_15:18:47 Exp 7305 18 male R 1 2 12 immoralSelf moralSelf mismatch m n 0 0.5028 
06-May-2018_15:18:50 Exp 7305 18 male R 1 2 13 immoralSelf immoralSelf match n n 1 0.5016 
06-May-2018_15:18:52 Exp 7305 18 male R 1 2 14 moralSelf immoralOther mismatch m m 1 0.6442 
06-May-2018_15:18:54 Exp 7305 18 male R 1 2 15 moralOther moralOther match n n 1 0.4259 
06-May-2018_15:18:56 Exp 7305 18 male R 1 2 16 moralSelf moralSelf match n n 1 0.5513 
06-May-2018_15:18:58 Exp 7305 18 male R 1 2 17 moralOther moralSelf mismatch m m 1 0.6591 
06-May-2018_15:19:00 Exp 7305 18 male R 1 2 18 moralSelf moralSelf match n n 1 0.4131 
06-May-2018_15:19:03 Exp 7305 18 male R 1 2 19 moralSelf immoralSelf mismatch m m 1 0.6540 
06-May-2018_15:19:05 Exp 7305 18 male R 1 2 20 moralOther immoralSelf mismatch m m 1 0.6919 
06-May-2018_15:19:07 Exp 7305 18 male R 1 2 21 immoralSelf moralSelf mismatch m m 1 0.7544 
06-May-2018_15:19:10 Exp 7305 18 male R 1 2 22 immoralOther immoralSelf mismatch m m 1 0.8064 
06-May-2018_15:19:12 Exp 7305 18 male R 1 2 23 moralSelf moralSelf match n n 1 0.5313 
06-May-2018_15:19:15 Exp 7305 18 male R 1 2 24 immoralOther immoralOther match n n 1 0.9025 
Date Prac Sub Age Sex Hand Block Bin Trial Shape Label Match CorrResp Resp ACC RT
06-May-2018_15:24:46 Exp 7305 18 male R 1 1 1 immoralOther moralOther mismatch m m 1 0.6293 
06-May-2018_15:24:48 Exp 7305 18 male R 1 1 2 immoralOther immoralOther match n n 1 0.4586 
06-May-2018_15:24:50 Exp 7305 18 male R 1 1 3 moralOther moralOther match n n 1 0.5646 
06-May-2018_15:24:52 Exp 7305 18 male R 1 1 4 moralOther moralOther match n n 1 0.4126 
06-May-2018_15:24:54 Exp 7305 18 male R 1 1 5 moralOther moralOther match n n 1 0.5096 
06-May-2018_15:24:57 Exp 7305 18 male R 1 1 6 immoralSelf moralSelf mismatch m m 1 0.6725 
06-May-2018_15:24:59 Exp 7305 18 male R 1 1 7 moralSelf moralSelf match n n 1 0.4949 
06-May-2018_15:25:01 Exp 7305 18 male R 1 1 8 immoralOther immoralOther match n n 1 0.6455 
06-May-2018_15:25:03 Exp 7305 18 male R 1 1 9 moralOther immoralOther mismatch m m 1 0.5872 
06-May-2018_15:25:06 Exp 7305 18 male R 1 1 10 moralOther moralSelf mismatch m n 0 0.6039 
06-May-2018_15:25:08 Exp 7305 18 male R 1 1 11 immoralOther immoralSelf mismatch m m 1 0.8326 
06-May-2018_15:25:10 Exp 7305 18 male R 1 1 12 immoralSelf moralSelf mismatch m m 1 0.6501 
06-May-2018_15:25:13 Exp 7305 18 male R 1 1 13 moralSelf immoralSelf mismatch m m 1 0.6158 
06-May-2018_15:25:15 Exp 7305 18 male R 1 1 14 moralSelf moralSelf match n n 1 0.7289 
06-May-2018_15:25:17 Exp 7305 18 male R 1 1 15 moralSelf moralOther mismatch m n 0 0.6043 
06-May-2018_15:25:19 Exp 7305 18 male R 1 1 16 immoralOther immoralOther match n n 1 0.6491 
06-May-2018_15:25:22 Exp 7305 18 male R 1 1 17 immoralSelf immoralSelf match n n 1 0.7588 
06-May-2018_15:25:24 Exp 7305 18 male R 1 1 18 immoralSelf immoralSelf match n n 1 0.4588 
06-May-2018_15:25:26 Exp 7305 18 male R 1 1 19 moralOther immoralOther mismatch m m 1 0.6607 
06-May-2018_15:25:29 Exp 7305 18 male R 1 1 20 immoralSelf moralOther mismatch m m 1 0.7267 
06-May-2018_15:25:31 Exp 7305 18 male R 1 1 21 immoralSelf immoralSelf match n n 1 0.6181 
06-May-2018_15:25:33 Exp 7305 18 male R 1 1 22 moralSelf moralOther mismatch m n 0 0.4510 
06-May-2018_15:25:35 Exp 7305 18 male R 1 1 23 moralSelf moralSelf match n m 0 0.7369 
06-May-2018_15:25:38 Exp 7305 18 male R 1 1 24 immoralOther moralOther mismatch m m 1 0.8441 
06-May-2018_15:25:40 Exp 7305 18 male R 1 2 1 immoralOther immoralSelf mismatch m m 1 0.9539 
06-May-2018_15:25:43 Exp 7305 18 male R 1 2 2 moralSelf immoralSelf mismatch m m 1 0.6538 
06-May-2018_15:25:45 Exp 7305 18 male R 1 2 3 immoralSelf moralSelf mismatch m n 0 0.5876 
06-May-2018_15:25:47 Exp 7305 18 male R 1 2 4 moralOther moralOther match n n 1 0.5481 
06-May-2018_15:25:49 Exp 7305 18 male R 1 2 5 immoralSelf immoralSelf match n n 1 0.4917 
06-May-2018_15:25:51 Exp 7305 18 male R 1 2 6 moralSelf moralSelf match n n 1 0.5144 
06-May-2018_15:25:54 Exp 7305 18 male R 1 2 7 moralSelf immoralOther mismatch m m 1 0.6773 
06-May-2018_15:25:56 Exp 7305 18 male R 1 2 8 immoralOther moralSelf mismatch m m 1 0.8436 
06-May-2018_15:25:58 Exp 7305 18 male R 1 2 9 immoralSelf immoralSelf match n n 1 0.7011 
06-May-2018_15:26:01 Exp 7305 18 male R 1 2 10 moralSelf immoralSelf mismatch m m 1 0.5877 
06-May-2018_15:26:03 Exp 7305 18 male R 1 2 11 immoralOther moralOther mismatch m m 1 0.7883 
06-May-2018_15:26:05 Exp 7305 18 male R 1 2 12 moralSelf moralSelf match n n 1 0.4449 
06-May-2018_15:26:07 Exp 7305 18 male R 1 2 13 moralOther immoralSelf mismatch m m 1 0.7305 
06-May-2018_15:26:10 Exp 7305 18 male R 1 2 14 immoralOther immoralOther match n n 1 0.7100 
06-May-2018_15:26:12 Exp 7305 18 male R 1 2 15 moralOther immoralOther mismatch m m 1 0.6569 
06-May-2018_15:26:14 Exp 7305 18 male R 1 2 16 immoralOther immoralOther match n n 1 0.6749 
06-May-2018_15:26:17 Exp 7305 18 male R 1 2 17 moralOther moralOther match n n 1 0.9531 
06-May-2018_15:26:20 Exp 7305 18 male R 1 2 18 immoralSelf immoralOther mismatch m NA -1 1.0841 
06-May-2018_15:26:22 Exp 7305 18 male R 1 2 19 immoralSelf immoralSelf match n n 1 0.4954 
06-May-2018_15:26:24 Exp 7305 18 male R 1 2 20 moralOther immoralSelf mismatch m m 1 0.7662 
06-May-2018_15:26:27 Exp 7305 18 male R 1 2 21 immoralSelf moralSelf mismatch m n 0 0.6863 
06-May-2018_15:26:29 Exp 7305 18 male R 1 2 22 immoralOther immoralOther match n n 1 0.6247 
06-May-2018_15:26:31 Exp 7305 18 male R 1 2 23 moralOther moralOther match n n 1 0.7020 
06-May-2018_15:26:33 Exp 7305 18 male R 1 2 24 moralSelf moralSelf match n n 1 0.7246 
Date Prac Sub Age Sex Hand Block Bin Trial Shape Label Match CorrResp Resp ACC RT
06-May-2018_15:32:26 Exp 7305 18 male R 1 1 1 immoralOther moralOther mismatch m m 1 0.9736 
06-May-2018_15:32:28 Exp 7305 18 male R 1 1 2 immoralOther immoralSelf mismatch m m 1 0.7540 
06-May-2018_15:32:30 Exp 7305 18 male R 1 1 3 immoralSelf immoralSelf match n n 1 0.5499 
06-May-2018_15:32:33 Exp 7305 18 male R 1 1 4 immoralOther immoralOther match n n 1 0.6055 
06-May-2018_15:32:35 Exp 7305 18 male R 1 1 5 moralOther immoralSelf mismatch m m 1 0.8503 
06-May-2018_15:32:37 Exp 7305 18 male R 1 1 6 immoralSelf immoralSelf match n n 1 0.5921 
06-May-2018_15:32:40 Exp 7305 18 male R 1 1 7 moralSelf moralSelf match n n 1 0.6965 
06-May-2018_15:32:42 Exp 7305 18 male R 1 1 8 moralOther moralOther match n n 1 0.7673 
06-May-2018_15:32:44 Exp 7305 18 male R 1 1 9 immoralSelf immoralOther mismatch m m 1 0.6074 
06-May-2018_15:32:46 Exp 7305 18 male R 1 1 10 moralOther moralOther match n n 1 0.4602 
06-May-2018_15:32:49 Exp 7305 18 male R 1 1 11 immoralSelf immoralOther mismatch m m 1 0.6301 
06-May-2018_15:32:51 Exp 7305 18 male R 1 1 12 moralOther immoralOther mismatch m n 0 0.5394 
06-May-2018_15:32:53 Exp 7305 18 male R 1 1 13 moralSelf immoralSelf mismatch m n 0 0.7870 
06-May-2018_15:32:56 Exp 7305 18 male R 1 1 14 moralOther immoralOther mismatch m NA -1 1.0841 
06-May-2018_15:32:58 Exp 7305 18 male R 1 1 15 moralSelf moralSelf match n n 1 0.5981 
06-May-2018_15:33:01 Exp 7305 18 male R 1 1 16 immoralSelf immoralOther mismatch m m 1 0.7709 
06-May-2018_15:33:03 Exp 7305 18 male R 1 1 17 immoralSelf immoralSelf match n n 1 0.6271 
06-May-2018_15:33:05 Exp 7305 18 male R 1 1 18 moralSelf moralOther mismatch m n 0 0.5763 
06-May-2018_15:33:07 Exp 7305 18 male R 1 1 19 immoralOther moralOther mismatch m m 1 0.6046 
06-May-2018_15:33:10 Exp 7305 18 male R 1 1 20 moralSelf moralSelf match n n 1 0.5533 
06-May-2018_15:33:12 Exp 7305 18 male R 1 1 21 immoralOther immoralOther match n n 1 0.6692 
06-May-2018_15:33:14 Exp 7305 18 male R 1 1 22 immoralOther immoralOther match n n 1 0.6116 
06-May-2018_15:33:16 Exp 7305 18 male R 1 1 23 moralSelf immoralOther mismatch m m 1 0.5885 
06-May-2018_15:33:18 Exp 7305 18 male R 1 1 24 moralOther moralOther match n n 1 0.4772 
06-May-2018_15:33:21 Exp 7305 18 male R 1 2 1 immoralOther immoralOther match n n 1 0.7713 
06-May-2018_15:33:23 Exp 7305 18 male R 1 2 2 moralOther moralOther match n n 1 0.5233 
06-May-2018_15:33:26 Exp 7305 18 male R 1 2 3 immoralOther immoralOther match n n 1 1.0345 
06-May-2018_15:33:28 Exp 7305 18 male R 1 2 4 moralSelf moralSelf match n n 1 0.5560 
06-May-2018_15:33:30 Exp 7305 18 male R 1 2 5 moralSelf moralSelf match n n 1 0.4400 
06-May-2018_15:33:32 Exp 7305 18 male R 1 2 6 immoralSelf moralSelf mismatch m n 0 0.7534 
06-May-2018_15:33:35 Exp 7305 18 male R 1 2 7 immoralSelf immoralOther mismatch m m 1 0.6612 
06-May-2018_15:33:37 Exp 7305 18 male R 1 2 8 immoralOther moralOther mismatch m m 1 0.7832 
06-May-2018_15:33:40 Exp 7305 18 male R 1 2 9 moralSelf immoralSelf mismatch m NA -1 1.0841 
06-May-2018_15:33:42 Exp 7305 18 male R 1 2 10 immoralOther immoralOther match n n 1 0.7501 
06-May-2018_15:33:44 Exp 7305 18 male R 1 2 11 moralOther moralOther match n n 1 0.6819 
06-May-2018_15:33:47 Exp 7305 18 male R 1 2 12 moralOther immoralOther mismatch m m 1 0.6523 
06-May-2018_15:33:49 Exp 7305 18 male R 1 2 13 moralSelf moralOther mismatch m n 0 0.4741 
06-May-2018_15:33:51 Exp 7305 18 male R 1 2 14 immoralSelf immoralOther mismatch m m 1 0.7204 
06-May-2018_15:33:54 Exp 7305 18 male R 1 2 15 moralOther immoralSelf mismatch m n 0 0.7515 
06-May-2018_15:33:56 Exp 7305 18 male R 1 2 16 moralOther moralSelf mismatch m n 0 0.9473 
06-May-2018_15:33:59 Exp 7305 18 male R 1 2 17 immoralOther moralSelf mismatch m m 1 1.0270 
06-May-2018_15:34:01 Exp 7305 18 male R 1 2 18 immoralSelf immoralSelf match n n 1 0.6082 
06-May-2018_15:34:03 Exp 7305 18 male R 1 2 19 moralSelf moralOther mismatch m m 1 0.7330 
06-May-2018_15:34:06 Exp 7305 18 male R 1 2 20 immoralSelf immoralSelf match n n 1 0.6724 
06-May-2018_15:34:08 Exp 7305 18 male R 1 2 21 moralOther moralOther match n n 1 0.8707 
06-May-2018_15:34:11 Exp 7305 18 male R 1 2 22 immoralSelf immoralSelf match n n 1 0.9169 
06-May-2018_15:34:13 Exp 7305 18 male R 1 2 23 moralSelf moralSelf match n n 1 0.6040 
06-May-2018_15:34:15 Exp 7305 18 male R 1 2 24 immoralOther moralSelf mismatch m n 0 0.7129 
