Date Prac Sub Age Sex Hand Block Bin Trial Shape Label Match CorrResp Resp ACC RT
30-May-2018_15:34:36 Exp 7331 19 male R 1 1 1 moralOther moralOther match n m 0 0.7950 
30-May-2018_15:34:38 Exp 7331 19 male R 1 1 2 moralSelf moralSelf match n n 1 0.5566 
30-May-2018_15:34:40 Exp 7331 19 male R 1 1 3 immoralSelf moralSelf mismatch m m 1 0.7054 
30-May-2018_15:34:42 Exp 7331 19 male R 1 1 4 immoralOther moralSelf mismatch m m 1 0.7493 
30-May-2018_15:34:44 Exp 7331 19 male R 1 1 5 moralOther moralSelf mismatch m m 1 0.6778 
30-May-2018_15:34:46 Exp 7331 19 male R 1 1 6 moralSelf immoralSelf mismatch m m 1 0.7650 
30-May-2018_15:34:49 Exp 7331 19 male R 1 1 7 immoralSelf immoralSelf match n m 0 0.6459 
30-May-2018_15:34:51 Exp 7331 19 male R 1 1 8 immoralOther immoralSelf mismatch m m 1 0.9006 
30-May-2018_15:34:53 Exp 7331 19 male R 1 1 9 moralSelf immoralOther mismatch m m 1 0.5963 
30-May-2018_15:34:55 Exp 7331 19 male R 1 1 10 immoralSelf immoralSelf match n m 0 0.7497 
30-May-2018_15:34:58 Exp 7331 19 male R 1 1 11 immoralSelf moralSelf mismatch m n 0 0.8943 
30-May-2018_15:35:00 Exp 7331 19 male R 1 1 12 moralOther moralOther match n n 1 0.6859 
30-May-2018_15:35:02 Exp 7331 19 male R 1 1 13 moralOther immoralOther mismatch m m 1 0.6413 
30-May-2018_15:35:04 Exp 7331 19 male R 1 1 14 moralOther moralSelf mismatch m m 1 0.6357 
30-May-2018_15:35:06 Exp 7331 19 male R 1 1 15 moralSelf moralSelf match n n 1 0.4862 
30-May-2018_15:35:08 Exp 7331 19 male R 1 1 16 immoralOther immoralOther match n m 0 0.7375 
30-May-2018_15:35:10 Exp 7331 19 male R 1 1 17 moralOther moralOther match n n 1 0.7578 
30-May-2018_15:35:13 Exp 7331 19 male R 1 1 18 immoralOther immoralSelf mismatch m m 1 0.6586 
30-May-2018_15:35:15 Exp 7331 19 male R 1 1 19 moralSelf moralOther mismatch m n 0 0.5975 
30-May-2018_15:35:17 Exp 7331 19 male R 1 1 20 immoralOther immoralOther match n m 0 0.7712 
30-May-2018_15:35:19 Exp 7331 19 male R 1 1 21 immoralSelf moralOther mismatch m m 1 0.7243 
30-May-2018_15:35:21 Exp 7331 19 male R 1 1 22 immoralSelf immoralSelf match n n 1 0.7963 
30-May-2018_15:35:23 Exp 7331 19 male R 1 1 23 moralSelf moralSelf match n n 1 0.5258 
30-May-2018_15:35:26 Exp 7331 19 male R 1 1 24 immoralOther immoralOther match n n 1 1.0219 
30-May-2018_15:35:28 Exp 7331 19 male R 1 2 1 immoralOther moralSelf mismatch m m 1 0.6041 
30-May-2018_15:35:30 Exp 7331 19 male R 1 2 2 moralSelf immoralSelf mismatch m m 1 0.8498 
30-May-2018_15:35:33 Exp 7331 19 male R 1 2 3 moralSelf moralSelf match n n 1 0.9445 
30-May-2018_15:35:35 Exp 7331 19 male R 1 2 4 moralOther moralOther match n n 1 0.8571 
30-May-2018_15:35:37 Exp 7331 19 male R 1 2 5 immoralOther moralOther mismatch m n 0 0.7160 
30-May-2018_15:35:39 Exp 7331 19 male R 1 2 6 immoralSelf immoralSelf match n m 0 0.7561 
30-May-2018_15:35:41 Exp 7331 19 male R 1 2 7 immoralSelf moralSelf mismatch m n 0 0.4889 
30-May-2018_15:35:43 Exp 7331 19 male R 1 2 8 moralOther moralSelf mismatch m m 1 0.6203 
30-May-2018_15:35:46 Exp 7331 19 male R 1 2 9 moralOther moralSelf mismatch m m 1 0.6782 
30-May-2018_15:35:48 Exp 7331 19 male R 1 2 10 immoralSelf immoralSelf match n n 1 0.9014 
30-May-2018_15:35:50 Exp 7331 19 male R 1 2 11 moralSelf immoralOther mismatch m m 1 0.8450 
30-May-2018_15:35:53 Exp 7331 19 male R 1 2 12 moralOther moralOther match n n 1 0.8836 
30-May-2018_15:35:55 Exp 7331 19 male R 1 2 13 immoralSelf moralSelf mismatch m m 1 0.6791 
30-May-2018_15:35:57 Exp 7331 19 male R 1 2 14 moralOther moralOther match n m 0 0.5663 
30-May-2018_15:35:59 Exp 7331 19 male R 1 2 15 immoralOther immoralOther match n n 1 0.8392 
30-May-2018_15:36:01 Exp 7331 19 male R 1 2 16 moralSelf moralOther mismatch m m 1 0.6657 
30-May-2018_15:36:04 Exp 7331 19 male R 1 2 17 immoralOther immoralOther match n n 1 0.7725 
30-May-2018_15:36:06 Exp 7331 19 male R 1 2 18 moralOther moralSelf mismatch m m 1 0.7096 
30-May-2018_15:36:08 Exp 7331 19 male R 1 2 19 immoralOther immoralOther match n n 1 0.8174 
30-May-2018_15:36:10 Exp 7331 19 male R 1 2 20 immoralSelf moralOther mismatch m m 1 0.6354 
30-May-2018_15:36:12 Exp 7331 19 male R 1 2 21 moralSelf moralSelf match n n 1 0.5739 
30-May-2018_15:36:14 Exp 7331 19 male R 1 2 22 immoralSelf immoralSelf match n n 1 0.6831 
30-May-2018_15:36:17 Exp 7331 19 male R 1 2 23 immoralOther moralSelf mismatch m n 0 0.6465 
30-May-2018_15:36:19 Exp 7331 19 male R 1 2 24 moralSelf moralSelf match n n 1 0.5732 
30-May-2018_15:36:21 Exp 7331 19 male R 1 3 1 moralSelf immoralOther mismatch m m 1 0.7102 
30-May-2018_15:36:23 Exp 7331 19 male R 1 3 2 moralSelf moralSelf match n n 1 0.4901 
30-May-2018_15:36:25 Exp 7331 19 male R 1 3 3 moralSelf moralSelf match n n 1 0.7574 
30-May-2018_15:36:27 Exp 7331 19 male R 1 3 4 moralOther immoralSelf mismatch m m 1 0.4981 
30-May-2018_15:36:29 Exp 7331 19 male R 1 3 5 immoralSelf immoralSelf match n m 0 0.6977 
30-May-2018_15:36:31 Exp 7331 19 male R 1 3 6 immoralSelf moralOther mismatch m m 1 0.6494 
30-May-2018_15:36:33 Exp 7331 19 male R 1 3 7 immoralOther moralOther mismatch m n 0 0.7281 
30-May-2018_15:36:36 Exp 7331 19 male R 1 3 8 moralSelf immoralOther mismatch m m 1 0.6045 
30-May-2018_15:36:38 Exp 7331 19 male R 1 3 9 immoralOther immoralOther match n n 1 0.7381 
30-May-2018_15:36:40 Exp 7331 19 male R 1 3 10 immoralSelf moralSelf mismatch m m 1 0.6944 
30-May-2018_15:36:42 Exp 7331 19 male R 1 3 11 moralSelf moralSelf match n n 1 0.5581 
30-May-2018_15:36:44 Exp 7331 19 male R 1 3 12 moralOther moralOther match n m 0 0.5788 
30-May-2018_15:36:46 Exp 7331 19 male R 1 3 13 moralOther moralOther match n n 1 0.4321 
30-May-2018_15:36:48 Exp 7331 19 male R 1 3 14 moralSelf immoralOther mismatch m m 1 0.7583 
30-May-2018_15:36:50 Exp 7331 19 male R 1 3 15 immoralSelf immoralSelf match n m 0 0.7231 
30-May-2018_15:36:53 Exp 7331 19 male R 1 3 16 moralOther moralOther match n m 0 0.6911 
30-May-2018_15:36:55 Exp 7331 19 male R 1 3 17 immoralSelf immoralOther mismatch m m 1 0.6668 
30-May-2018_15:36:57 Exp 7331 19 male R 1 3 18 immoralOther immoralOther match n n 1 0.6936 
30-May-2018_15:36:59 Exp 7331 19 male R 1 3 19 moralOther immoralOther mismatch m m 1 0.9093 
30-May-2018_15:37:01 Exp 7331 19 male R 1 3 20 moralOther immoralSelf mismatch m m 1 0.7291 
30-May-2018_15:37:04 Exp 7331 19 male R 1 3 21 immoralOther immoralSelf mismatch m m 1 0.9174 
30-May-2018_15:37:06 Exp 7331 19 male R 1 3 22 immoralOther immoralSelf mismatch m n 0 0.9256 
30-May-2018_15:37:08 Exp 7331 19 male R 1 3 23 immoralSelf immoralSelf match n n 1 0.7096 
30-May-2018_15:37:10 Exp 7331 19 male R 1 3 24 immoralOther immoralOther match n m 0 0.5055 
30-May-2018_15:37:33 Exp 7331 19 male R 1 4 1 moralOther immoralSelf mismatch m m 1 0.6498 
30-May-2018_15:37:35 Exp 7331 19 male R 1 4 2 immoralOther immoralSelf mismatch m m 1 0.8084 
30-May-2018_15:37:37 Exp 7331 19 male R 1 4 3 moralSelf moralSelf match n n 1 0.4543 
30-May-2018_15:37:39 Exp 7331 19 male R 1 4 4 immoralSelf immoralSelf match n n 1 0.6049 
30-May-2018_15:37:41 Exp 7331 19 male R 1 4 5 moralSelf immoralSelf mismatch m m 1 0.7706 
30-May-2018_15:37:43 Exp 7331 19 male R 1 4 6 moralSelf immoralOther mismatch m m 1 0.7397 
30-May-2018_15:37:46 Exp 7331 19 male R 1 4 7 moralOther moralOther match n n 1 0.9402 
30-May-2018_15:37:48 Exp 7331 19 male R 1 4 8 immoralOther moralSelf mismatch m m 1 0.5888 
30-May-2018_15:37:50 Exp 7331 19 male R 1 4 9 immoralOther immoralOther match n m 0 0.5342 
30-May-2018_15:37:52 Exp 7331 19 male R 1 4 10 immoralOther immoralOther match n n 1 0.6026 
30-May-2018_15:37:54 Exp 7331 19 male R 1 4 11 moralOther immoralSelf mismatch m m 1 0.6403 
30-May-2018_15:37:56 Exp 7331 19 male R 1 4 12 immoralSelf moralSelf mismatch m n 0 0.4507 
30-May-2018_15:37:58 Exp 7331 19 male R 1 4 13 moralOther moralOther match n m 0 0.6014 
30-May-2018_15:38:00 Exp 7331 19 male R 1 4 14 immoralSelf moralSelf mismatch m m 1 0.7591 
30-May-2018_15:38:03 Exp 7331 19 male R 1 4 15 immoralOther moralSelf mismatch m m 1 1.0038 
30-May-2018_15:38:05 Exp 7331 19 male R 1 4 16 moralSelf moralSelf match n n 1 0.5697 
30-May-2018_15:38:07 Exp 7331 19 male R 1 4 17 immoralOther immoralOther match n NA -1 1.0231 
30-May-2018_15:38:09 Exp 7331 19 male R 1 4 18 immoralSelf immoralSelf match n m 0 0.6330 
30-May-2018_15:38:11 Exp 7331 19 male R 1 4 19 moralSelf moralSelf match n n 1 0.5314 
30-May-2018_15:38:13 Exp 7331 19 male R 1 4 20 immoralSelf immoralSelf match n m 0 0.5356 
30-May-2018_15:38:15 Exp 7331 19 male R 1 4 21 moralOther moralOther match n m 0 0.5320 
30-May-2018_15:38:18 Exp 7331 19 male R 1 4 22 immoralSelf moralSelf mismatch m m 1 0.7202 
30-May-2018_15:38:20 Exp 7331 19 male R 1 4 23 moralOther moralSelf mismatch m m 1 0.5683 
30-May-2018_15:38:22 Exp 7331 19 male R 1 4 24 moralSelf immoralOther mismatch m m 1 0.7214 
30-May-2018_15:38:24 Exp 7331 19 male R 1 5 1 moralOther immoralSelf mismatch m m 1 0.7054 
30-May-2018_15:38:26 Exp 7331 19 male R 1 5 2 moralOther moralSelf mismatch m m 1 0.7173 
30-May-2018_15:38:29 Exp 7331 19 male R 1 5 3 moralSelf immoralOther mismatch m m 1 0.7574 
30-May-2018_15:38:31 Exp 7331 19 male R 1 5 4 immoralOther immoralSelf mismatch m NA -1 1.0231 
30-May-2018_15:38:33 Exp 7331 19 male R 1 5 5 immoralSelf immoralSelf match n n 1 0.9284 
30-May-2018_15:38:36 Exp 7331 19 male R 1 5 6 immoralOther moralSelf mismatch m m 1 0.6687 
30-May-2018_15:38:38 Exp 7331 19 male R 1 5 7 immoralOther immoralOther match n n 1 0.8199 
30-May-2018_15:38:40 Exp 7331 19 male R 1 5 8 moralOther moralOther match n n 1 0.5578 
30-May-2018_15:38:42 Exp 7331 19 male R 1 5 9 moralOther moralOther match n m 0 0.6746 
30-May-2018_15:38:44 Exp 7331 19 male R 1 5 10 moralSelf moralSelf match n n 1 0.6578 
30-May-2018_15:38:47 Exp 7331 19 male R 1 5 11 immoralOther immoralOther match n n 1 0.7807 
30-May-2018_15:38:49 Exp 7331 19 male R 1 5 12 immoralSelf moralSelf mismatch m m 1 0.5859 
30-May-2018_15:38:51 Exp 7331 19 male R 1 5 13 immoralSelf moralSelf mismatch m m 1 0.5634 
30-May-2018_15:38:53 Exp 7331 19 male R 1 5 14 moralOther moralOther match n n 1 0.7324 
30-May-2018_15:38:55 Exp 7331 19 male R 1 5 15 immoralOther moralOther mismatch m n 0 0.7127 
30-May-2018_15:38:58 Exp 7331 19 male R 1 5 16 moralSelf immoralSelf mismatch m NA -1 1.0231 
30-May-2018_15:39:00 Exp 7331 19 male R 1 5 17 moralSelf moralSelf match n n 1 0.5148 
30-May-2018_15:39:02 Exp 7331 19 male R 1 5 18 immoralSelf immoralSelf match n m 0 0.7469 
30-May-2018_15:39:04 Exp 7331 19 male R 1 5 19 immoralSelf immoralSelf match n n 1 0.7554 
30-May-2018_15:39:06 Exp 7331 19 male R 1 5 20 moralSelf moralSelf match n n 1 0.5202 
30-May-2018_15:39:08 Exp 7331 19 male R 1 5 21 moralSelf moralOther mismatch m n 0 0.4883 
30-May-2018_15:39:10 Exp 7331 19 male R 1 5 22 moralOther moralSelf mismatch m m 1 0.6997 
30-May-2018_15:39:12 Exp 7331 19 male R 1 5 23 immoralOther immoralOther match n n 1 0.7793 
30-May-2018_15:39:15 Exp 7331 19 male R 1 5 24 immoralSelf moralOther mismatch m m 1 0.6646 
30-May-2018_15:39:20 Exp 7331 19 male R 2 1 1 moralOther moralOther match n NA -1 1.0231 
30-May-2018_15:39:22 Exp 7331 19 male R 2 1 2 moralSelf moralSelf match n n 1 0.5425 
30-May-2018_15:39:24 Exp 7331 19 male R 2 1 3 immoralSelf immoralOther mismatch m m 1 0.5750 
30-May-2018_15:39:26 Exp 7331 19 male R 2 1 4 immoralSelf moralSelf mismatch m n 0 0.5643 
30-May-2018_15:39:28 Exp 7331 19 male R 2 1 5 immoralSelf immoralSelf match n m 0 0.6534 
30-May-2018_15:39:30 Exp 7331 19 male R 2 1 6 immoralOther moralSelf mismatch m m 1 0.6359 
30-May-2018_15:39:33 Exp 7331 19 male R 2 1 7 immoralOther immoralOther match n n 1 0.6384 
30-May-2018_15:39:35 Exp 7331 19 male R 2 1 8 moralOther immoralSelf mismatch m m 1 0.5528 
30-May-2018_15:39:37 Exp 7331 19 male R 2 1 9 moralSelf immoralOther mismatch m n 0 0.5737 
30-May-2018_15:39:39 Exp 7331 19 male R 2 1 10 moralSelf immoralSelf mismatch m m 1 0.7469 
30-May-2018_15:39:41 Exp 7331 19 male R 2 1 11 moralOther moralOther match n n 1 0.7474 
30-May-2018_15:39:43 Exp 7331 19 male R 2 1 12 immoralOther immoralOther match n n 1 0.5560 
30-May-2018_15:39:45 Exp 7331 19 male R 2 1 13 immoralOther moralSelf mismatch m n 0 0.5288 
30-May-2018_15:39:47 Exp 7331 19 male R 2 1 14 moralSelf moralSelf match n n 1 0.5410 
30-May-2018_15:39:49 Exp 7331 19 male R 2 1 15 moralOther moralSelf mismatch m m 1 0.6696 
30-May-2018_15:39:52 Exp 7331 19 male R 2 1 16 immoralOther immoralOther match n n 1 0.7808 
30-May-2018_15:39:54 Exp 7331 19 male R 2 1 17 immoralOther moralOther mismatch m n 0 0.6100 
30-May-2018_15:39:56 Exp 7331 19 male R 2 1 18 moralSelf immoralSelf mismatch m m 1 0.8440 
30-May-2018_15:39:58 Exp 7331 19 male R 2 1 19 immoralSelf immoralSelf match n n 1 0.7424 
30-May-2018_15:40:00 Exp 7331 19 male R 2 1 20 immoralSelf immoralOther mismatch m m 1 0.7270 
30-May-2018_15:40:03 Exp 7331 19 male R 2 1 21 moralOther moralOther match n n 1 0.6193 
30-May-2018_15:40:05 Exp 7331 19 male R 2 1 22 immoralSelf immoralSelf match n m 0 0.5733 
30-May-2018_15:40:07 Exp 7331 19 male R 2 1 23 moralSelf moralSelf match n n 1 0.5582 
30-May-2018_15:40:09 Exp 7331 19 male R 2 1 24 moralOther moralSelf mismatch m m 1 0.7150 
30-May-2018_15:40:11 Exp 7331 19 male R 2 2 1 moralOther moralOther match n n 1 0.7391 
30-May-2018_15:40:13 Exp 7331 19 male R 2 2 2 moralOther immoralSelf mismatch m m 1 0.7317 
30-May-2018_15:40:16 Exp 7331 19 male R 2 2 3 moralOther moralOther match n m 0 0.8321 
30-May-2018_15:40:18 Exp 7331 19 male R 2 2 4 immoralSelf moralOther mismatch m NA -1 1.0231 
30-May-2018_15:40:20 Exp 7331 19 male R 2 2 5 immoralSelf immoralSelf match n n 1 0.7004 
30-May-2018_15:40:22 Exp 7331 19 male R 2 2 6 moralSelf moralSelf match n n 1 0.5241 
30-May-2018_15:40:24 Exp 7331 19 male R 2 2 7 moralOther moralSelf mismatch m m 1 0.6921 
30-May-2018_15:40:27 Exp 7331 19 male R 2 2 8 moralSelf immoralOther mismatch m n 0 0.6277 
30-May-2018_15:40:29 Exp 7331 19 male R 2 2 9 moralOther immoralSelf mismatch m n 0 0.8260 
30-May-2018_15:40:31 Exp 7331 19 male R 2 2 10 immoralOther immoralOther match n n 1 0.8482 
30-May-2018_15:40:33 Exp 7331 19 male R 2 2 11 immoralSelf moralOther mismatch m m 1 0.6068 
30-May-2018_15:40:35 Exp 7331 19 male R 2 2 12 immoralOther immoralSelf mismatch m m 1 0.7725 
30-May-2018_15:40:38 Exp 7331 19 male R 2 2 13 immoralOther immoralOther match n m 0 0.6776 
30-May-2018_15:40:40 Exp 7331 19 male R 2 2 14 immoralSelf immoralOther mismatch m n 0 0.6048 
30-May-2018_15:40:42 Exp 7331 19 male R 2 2 15 moralSelf immoralSelf mismatch m m 1 0.7945 
30-May-2018_15:40:44 Exp 7331 19 male R 2 2 16 moralSelf moralSelf match n n 1 0.5320 
30-May-2018_15:40:46 Exp 7331 19 male R 2 2 17 immoralOther immoralOther match n m 0 0.8562 
30-May-2018_15:40:48 Exp 7331 19 male R 2 2 18 moralOther moralOther match n m 0 0.6512 
30-May-2018_15:40:51 Exp 7331 19 male R 2 2 19 immoralSelf immoralSelf match n n 1 0.7218 
30-May-2018_15:40:53 Exp 7331 19 male R 2 2 20 moralSelf moralSelf match n n 1 0.5060 
30-May-2018_15:40:55 Exp 7331 19 male R 2 2 21 immoralOther moralSelf mismatch m m 1 0.9178 
30-May-2018_15:40:57 Exp 7331 19 male R 2 2 22 immoralSelf immoralSelf match n m 0 0.5657 
30-May-2018_15:40:59 Exp 7331 19 male R 2 2 23 moralSelf immoralSelf mismatch m m 1 0.7189 
30-May-2018_15:41:01 Exp 7331 19 male R 2 2 24 immoralOther moralSelf mismatch m m 1 0.7109 
30-May-2018_15:41:04 Exp 7331 19 male R 2 3 1 immoralSelf immoralSelf match n n 1 0.9068 
30-May-2018_15:41:06 Exp 7331 19 male R 2 3 2 moralOther moralOther match n n 1 0.7987 
30-May-2018_15:41:08 Exp 7331 19 male R 2 3 3 immoralOther immoralSelf mismatch m m 1 0.6524 
30-May-2018_15:41:10 Exp 7331 19 male R 2 3 4 immoralSelf immoralOther mismatch m n 0 0.7230 
30-May-2018_15:41:13 Exp 7331 19 male R 2 3 5 immoralSelf immoralOther mismatch m m 1 0.6831 
30-May-2018_15:41:15 Exp 7331 19 male R 2 3 6 moralOther moralOther match n n 1 0.7825 
30-May-2018_15:41:17 Exp 7331 19 male R 2 3 7 moralSelf immoralSelf mismatch m m 1 0.6518 
30-May-2018_15:41:19 Exp 7331 19 male R 2 3 8 moralOther moralSelf mismatch m m 1 0.9784 
30-May-2018_15:41:22 Exp 7331 19 male R 2 3 9 immoralSelf immoralSelf match n n 1 0.8717 
30-May-2018_15:41:24 Exp 7331 19 male R 2 3 10 moralSelf moralSelf match n n 1 0.5829 
30-May-2018_15:41:26 Exp 7331 19 male R 2 3 11 moralSelf moralOther mismatch m m 1 0.5881 
30-May-2018_15:41:28 Exp 7331 19 male R 2 3 12 moralSelf moralSelf match n n 1 0.5656 
30-May-2018_15:41:30 Exp 7331 19 male R 2 3 13 immoralOther immoralOther match n n 1 0.7266 
30-May-2018_15:41:32 Exp 7331 19 male R 2 3 14 moralSelf immoralOther mismatch m m 1 0.7309 
30-May-2018_15:41:35 Exp 7331 19 male R 2 3 15 moralOther immoralSelf mismatch m m 1 0.8793 
30-May-2018_15:41:37 Exp 7331 19 male R 2 3 16 immoralOther moralOther mismatch m n 0 0.7866 
30-May-2018_15:41:39 Exp 7331 19 male R 2 3 17 immoralOther immoralOther match n n 1 0.7562 
30-May-2018_15:41:42 Exp 7331 19 male R 2 3 18 immoralSelf moralOther mismatch m n 0 0.7769 
30-May-2018_15:41:44 Exp 7331 19 male R 2 3 19 moralOther moralOther match n n 1 0.7022 
30-May-2018_15:41:46 Exp 7331 19 male R 2 3 20 immoralOther moralSelf mismatch m m 1 0.7098 
30-May-2018_15:41:48 Exp 7331 19 male R 2 3 21 moralOther immoralSelf mismatch m NA -1 1.0231 
30-May-2018_15:41:51 Exp 7331 19 male R 2 3 22 immoralSelf immoralSelf match n m 0 0.7838 
30-May-2018_15:41:53 Exp 7331 19 male R 2 3 23 moralSelf moralSelf match n n 1 0.6452 
30-May-2018_15:41:55 Exp 7331 19 male R 2 3 24 immoralOther immoralOther match n m 0 0.8278 
30-May-2018_15:42:17 Exp 7331 19 male R 2 4 1 immoralOther immoralOther match n n 1 0.8522 
30-May-2018_15:42:19 Exp 7331 19 male R 2 4 2 moralSelf moralSelf match n n 1 0.6349 
30-May-2018_15:42:21 Exp 7331 19 male R 2 4 3 immoralSelf immoralSelf match n n 1 0.7173 
30-May-2018_15:42:24 Exp 7331 19 male R 2 4 4 moralOther immoralSelf mismatch m m 1 0.9813 
30-May-2018_15:42:26 Exp 7331 19 male R 2 4 5 immoralOther immoralOther match n m 0 0.9226 
30-May-2018_15:42:29 Exp 7331 19 male R 2 4 6 moralSelf immoralOther mismatch m m 1 0.9148 
30-May-2018_15:42:31 Exp 7331 19 male R 2 4 7 moralSelf moralSelf match n n 1 0.6588 
30-May-2018_15:42:33 Exp 7331 19 male R 2 4 8 immoralSelf moralOther mismatch m n 0 0.7337 
30-May-2018_15:42:35 Exp 7331 19 male R 2 4 9 moralOther moralOther match n m 0 0.7061 
30-May-2018_15:42:37 Exp 7331 19 male R 2 4 10 moralSelf immoralOther mismatch m m 1 0.7579 
30-May-2018_15:42:40 Exp 7331 19 male R 2 4 11 moralOther moralSelf mismatch m m 1 0.6907 
30-May-2018_15:42:42 Exp 7331 19 male R 2 4 12 immoralSelf immoralSelf match n n 1 0.9101 
30-May-2018_15:42:44 Exp 7331 19 male R 2 4 13 moralSelf moralOther mismatch m m 1 0.7619 
30-May-2018_15:42:47 Exp 7331 19 male R 2 4 14 immoralOther immoralOther match n n 1 0.8670 
30-May-2018_15:42:49 Exp 7331 19 male R 2 4 15 immoralOther moralOther mismatch m m 1 0.7898 
30-May-2018_15:42:51 Exp 7331 19 male R 2 4 16 immoralSelf moralOther mismatch m NA -1 1.0231 
30-May-2018_15:42:54 Exp 7331 19 male R 2 4 17 immoralOther moralSelf mismatch m m 1 0.7255 
30-May-2018_15:42:56 Exp 7331 19 male R 2 4 18 moralOther moralOther match n n 1 0.7896 
30-May-2018_15:42:58 Exp 7331 19 male R 2 4 19 immoralSelf immoralSelf match n m 0 0.6471 
30-May-2018_15:43:01 Exp 7331 19 male R 2 4 20 moralOther immoralOther mismatch m NA -1 1.0231 
30-May-2018_15:43:03 Exp 7331 19 male R 2 4 21 immoralOther immoralSelf mismatch m m 1 0.6440 
30-May-2018_15:43:05 Exp 7331 19 male R 2 4 22 immoralSelf moralOther mismatch m n 0 0.8187 
30-May-2018_15:43:07 Exp 7331 19 male R 2 4 23 moralSelf moralSelf match n n 1 0.5726 
30-May-2018_15:43:09 Exp 7331 19 male R 2 4 24 moralOther moralOther match n n 1 0.7418 
30-May-2018_15:43:12 Exp 7331 19 male R 2 5 1 immoralOther immoralOther match n n 1 0.9182 
30-May-2018_15:43:14 Exp 7331 19 male R 2 5 2 immoralSelf moralSelf mismatch m m 1 0.7743 
30-May-2018_15:43:16 Exp 7331 19 male R 2 5 3 immoralSelf moralOther mismatch m NA -1 1.0231 
30-May-2018_15:43:19 Exp 7331 19 male R 2 5 4 immoralOther moralSelf mismatch m m 1 0.6578 
30-May-2018_15:43:21 Exp 7331 19 male R 2 5 5 immoralOther moralOther mismatch m m 1 0.6927 
30-May-2018_15:43:23 Exp 7331 19 male R 2 5 6 moralSelf moralSelf match n n 1 0.5884 
30-May-2018_15:43:25 Exp 7331 19 male R 2 5 7 immoralSelf immoralOther mismatch m m 1 0.8218 
30-May-2018_15:43:27 Exp 7331 19 male R 2 5 8 moralSelf moralSelf match n n 1 0.5720 
30-May-2018_15:43:29 Exp 7331 19 male R 2 5 9 moralOther immoralOther mismatch m m 1 0.5731 
30-May-2018_15:43:31 Exp 7331 19 male R 2 5 10 immoralOther moralOther mismatch m m 1 0.6540 
30-May-2018_15:43:33 Exp 7331 19 male R 2 5 11 immoralSelf immoralSelf match n m 0 0.7088 
30-May-2018_15:43:36 Exp 7331 19 male R 2 5 12 immoralOther immoralOther match n n 1 0.8966 
30-May-2018_15:43:38 Exp 7331 19 male R 2 5 13 moralSelf immoralSelf mismatch m m 1 0.7122 
30-May-2018_15:43:40 Exp 7331 19 male R 2 5 14 moralOther immoralSelf mismatch m m 1 0.8760 
30-May-2018_15:43:42 Exp 7331 19 male R 2 5 15 moralSelf moralSelf match n n 1 0.6031 
30-May-2018_15:43:45 Exp 7331 19 male R 2 5 16 moralSelf moralOther mismatch m m 1 0.7849 
30-May-2018_15:43:47 Exp 7331 19 male R 2 5 17 moralOther moralOther match n n 1 0.7262 
30-May-2018_15:43:49 Exp 7331 19 male R 2 5 18 moralOther moralOther match n n 1 0.7503 
30-May-2018_15:43:51 Exp 7331 19 male R 2 5 19 immoralOther immoralOther match n n 1 0.6830 
30-May-2018_15:43:54 Exp 7331 19 male R 2 5 20 immoralSelf immoralSelf match n m 0 0.9984 
30-May-2018_15:43:56 Exp 7331 19 male R 2 5 21 moralOther immoralSelf mismatch m m 1 0.8362 
30-May-2018_15:43:58 Exp 7331 19 male R 2 5 22 moralSelf immoralOther mismatch m m 1 0.7427 
30-May-2018_15:44:01 Exp 7331 19 male R 2 5 23 immoralSelf immoralSelf match n n 1 0.8552 
30-May-2018_15:44:03 Exp 7331 19 male R 2 5 24 moralOther moralOther match n n 1 0.8378 
30-May-2018_15:44:09 Exp 7331 19 male R 3 1 1 moralSelf immoralSelf mismatch m NA -1 1.0231 
30-May-2018_15:44:11 Exp 7331 19 male R 3 1 2 immoralSelf immoralSelf match n n 1 0.8032 
30-May-2018_15:44:13 Exp 7331 19 male R 3 1 3 moralOther moralOther match n m 0 0.8010 
30-May-2018_15:44:15 Exp 7331 19 male R 3 1 4 moralSelf moralSelf match n n 1 0.5908 
30-May-2018_15:44:17 Exp 7331 19 male R 3 1 5 moralOther moralOther match n m 0 0.6082 
30-May-2018_15:44:19 Exp 7331 19 male R 3 1 6 immoralOther immoralOther match n m 0 0.6620 
30-May-2018_15:44:22 Exp 7331 19 male R 3 1 7 moralOther moralOther match n n 1 0.6969 
30-May-2018_15:44:24 Exp 7331 19 male R 3 1 8 immoralSelf immoralSelf match n m 0 0.7206 
30-May-2018_15:44:26 Exp 7331 19 male R 3 1 9 immoralSelf moralSelf mismatch m m 1 0.8086 
30-May-2018_15:44:28 Exp 7331 19 male R 3 1 10 moralOther immoralSelf mismatch m m 1 0.5903 
30-May-2018_15:44:30 Exp 7331 19 male R 3 1 11 moralOther moralSelf mismatch m m 1 0.7118 
30-May-2018_15:44:32 Exp 7331 19 male R 3 1 12 moralOther moralSelf mismatch m m 1 0.5077 
30-May-2018_15:44:34 Exp 7331 19 male R 3 1 13 immoralOther immoralOther match n m 0 0.6315 
30-May-2018_15:44:36 Exp 7331 19 male R 3 1 14 immoralSelf immoralOther mismatch m n 0 0.5578 
30-May-2018_15:44:39 Exp 7331 19 male R 3 1 15 immoralOther moralSelf mismatch m m 1 0.5785 
30-May-2018_15:44:41 Exp 7331 19 male R 3 1 16 immoralOther immoralOther match n n 1 0.5917 
30-May-2018_15:44:43 Exp 7331 19 male R 3 1 17 immoralSelf immoralOther mismatch m m 1 0.7612 
30-May-2018_15:44:45 Exp 7331 19 male R 3 1 18 immoralSelf immoralSelf match n n 1 0.5501 
30-May-2018_15:44:47 Exp 7331 19 male R 3 1 19 immoralOther moralSelf mismatch m m 1 0.5387 
30-May-2018_15:44:49 Exp 7331 19 male R 3 1 20 moralSelf immoralOther mismatch m m 1 0.6914 
30-May-2018_15:44:51 Exp 7331 19 male R 3 1 21 moralSelf moralSelf match n n 1 0.4830 
30-May-2018_15:44:53 Exp 7331 19 male R 3 1 22 immoralOther moralSelf mismatch m m 1 0.6624 
30-May-2018_15:44:55 Exp 7331 19 male R 3 1 23 moralSelf moralOther mismatch m m 1 0.6412 
30-May-2018_15:44:57 Exp 7331 19 male R 3 1 24 moralSelf moralSelf match n n 1 0.7077 
30-May-2018_15:45:00 Exp 7331 19 male R 3 2 1 immoralOther immoralOther match n n 1 0.7196 
30-May-2018_15:45:02 Exp 7331 19 male R 3 2 2 immoralSelf immoralSelf match n n 1 0.7356 
30-May-2018_15:45:04 Exp 7331 19 male R 3 2 3 moralSelf moralSelf match n n 1 0.5799 
30-May-2018_15:45:06 Exp 7331 19 male R 3 2 4 moralOther moralOther match n m 0 0.7132 
30-May-2018_15:45:08 Exp 7331 19 male R 3 2 5 immoralOther immoralOther match n n 1 0.7090 
30-May-2018_15:45:11 Exp 7331 19 male R 3 2 6 immoralSelf immoralOther mismatch m m 1 0.8489 
30-May-2018_15:45:13 Exp 7331 19 male R 3 2 7 moralSelf moralSelf match n n 1 0.4635 
30-May-2018_15:45:15 Exp 7331 19 male R 3 2 8 immoralOther immoralOther match n n 1 0.7544 
30-May-2018_15:45:17 Exp 7331 19 male R 3 2 9 immoralOther moralOther mismatch m m 1 0.6792 
30-May-2018_15:45:19 Exp 7331 19 male R 3 2 10 immoralOther moralOther mismatch m m 1 0.8304 
30-May-2018_15:45:21 Exp 7331 19 male R 3 2 11 moralOther moralOther match n n 1 0.7246 
30-May-2018_15:45:24 Exp 7331 19 male R 3 2 12 immoralSelf immoralSelf match n n 1 0.8686 
30-May-2018_15:45:26 Exp 7331 19 male R 3 2 13 moralOther moralSelf mismatch m m 1 0.6839 
30-May-2018_15:45:28 Exp 7331 19 male R 3 2 14 immoralSelf immoralOther mismatch m m 1 0.9512 
30-May-2018_15:45:30 Exp 7331 19 male R 3 2 15 moralSelf moralSelf match n n 1 0.5720 
30-May-2018_15:45:33 Exp 7331 19 male R 3 2 16 immoralOther moralSelf mismatch m m 1 0.6770 
30-May-2018_15:45:35 Exp 7331 19 male R 3 2 17 moralSelf moralOther mismatch m m 1 0.8041 
30-May-2018_15:45:37 Exp 7331 19 male R 3 2 18 moralOther immoralOther mismatch m m 1 0.9219 
30-May-2018_15:45:40 Exp 7331 19 male R 3 2 19 moralSelf immoralOther mismatch m m 1 0.8260 
30-May-2018_15:45:42 Exp 7331 19 male R 3 2 20 moralSelf immoralSelf mismatch m m 1 0.8562 
30-May-2018_15:45:44 Exp 7331 19 male R 3 2 21 moralOther moralSelf mismatch m m 1 0.7710 
30-May-2018_15:45:46 Exp 7331 19 male R 3 2 22 moralOther moralOther match n n 1 0.7642 
30-May-2018_15:45:49 Exp 7331 19 male R 3 2 23 immoralSelf moralOther mismatch m m 1 0.6611 
30-May-2018_15:45:51 Exp 7331 19 male R 3 2 24 immoralSelf immoralSelf match n n 1 0.6641 
30-May-2018_15:45:53 Exp 7331 19 male R 3 3 1 moralOther moralOther match n n 1 0.8109 
30-May-2018_15:45:55 Exp 7331 19 male R 3 3 2 immoralSelf moralOther mismatch m n 0 0.6449 
30-May-2018_15:45:57 Exp 7331 19 male R 3 3 3 immoralSelf immoralSelf match n n 1 0.6996 
30-May-2018_15:45:59 Exp 7331 19 male R 3 3 4 immoralOther moralSelf mismatch m m 1 0.6592 
30-May-2018_15:46:02 Exp 7331 19 male R 3 3 5 moralSelf immoralSelf mismatch m m 1 0.7421 
30-May-2018_15:46:04 Exp 7331 19 male R 3 3 6 immoralSelf immoralSelf match n n 1 0.7266 
30-May-2018_15:46:06 Exp 7331 19 male R 3 3 7 moralOther moralOther match n n 1 0.6990 
30-May-2018_15:46:08 Exp 7331 19 male R 3 3 8 moralOther immoralSelf mismatch m m 1 0.7387 
30-May-2018_15:46:10 Exp 7331 19 male R 3 3 9 immoralOther immoralOther match n n 1 0.6112 
30-May-2018_15:46:12 Exp 7331 19 male R 3 3 10 moralSelf moralSelf match n n 1 0.6132 
30-May-2018_15:46:15 Exp 7331 19 male R 3 3 11 moralOther immoralSelf mismatch m m 1 0.9190 
30-May-2018_15:46:17 Exp 7331 19 male R 3 3 12 immoralSelf moralSelf mismatch m n 0 0.5991 
30-May-2018_15:46:19 Exp 7331 19 male R 3 3 13 immoralOther moralSelf mismatch m m 1 0.6688 
30-May-2018_15:46:21 Exp 7331 19 male R 3 3 14 moralOther moralSelf mismatch m m 1 0.6761 
30-May-2018_15:46:23 Exp 7331 19 male R 3 3 15 moralSelf moralOther mismatch m m 1 0.6592 
30-May-2018_15:46:26 Exp 7331 19 male R 3 3 16 moralSelf immoralOther mismatch m m 1 0.6221 
30-May-2018_15:46:28 Exp 7331 19 male R 3 3 17 immoralOther immoralOther match n n 1 0.7323 
30-May-2018_15:46:30 Exp 7331 19 male R 3 3 18 immoralOther immoralOther match n n 1 0.6806 
30-May-2018_15:46:32 Exp 7331 19 male R 3 3 19 moralSelf moralSelf match n n 1 0.6999 
30-May-2018_15:46:34 Exp 7331 19 male R 3 3 20 moralOther moralOther match n n 1 0.7316 
30-May-2018_15:46:37 Exp 7331 19 male R 3 3 21 immoralSelf immoralSelf match n NA -1 1.0231 
30-May-2018_15:46:39 Exp 7331 19 male R 3 3 22 moralSelf moralSelf match n n 1 0.5582 
30-May-2018_15:46:41 Exp 7331 19 male R 3 3 23 immoralSelf immoralOther mismatch m NA -1 1.0231 
30-May-2018_15:46:44 Exp 7331 19 male R 3 3 24 immoralOther moralOther mismatch m m 1 0.9211 
30-May-2018_15:47:00 Exp 7331 19 male R 3 4 1 moralSelf moralSelf match n n 1 0.4451 
30-May-2018_15:47:02 Exp 7331 19 male R 3 4 2 moralSelf moralOther mismatch m m 1 0.5798 
30-May-2018_15:47:05 Exp 7331 19 male R 3 4 3 immoralSelf moralSelf mismatch m m 1 0.7369 
30-May-2018_15:47:07 Exp 7331 19 male R 3 4 4 immoralOther moralOther mismatch m m 1 0.8453 
30-May-2018_15:47:09 Exp 7331 19 male R 3 4 5 immoralOther immoralSelf mismatch m m 1 0.9560 
30-May-2018_15:47:12 Exp 7331 19 male R 3 4 6 immoralSelf moralOther mismatch m n 0 0.8487 
30-May-2018_15:47:14 Exp 7331 19 male R 3 4 7 immoralOther immoralOther match n m 0 0.8075 
30-May-2018_15:47:17 Exp 7331 19 male R 3 4 8 immoralSelf immoralOther mismatch m m 1 1.0211 
30-May-2018_15:47:19 Exp 7331 19 male R 3 4 9 immoralOther immoralOther match n n 1 0.8193 
30-May-2018_15:47:21 Exp 7331 19 male R 3 4 10 moralOther moralOther match n m 0 0.7653 
30-May-2018_15:47:23 Exp 7331 19 male R 3 4 11 moralSelf moralSelf match n n 1 0.7343 
30-May-2018_15:47:26 Exp 7331 19 male R 3 4 12 moralOther immoralSelf mismatch m m 1 0.8507 
30-May-2018_15:47:28 Exp 7331 19 male R 3 4 13 moralOther moralOther match n n 1 0.6334 
30-May-2018_15:47:30 Exp 7331 19 male R 3 4 14 immoralOther moralSelf mismatch m m 1 0.6439 
30-May-2018_15:47:32 Exp 7331 19 male R 3 4 15 moralOther moralOther match n n 1 0.8462 
30-May-2018_15:47:35 Exp 7331 19 male R 3 4 16 immoralSelf immoralSelf match n m 0 1.0049 
30-May-2018_15:47:37 Exp 7331 19 male R 3 4 17 moralSelf immoralOther mismatch m m 1 0.8186 
30-May-2018_15:47:39 Exp 7331 19 male R 3 4 18 moralSelf moralSelf match n n 1 0.6126 
30-May-2018_15:47:41 Exp 7331 19 male R 3 4 19 immoralSelf immoralSelf match n n 1 0.7986 
30-May-2018_15:47:43 Exp 7331 19 male R 3 4 20 immoralSelf immoralSelf match n n 1 0.5644 
30-May-2018_15:47:46 Exp 7331 19 male R 3 4 21 moralSelf moralOther mismatch m m 1 0.7413 
30-May-2018_15:47:48 Exp 7331 19 male R 3 4 22 moralOther immoralSelf mismatch m m 1 0.7419 
30-May-2018_15:47:50 Exp 7331 19 male R 3 4 23 immoralOther immoralOther match n n 1 0.8304 
30-May-2018_15:47:52 Exp 7331 19 male R 3 4 24 moralOther immoralSelf mismatch m m 1 0.7886 
30-May-2018_15:47:55 Exp 7331 19 male R 3 5 1 moralOther moralSelf mismatch m m 1 0.7421 
30-May-2018_15:47:57 Exp 7331 19 male R 3 5 2 moralOther moralOther match n n 1 0.7987 
30-May-2018_15:47:59 Exp 7331 19 male R 3 5 3 moralSelf immoralOther mismatch m m 1 0.7325 
30-May-2018_15:48:02 Exp 7331 19 male R 3 5 4 immoralOther moralOther mismatch m m 1 0.8888 
30-May-2018_15:48:04 Exp 7331 19 male R 3 5 5 immoralSelf immoralSelf match n n 1 0.7881 
30-May-2018_15:48:06 Exp 7331 19 male R 3 5 6 moralOther immoralOther mismatch m m 1 0.7416 
30-May-2018_15:48:08 Exp 7331 19 male R 3 5 7 immoralOther immoralOther match n n 1 0.6462 
30-May-2018_15:48:11 Exp 7331 19 male R 3 5 8 moralSelf moralSelf match n n 1 0.9328 
30-May-2018_15:48:13 Exp 7331 19 male R 3 5 9 immoralSelf immoralSelf match n n 1 0.5212 
30-May-2018_15:48:15 Exp 7331 19 male R 3 5 10 immoralOther immoralSelf mismatch m n 0 0.6892 
30-May-2018_15:48:17 Exp 7331 19 male R 3 5 11 immoralOther immoralSelf mismatch m m 1 0.6686 
30-May-2018_15:48:19 Exp 7331 19 male R 3 5 12 immoralSelf moralOther mismatch m n 0 0.8838 
30-May-2018_15:48:21 Exp 7331 19 male R 3 5 13 moralOther moralOther match n n 1 0.7511 
30-May-2018_15:48:24 Exp 7331 19 male R 3 5 14 immoralSelf immoralSelf match n n 1 0.8120 
30-May-2018_15:48:26 Exp 7331 19 male R 3 5 15 moralSelf moralSelf match n n 1 0.6219 
30-May-2018_15:48:28 Exp 7331 19 male R 3 5 16 moralSelf moralSelf match n n 1 0.5162 
30-May-2018_15:48:30 Exp 7331 19 male R 3 5 17 moralOther moralOther match n n 1 0.7242 
30-May-2018_15:48:32 Exp 7331 19 male R 3 5 18 moralOther moralSelf mismatch m m 1 0.8043 
30-May-2018_15:48:35 Exp 7331 19 male R 3 5 19 immoralSelf moralSelf mismatch m m 1 0.9060 
30-May-2018_15:48:37 Exp 7331 19 male R 3 5 20 immoralOther immoralOther match n n 1 0.8379 
30-May-2018_15:48:39 Exp 7331 19 male R 3 5 21 moralSelf moralOther mismatch m n 0 0.5683 
30-May-2018_15:48:41 Exp 7331 19 male R 3 5 22 immoralSelf immoralOther mismatch m m 1 0.7774 
30-May-2018_15:48:44 Exp 7331 19 male R 3 5 23 moralSelf moralOther mismatch m m 1 0.7186 
30-May-2018_15:48:46 Exp 7331 19 male R 3 5 24 immoralOther immoralOther match n n 1 0.8387 
Date Prac Sub Age Sex Hand Block Bin Trial Shape Label Match CorrResp Resp ACC RT
30-May-2018_15:53:53 Exp 7331 19 male R 1 1 1 immoralOther moralSelf mismatch m m 1 0.6432 
30-May-2018_15:53:55 Exp 7331 19 male R 1 1 2 immoralOther immoralOther match n m 0 0.6777 
30-May-2018_15:53:58 Exp 7331 19 male R 1 1 3 immoralSelf moralOther mismatch m m 1 0.7808 
30-May-2018_15:54:00 Exp 7331 19 male R 1 1 4 moralOther immoralSelf mismatch m m 1 0.9381 
30-May-2018_15:54:03 Exp 7331 19 male R 1 1 5 immoralSelf immoralOther mismatch m n 0 0.9787 
30-May-2018_15:54:05 Exp 7331 19 male R 1 1 6 immoralSelf immoralSelf match n n 1 0.6879 
30-May-2018_15:54:07 Exp 7331 19 male R 1 1 7 immoralOther immoralOther match n m 0 0.6513 
30-May-2018_15:54:09 Exp 7331 19 male R 1 1 8 moralOther moralOther match n n 1 0.8020 
30-May-2018_15:54:11 Exp 7331 19 male R 1 1 9 moralSelf immoralOther mismatch m m 1 0.7278 
30-May-2018_15:54:14 Exp 7331 19 male R 1 1 10 moralOther moralOther match n n 1 0.8280 
30-May-2018_15:54:16 Exp 7331 19 male R 1 1 11 moralSelf moralSelf match n n 1 0.5943 
30-May-2018_15:54:18 Exp 7331 19 male R 1 1 12 immoralSelf immoralSelf match n n 1 0.6517 
30-May-2018_15:54:20 Exp 7331 19 male R 1 1 13 immoralOther immoralOther match n n 1 0.7544 
30-May-2018_15:54:22 Exp 7331 19 male R 1 1 14 moralSelf moralOther mismatch m m 1 0.7192 
30-May-2018_15:54:25 Exp 7331 19 male R 1 1 15 immoralSelf moralSelf mismatch m m 1 0.7593 
30-May-2018_15:54:27 Exp 7331 19 male R 1 1 16 moralOther moralSelf mismatch m m 1 0.7721 
30-May-2018_15:54:29 Exp 7331 19 male R 1 1 17 moralSelf moralSelf match n n 1 0.6611 
30-May-2018_15:54:31 Exp 7331 19 male R 1 1 18 moralOther moralOther match n n 1 0.8960 
30-May-2018_15:54:34 Exp 7331 19 male R 1 1 19 immoralOther moralOther mismatch m m 1 0.9437 
30-May-2018_15:54:36 Exp 7331 19 male R 1 1 20 moralSelf moralSelf match n n 1 0.6482 
30-May-2018_15:54:38 Exp 7331 19 male R 1 1 21 immoralOther moralOther mismatch m m 1 0.8868 
30-May-2018_15:54:41 Exp 7331 19 male R 1 1 22 immoralSelf immoralSelf match n n 1 0.8343 
30-May-2018_15:54:43 Exp 7331 19 male R 1 1 23 moralSelf immoralOther mismatch m m 1 0.6366 
30-May-2018_15:54:45 Exp 7331 19 male R 1 1 24 moralOther moralSelf mismatch m m 1 0.8311 
30-May-2018_15:54:47 Exp 7331 19 male R 1 2 1 immoralSelf immoralOther mismatch m m 1 0.9653 
30-May-2018_15:54:50 Exp 7331 19 male R 1 2 2 immoralOther immoralOther match n n 1 0.8063 
30-May-2018_15:54:52 Exp 7331 19 male R 1 2 3 moralSelf moralSelf match n n 1 0.7401 
30-May-2018_15:54:54 Exp 7331 19 male R 1 2 4 immoralOther immoralSelf mismatch m m 1 0.9086 
30-May-2018_15:54:57 Exp 7331 19 male R 1 2 5 immoralOther immoralOther match n n 1 0.8165 
30-May-2018_15:54:59 Exp 7331 19 male R 1 2 6 moralSelf immoralOther mismatch m m 1 0.7303 
30-May-2018_15:55:01 Exp 7331 19 male R 1 2 7 immoralOther immoralSelf mismatch m m 1 1.0067 
30-May-2018_15:55:04 Exp 7331 19 male R 1 2 8 immoralSelf immoralSelf match n n 1 0.9485 
30-May-2018_15:55:06 Exp 7331 19 male R 1 2 9 moralOther moralOther match n n 1 0.9332 
30-May-2018_15:55:09 Exp 7331 19 male R 1 2 10 immoralSelf immoralOther mismatch m m 1 0.9374 
30-May-2018_15:55:11 Exp 7331 19 male R 1 2 11 moralOther immoralOther mismatch m m 1 0.9417 
30-May-2018_15:55:13 Exp 7331 19 male R 1 2 12 moralSelf immoralOther mismatch m m 1 0.7023 
30-May-2018_15:55:15 Exp 7331 19 male R 1 2 13 moralOther immoralOther mismatch m m 1 0.8299 
30-May-2018_15:55:18 Exp 7331 19 male R 1 2 14 immoralSelf immoralOther mismatch m m 1 0.9321 
30-May-2018_15:55:20 Exp 7331 19 male R 1 2 15 moralOther moralOther match n n 1 1.0084 
30-May-2018_15:55:23 Exp 7331 19 male R 1 2 16 moralOther moralOther match n m 0 0.7982 
30-May-2018_15:55:25 Exp 7331 19 male R 1 2 17 moralSelf moralSelf match n n 1 0.6279 
30-May-2018_15:55:27 Exp 7331 19 male R 1 2 18 moralOther moralSelf mismatch m m 1 0.7541 
30-May-2018_15:55:29 Exp 7331 19 male R 1 2 19 immoralOther immoralOther match n n 1 0.7830 
30-May-2018_15:55:32 Exp 7331 19 male R 1 2 20 immoralSelf immoralSelf match n NA -1 1.0231 
30-May-2018_15:55:34 Exp 7331 19 male R 1 2 21 moralSelf immoralSelf mismatch m m 1 0.7144 
30-May-2018_15:55:36 Exp 7331 19 male R 1 2 22 immoralSelf immoralSelf match n n 1 0.5342 
30-May-2018_15:55:38 Exp 7331 19 male R 1 2 23 immoralOther moralSelf mismatch m m 1 0.6426 
30-May-2018_15:55:40 Exp 7331 19 male R 1 2 24 moralSelf moralSelf match n n 1 0.6370 
Date Prac Sub Age Sex Hand Block Bin Trial Shape Label Match CorrResp Resp ACC RT
30-May-2018_16:00:41 Exp 7331 19 male R 1 1 1 moralSelf immoralOther mismatch m m 1 0.6506 
30-May-2018_16:00:43 Exp 7331 19 male R 1 1 2 moralOther moralOther match n n 1 0.8573 
30-May-2018_16:00:45 Exp 7331 19 male R 1 1 3 moralOther moralOther match n m 0 0.6523 
30-May-2018_16:00:47 Exp 7331 19 male R 1 1 4 immoralOther immoralOther match n n 1 0.7868 
30-May-2018_16:00:50 Exp 7331 19 male R 1 1 5 moralSelf moralSelf match n n 1 0.6364 
30-May-2018_16:00:52 Exp 7331 19 male R 1 1 6 immoralSelf moralSelf mismatch m n 0 0.5108 
30-May-2018_16:00:54 Exp 7331 19 male R 1 1 7 immoralSelf immoralSelf match n n 1 0.7387 
30-May-2018_16:00:56 Exp 7331 19 male R 1 1 8 moralOther immoralOther mismatch m m 1 0.9712 
30-May-2018_16:00:58 Exp 7331 19 male R 1 1 9 immoralOther moralSelf mismatch m m 1 0.7003 
30-May-2018_16:01:01 Exp 7331 19 male R 1 1 10 immoralOther immoralSelf mismatch m m 1 0.9558 
30-May-2018_16:01:03 Exp 7331 19 male R 1 1 11 moralSelf moralSelf match n n 1 0.5367 
30-May-2018_16:01:05 Exp 7331 19 male R 1 1 12 moralOther moralOther match n n 1 0.7489 
30-May-2018_16:01:08 Exp 7331 19 male R 1 1 13 immoralOther moralSelf mismatch m m 1 0.9735 
30-May-2018_16:01:10 Exp 7331 19 male R 1 1 14 immoralSelf moralSelf mismatch m m 1 0.7228 
30-May-2018_16:01:12 Exp 7331 19 male R 1 1 15 moralOther immoralOther mismatch m m 1 1.0189 
30-May-2018_16:01:14 Exp 7331 19 male R 1 1 16 moralSelf moralSelf match n n 1 0.6208 
30-May-2018_16:01:17 Exp 7331 19 male R 1 1 17 moralOther moralSelf mismatch m m 1 0.6831 
30-May-2018_16:01:19 Exp 7331 19 male R 1 1 18 immoralOther immoralOther match n m 0 0.7184 
30-May-2018_16:01:21 Exp 7331 19 male R 1 1 19 moralSelf immoralOther mismatch m m 1 0.7905 
30-May-2018_16:01:23 Exp 7331 19 male R 1 1 20 immoralSelf immoralSelf match n n 1 1.0000 
30-May-2018_16:01:26 Exp 7331 19 male R 1 1 21 immoralSelf immoralSelf match n n 1 0.8537 
30-May-2018_16:01:28 Exp 7331 19 male R 1 1 22 immoralOther immoralOther match n n 1 0.8285 
30-May-2018_16:01:31 Exp 7331 19 male R 1 1 23 immoralSelf immoralOther mismatch m NA -1 1.0231 
30-May-2018_16:01:33 Exp 7331 19 male R 1 1 24 moralSelf moralOther mismatch m m 1 0.8728 
30-May-2018_16:01:35 Exp 7331 19 male R 1 2 1 moralOther moralOther match n n 1 0.9120 
30-May-2018_16:01:38 Exp 7331 19 male R 1 2 2 immoralOther immoralOther match n n 1 0.8359 
30-May-2018_16:01:40 Exp 7331 19 male R 1 2 3 immoralOther moralSelf mismatch m m 1 0.7023 
30-May-2018_16:01:42 Exp 7331 19 male R 1 2 4 moralSelf immoralOther mismatch m m 1 0.7499 
30-May-2018_16:01:44 Exp 7331 19 male R 1 2 5 immoralSelf moralSelf mismatch m m 1 0.8544 
30-May-2018_16:01:47 Exp 7331 19 male R 1 2 6 moralOther immoralOther mismatch m n 0 0.8532 
30-May-2018_16:01:49 Exp 7331 19 male R 1 2 7 moralSelf moralSelf match n n 1 0.6198 
30-May-2018_16:01:51 Exp 7331 19 male R 1 2 8 moralOther moralOther match n n 1 1.0058 
30-May-2018_16:01:54 Exp 7331 19 male R 1 2 9 moralSelf moralOther mismatch m m 1 0.7715 
30-May-2018_16:01:56 Exp 7331 19 male R 1 2 10 moralSelf moralOther mismatch m m 1 0.8285 
30-May-2018_16:01:58 Exp 7331 19 male R 1 2 11 moralOther moralOther match n n 1 0.8428 
30-May-2018_16:02:00 Exp 7331 19 male R 1 2 12 immoralSelf moralSelf mismatch m m 1 0.7331 
30-May-2018_16:02:03 Exp 7331 19 male R 1 2 13 immoralOther immoralOther match n NA -1 1.0231 
30-May-2018_16:02:05 Exp 7331 19 male R 1 2 14 immoralSelf immoralSelf match n n 1 0.9437 
30-May-2018_16:02:07 Exp 7331 19 male R 1 2 15 moralSelf moralSelf match n n 1 0.6083 
30-May-2018_16:02:10 Exp 7331 19 male R 1 2 16 immoralOther immoralSelf mismatch m m 1 0.9179 
30-May-2018_16:02:12 Exp 7331 19 male R 1 2 17 immoralOther immoralOther match n m 0 0.7821 
30-May-2018_16:02:15 Exp 7331 19 male R 1 2 18 immoralSelf moralOther mismatch m NA -1 1.0231 
30-May-2018_16:02:17 Exp 7331 19 male R 1 2 19 moralOther immoralSelf mismatch m m 1 0.8336 
30-May-2018_16:02:19 Exp 7331 19 male R 1 2 20 immoralOther immoralSelf mismatch m m 1 0.8040 
30-May-2018_16:02:22 Exp 7331 19 male R 1 2 21 immoralSelf immoralSelf match n n 1 0.9217 
30-May-2018_16:02:24 Exp 7331 19 male R 1 2 22 immoralSelf immoralSelf match n n 1 0.8258 
30-May-2018_16:02:26 Exp 7331 19 male R 1 2 23 moralSelf moralSelf match n n 1 0.7040 
30-May-2018_16:02:28 Exp 7331 19 male R 1 2 24 moralOther moralSelf mismatch m m 1 0.7799 
Date Prac Sub Age Sex Hand Block Bin Trial Shape Label Match CorrResp Resp ACC RT
30-May-2018_16:07:24 Exp 7331 19 male R 1 1 1 moralSelf moralSelf match n n 1 0.5387 
30-May-2018_16:07:27 Exp 7331 19 male R 1 1 2 immoralOther moralSelf mismatch m m 1 0.9153 
30-May-2018_16:07:29 Exp 7331 19 male R 1 1 3 moralOther moralSelf mismatch m m 1 0.6195 
30-May-2018_16:07:31 Exp 7331 19 male R 1 1 4 moralSelf immoralSelf mismatch m m 1 0.7254 
30-May-2018_16:07:33 Exp 7331 19 male R 1 1 5 moralOther moralOther match n n 1 0.6774 
30-May-2018_16:07:35 Exp 7331 19 male R 1 1 6 immoralOther immoralOther match n n 1 0.7807 
30-May-2018_16:07:38 Exp 7331 19 male R 1 1 7 immoralSelf immoralSelf match n n 1 0.7619 
30-May-2018_16:07:40 Exp 7331 19 male R 1 1 8 moralOther moralOther match n n 1 0.7709 
30-May-2018_16:07:42 Exp 7331 19 male R 1 1 9 immoralOther moralSelf mismatch m m 1 0.7323 
30-May-2018_16:07:44 Exp 7331 19 male R 1 1 10 immoralSelf immoralSelf match n n 1 0.9283 
30-May-2018_16:07:47 Exp 7331 19 male R 1 1 11 immoralOther moralSelf mismatch m m 1 0.6045 
30-May-2018_16:07:49 Exp 7331 19 male R 1 1 12 moralOther immoralSelf mismatch m m 1 0.8183 
30-May-2018_16:07:51 Exp 7331 19 male R 1 1 13 moralSelf moralSelf match n n 1 0.5083 
30-May-2018_16:07:53 Exp 7331 19 male R 1 1 14 immoralSelf moralOther mismatch m n 0 0.8241 
30-May-2018_16:07:55 Exp 7331 19 male R 1 1 15 immoralOther immoralOther match n n 1 0.7583 
30-May-2018_16:07:58 Exp 7331 19 male R 1 1 16 moralOther moralOther match n m 0 0.8751 
30-May-2018_16:08:00 Exp 7331 19 male R 1 1 17 immoralOther immoralOther match n n 1 0.6982 
30-May-2018_16:08:02 Exp 7331 19 male R 1 1 18 moralSelf moralOther mismatch m m 1 0.7138 
30-May-2018_16:08:04 Exp 7331 19 male R 1 1 19 moralOther moralSelf mismatch m m 1 0.8377 
30-May-2018_16:08:07 Exp 7331 19 male R 1 1 20 moralSelf moralSelf match n n 1 0.7202 
30-May-2018_16:08:09 Exp 7331 19 male R 1 1 21 immoralSelf immoralSelf match n n 1 0.8402 
30-May-2018_16:08:11 Exp 7331 19 male R 1 1 22 moralSelf immoralOther mismatch m m 1 0.6986 
30-May-2018_16:08:13 Exp 7331 19 male R 1 1 23 immoralSelf moralSelf mismatch m m 1 0.6742 
30-May-2018_16:08:16 Exp 7331 19 male R 1 1 24 immoralSelf moralOther mismatch m m 1 1.0014 
30-May-2018_16:08:18 Exp 7331 19 male R 1 2 1 immoralOther immoralSelf mismatch m m 1 0.7671 
30-May-2018_16:08:20 Exp 7331 19 male R 1 2 2 immoralSelf immoralOther mismatch m m 1 0.9842 
30-May-2018_16:08:23 Exp 7331 19 male R 1 2 3 moralSelf moralSelf match n n 1 0.5814 
30-May-2018_16:08:25 Exp 7331 19 male R 1 2 4 moralOther moralOther match n n 1 0.8267 
30-May-2018_16:08:27 Exp 7331 19 male R 1 2 5 moralOther moralOther match n n 1 0.6249 
30-May-2018_16:08:29 Exp 7331 19 male R 1 2 6 moralSelf immoralSelf mismatch m m 1 0.6951 
30-May-2018_16:08:31 Exp 7331 19 male R 1 2 7 moralSelf moralSelf match n n 1 0.8147 
30-May-2018_16:08:34 Exp 7331 19 male R 1 2 8 moralSelf immoralSelf mismatch m m 1 0.8087 
30-May-2018_16:08:36 Exp 7331 19 male R 1 2 9 immoralOther moralSelf mismatch m m 1 0.6826 
30-May-2018_16:08:38 Exp 7331 19 male R 1 2 10 moralOther immoralSelf mismatch m NA -1 1.0231 
30-May-2018_16:08:41 Exp 7331 19 male R 1 2 11 immoralSelf immoralOther mismatch m m 1 0.8922 
30-May-2018_16:08:43 Exp 7331 19 male R 1 2 12 immoralSelf moralOther mismatch m m 1 0.7478 
30-May-2018_16:08:45 Exp 7331 19 male R 1 2 13 moralOther moralOther match n n 1 0.8603 
30-May-2018_16:08:48 Exp 7331 19 male R 1 2 14 immoralOther immoralOther match n n 1 0.8473 
30-May-2018_16:08:50 Exp 7331 19 male R 1 2 15 moralSelf immoralOther mismatch m m 1 0.6620 
30-May-2018_16:08:52 Exp 7331 19 male R 1 2 16 immoralOther immoralOther match n n 1 0.8969 
30-May-2018_16:08:54 Exp 7331 19 male R 1 2 17 immoralOther immoralOther match n m 0 0.7286 
30-May-2018_16:08:57 Exp 7331 19 male R 1 2 18 immoralSelf immoralSelf match n m 0 0.8368 
30-May-2018_16:08:59 Exp 7331 19 male R 1 2 19 immoralSelf immoralSelf match n n 1 0.5993 
30-May-2018_16:09:01 Exp 7331 19 male R 1 2 20 moralOther moralSelf mismatch m m 1 0.6690 
30-May-2018_16:09:03 Exp 7331 19 male R 1 2 21 moralOther immoralSelf mismatch m m 1 0.9962 
30-May-2018_16:09:06 Exp 7331 19 male R 1 2 22 immoralSelf immoralSelf match n n 1 0.8376 
30-May-2018_16:09:08 Exp 7331 19 male R 1 2 23 immoralOther immoralSelf mismatch m NA -1 1.0231 
30-May-2018_16:09:10 Exp 7331 19 male R 1 2 24 moralSelf moralSelf match n n 1 0.5503 
Date Prac Sub Age Sex Hand Block Bin Trial Shape Label Match CorrResp Resp ACC RT
30-May-2018_16:13:54 Exp 7331 19 male R 1 1 1 moralOther moralSelf mismatch m m 1 0.7044 
30-May-2018_16:13:57 Exp 7331 19 male R 1 1 2 moralOther moralSelf mismatch m m 1 0.8123 
30-May-2018_16:13:59 Exp 7331 19 male R 1 1 3 moralOther moralOther match n n 1 0.6863 
30-May-2018_16:14:01 Exp 7331 19 male R 1 1 4 moralOther immoralOther mismatch m m 1 0.6497 
30-May-2018_16:14:03 Exp 7331 19 male R 1 1 5 immoralSelf moralOther mismatch m m 1 0.8084 
30-May-2018_16:14:05 Exp 7331 19 male R 1 1 6 immoralSelf moralOther mismatch m m 1 0.7901 
30-May-2018_16:14:08 Exp 7331 19 male R 1 1 7 immoralOther immoralOther match n n 1 0.7516 
30-May-2018_16:14:10 Exp 7331 19 male R 1 1 8 moralSelf immoralSelf mismatch m m 1 0.7484 
30-May-2018_16:14:12 Exp 7331 19 male R 1 1 9 moralSelf moralSelf match n n 1 0.5729 
30-May-2018_16:14:14 Exp 7331 19 male R 1 1 10 immoralOther immoralOther match n n 1 0.8859 
30-May-2018_16:14:17 Exp 7331 19 male R 1 1 11 moralSelf moralSelf match n n 1 0.6573 
30-May-2018_16:14:19 Exp 7331 19 male R 1 1 12 immoralOther immoralOther match n n 1 0.8282 
30-May-2018_16:14:21 Exp 7331 19 male R 1 1 13 immoralSelf immoralSelf match n n 1 0.8344 
30-May-2018_16:14:23 Exp 7331 19 male R 1 1 14 moralSelf immoralSelf mismatch m m 1 0.7409 
30-May-2018_16:14:26 Exp 7331 19 male R 1 1 15 moralSelf immoralOther mismatch m m 1 0.8535 
30-May-2018_16:14:28 Exp 7331 19 male R 1 1 16 immoralSelf immoralSelf match n n 1 0.8201 
30-May-2018_16:14:30 Exp 7331 19 male R 1 1 17 moralOther moralOther match n n 1 0.7981 
30-May-2018_16:14:32 Exp 7331 19 male R 1 1 18 immoralSelf moralSelf mismatch m m 1 0.7558 
30-May-2018_16:14:35 Exp 7331 19 male R 1 1 19 moralOther moralOther match n n 1 0.7766 
30-May-2018_16:14:37 Exp 7331 19 male R 1 1 20 immoralOther moralOther mismatch m m 1 0.8379 
30-May-2018_16:14:39 Exp 7331 19 male R 1 1 21 moralSelf moralSelf match n n 1 0.8323 
30-May-2018_16:14:42 Exp 7331 19 male R 1 1 22 immoralSelf immoralSelf match n n 1 0.7787 
30-May-2018_16:14:44 Exp 7331 19 male R 1 1 23 immoralOther moralOther mismatch m m 1 0.8880 
30-May-2018_16:14:46 Exp 7331 19 male R 1 1 24 immoralOther moralOther mismatch m m 1 0.8195 
30-May-2018_16:14:49 Exp 7331 19 male R 1 2 1 immoralSelf immoralSelf match n n 1 0.7654 
30-May-2018_16:14:51 Exp 7331 19 male R 1 2 2 immoralOther immoralSelf mismatch m NA -1 1.0231 
30-May-2018_16:14:53 Exp 7331 19 male R 1 2 3 moralSelf moralOther mismatch m m 1 0.7726 
30-May-2018_16:14:56 Exp 7331 19 male R 1 2 4 moralOther moralOther match n n 1 0.8056 
30-May-2018_16:14:58 Exp 7331 19 male R 1 2 5 moralOther immoralOther mismatch m m 1 0.7393 
30-May-2018_16:15:00 Exp 7331 19 male R 1 2 6 moralSelf moralSelf match n n 1 0.9559 
30-May-2018_16:15:03 Exp 7331 19 male R 1 2 7 immoralSelf immoralSelf match n n 1 0.8647 
30-May-2018_16:15:05 Exp 7331 19 male R 1 2 8 moralSelf immoralOther mismatch m m 1 0.6516 
30-May-2018_16:15:07 Exp 7331 19 male R 1 2 9 moralOther moralOther match n n 1 0.7463 
30-May-2018_16:15:09 Exp 7331 19 male R 1 2 10 immoralOther immoralOther match n m 0 0.8908 
30-May-2018_16:15:12 Exp 7331 19 male R 1 2 11 moralOther moralOther match n n 1 0.9582 
30-May-2018_16:15:14 Exp 7331 19 male R 1 2 12 immoralOther immoralOther match n n 1 0.9150 
30-May-2018_16:15:16 Exp 7331 19 male R 1 2 13 immoralOther immoralSelf mismatch m m 1 0.8591 
30-May-2018_16:15:19 Exp 7331 19 male R 1 2 14 immoralSelf immoralSelf match n n 1 0.8220 
30-May-2018_16:15:21 Exp 7331 19 male R 1 2 15 immoralOther moralSelf mismatch m m 1 0.9961 
30-May-2018_16:15:24 Exp 7331 19 male R 1 2 16 moralOther immoralOther mismatch m n 0 0.7657 
30-May-2018_16:15:26 Exp 7331 19 male R 1 2 17 moralSelf moralSelf match n n 1 0.9267 
30-May-2018_16:15:28 Exp 7331 19 male R 1 2 18 immoralSelf immoralOther mismatch m m 1 0.8910 
30-May-2018_16:15:31 Exp 7331 19 male R 1 2 19 moralOther moralSelf mismatch m m 1 0.9068 
30-May-2018_16:15:33 Exp 7331 19 male R 1 2 20 moralSelf immoralSelf mismatch m m 1 0.7105 
30-May-2018_16:15:35 Exp 7331 19 male R 1 2 21 immoralSelf immoralOther mismatch m m 1 0.9544 
30-May-2018_16:15:38 Exp 7331 19 male R 1 2 22 immoralSelf moralOther mismatch m m 1 0.7911 
30-May-2018_16:15:40 Exp 7331 19 male R 1 2 23 moralSelf moralSelf match n n 1 0.6567 
30-May-2018_16:15:42 Exp 7331 19 male R 1 2 24 immoralOther immoralOther match n n 1 0.7636 
Date Prac Sub Age Sex Hand Block Bin Trial Shape Label Match CorrResp Resp ACC RT
30-May-2018_16:20:28 Exp 7331 19 male R 1 1 1 immoralSelf moralOther mismatch m m 1 0.8990 
30-May-2018_16:20:31 Exp 7331 19 male R 1 1 2 moralOther moralOther match n n 1 0.7147 
30-May-2018_16:20:33 Exp 7331 19 male R 1 1 3 moralOther moralOther match n n 1 0.7548 
30-May-2018_16:20:35 Exp 7331 19 male R 1 1 4 moralOther immoralOther mismatch m m 1 0.6955 
30-May-2018_16:20:37 Exp 7331 19 male R 1 1 5 immoralOther moralOther mismatch m m 1 0.8152 
30-May-2018_16:20:39 Exp 7331 19 male R 1 1 6 immoralOther immoralOther match n n 1 0.7531 
30-May-2018_16:20:42 Exp 7331 19 male R 1 1 7 immoralOther moralSelf mismatch m m 1 0.8539 
30-May-2018_16:20:44 Exp 7331 19 male R 1 1 8 moralSelf immoralOther mismatch m m 1 0.7886 
30-May-2018_16:20:46 Exp 7331 19 male R 1 1 9 immoralOther immoralOther match n n 1 0.7341 
30-May-2018_16:20:48 Exp 7331 19 male R 1 1 10 moralSelf moralOther mismatch m m 1 0.6744 
30-May-2018_16:20:51 Exp 7331 19 male R 1 1 11 immoralSelf moralSelf mismatch m m 1 0.7215 
30-May-2018_16:20:53 Exp 7331 19 male R 1 1 12 immoralSelf immoralOther mismatch m m 1 0.6977 
30-May-2018_16:20:55 Exp 7331 19 male R 1 1 13 moralOther immoralSelf mismatch m m 1 0.9613 
30-May-2018_16:20:57 Exp 7331 19 male R 1 1 14 immoralOther immoralOther match n n 1 0.7901 
30-May-2018_16:21:00 Exp 7331 19 male R 1 1 15 moralOther moralOther match n n 1 0.8236 
30-May-2018_16:21:02 Exp 7331 19 male R 1 1 16 immoralSelf immoralSelf match n m 0 0.6537 
30-May-2018_16:21:04 Exp 7331 19 male R 1 1 17 moralSelf moralSelf match n n 1 0.6044 
30-May-2018_16:21:06 Exp 7331 19 male R 1 1 18 immoralSelf immoralSelf match n n 1 0.6422 
30-May-2018_16:21:08 Exp 7331 19 male R 1 1 19 moralSelf immoralOther mismatch m m 1 0.8285 
30-May-2018_16:21:11 Exp 7331 19 male R 1 1 20 immoralOther moralSelf mismatch m m 1 0.7307 
30-May-2018_16:21:13 Exp 7331 19 male R 1 1 21 moralSelf moralSelf match n n 1 0.6151 
30-May-2018_16:21:15 Exp 7331 19 male R 1 1 22 immoralSelf immoralSelf match n n 1 0.8730 
30-May-2018_16:21:17 Exp 7331 19 male R 1 1 23 moralSelf moralSelf match n n 1 0.6162 
30-May-2018_16:21:20 Exp 7331 19 male R 1 1 24 moralOther moralSelf mismatch m m 1 0.8341 
30-May-2018_16:21:22 Exp 7331 19 male R 1 2 1 immoralOther moralSelf mismatch m m 1 0.7006 
30-May-2018_16:21:24 Exp 7331 19 male R 1 2 2 immoralSelf immoralOther mismatch m m 1 0.8922 
30-May-2018_16:21:26 Exp 7331 19 male R 1 2 3 immoralSelf immoralOther mismatch m n 0 0.9558 
30-May-2018_16:21:29 Exp 7331 19 male R 1 2 4 moralOther immoralOther mismatch m m 1 0.8726 
30-May-2018_16:21:31 Exp 7331 19 male R 1 2 5 moralSelf moralOther mismatch m m 1 0.8398 
30-May-2018_16:21:33 Exp 7331 19 male R 1 2 6 moralSelf moralSelf match n n 1 0.6342 
30-May-2018_16:21:36 Exp 7331 19 male R 1 2 7 immoralSelf immoralSelf match n n 1 0.9806 
30-May-2018_16:21:38 Exp 7331 19 male R 1 2 8 moralSelf immoralOther mismatch m m 1 0.6819 
30-May-2018_16:21:40 Exp 7331 19 male R 1 2 9 immoralOther moralSelf mismatch m m 1 0.7174 
30-May-2018_16:21:42 Exp 7331 19 male R 1 2 10 moralOther immoralOther mismatch m m 1 0.8854 
30-May-2018_16:21:45 Exp 7331 19 male R 1 2 11 moralOther moralOther match n NA -1 1.0231 
30-May-2018_16:21:47 Exp 7331 19 male R 1 2 12 immoralOther immoralOther match n n 1 0.8149 
30-May-2018_16:21:50 Exp 7331 19 male R 1 2 13 immoralOther immoralSelf mismatch m m 1 0.8089 
30-May-2018_16:21:52 Exp 7331 19 male R 1 2 14 moralOther moralOther match n n 1 0.8109 
30-May-2018_16:21:54 Exp 7331 19 male R 1 2 15 immoralOther immoralOther match n n 1 0.8688 
30-May-2018_16:21:57 Exp 7331 19 male R 1 2 16 immoralSelf immoralSelf match n n 1 0.9800 
30-May-2018_16:21:59 Exp 7331 19 male R 1 2 17 moralOther moralSelf mismatch m m 1 0.8412 
30-May-2018_16:22:01 Exp 7331 19 male R 1 2 18 moralSelf immoralSelf mismatch m m 1 0.7398 
30-May-2018_16:22:04 Exp 7331 19 male R 1 2 19 moralOther moralOther match n n 1 0.8923 
30-May-2018_16:22:06 Exp 7331 19 male R 1 2 20 immoralSelf moralSelf mismatch m m 1 0.7319 
30-May-2018_16:22:08 Exp 7331 19 male R 1 2 21 immoralSelf immoralSelf match n n 1 0.9282 
30-May-2018_16:22:10 Exp 7331 19 male R 1 2 22 moralSelf moralSelf match n n 1 0.5405 
30-May-2018_16:22:13 Exp 7331 19 male R 1 2 23 immoralOther immoralOther match n n 1 0.8931 
30-May-2018_16:22:15 Exp 7331 19 male R 1 2 24 moralSelf moralSelf match n n 1 0.5647 
