Date Prac Sub Age Sex Hand Block Bin Trial Shape Label Match CorrResp Resp ACC RT
19-May-2018_13:41:57 Exp 7321 18 female R 1 1 1 moralOther moralOther match n n 1 1.0028 
19-May-2018_13:41:59 Exp 7321 18 female R 1 1 2 moralOther moralSelf mismatch m m 1 0.7011 
19-May-2018_13:42:01 Exp 7321 18 female R 1 1 3 moralSelf moralOther mismatch m n 0 0.4591 
19-May-2018_13:42:04 Exp 7321 18 female R 1 1 4 immoralSelf immoralSelf match n m 0 0.9692 
19-May-2018_13:42:07 Exp 7321 18 female R 1 1 5 moralOther immoralSelf mismatch m m 1 0.9535 
19-May-2018_13:42:09 Exp 7321 18 female R 1 1 6 immoralSelf moralOther mismatch m n 0 0.7175 
19-May-2018_13:42:11 Exp 7321 18 female R 1 1 7 moralSelf moralOther mismatch m m 1 0.8078 
19-May-2018_13:42:14 Exp 7321 18 female R 1 1 8 immoralOther immoralOther match n n 1 0.5998 
19-May-2018_13:42:16 Exp 7321 18 female R 1 1 9 immoralOther immoralOther match n m 0 0.6099 
19-May-2018_13:42:18 Exp 7321 18 female R 1 1 10 immoralOther moralSelf mismatch m m 1 0.6421 
19-May-2018_13:42:20 Exp 7321 18 female R 1 1 11 moralSelf moralSelf match n n 1 0.5883 
19-May-2018_13:42:22 Exp 7321 18 female R 1 1 12 moralSelf moralSelf match n m 0 0.6003 
19-May-2018_13:42:25 Exp 7321 18 female R 1 1 13 immoralOther moralOther mismatch m m 1 0.9945 
19-May-2018_13:42:27 Exp 7321 18 female R 1 1 14 immoralOther moralOther mismatch m n 0 0.6627 
19-May-2018_13:42:30 Exp 7321 18 female R 1 1 15 moralSelf moralSelf match n n 1 0.6447 
19-May-2018_13:42:32 Exp 7321 18 female R 1 1 16 moralSelf moralOther mismatch m n 0 0.8388 
19-May-2018_13:42:35 Exp 7321 18 female R 1 1 17 immoralSelf immoralOther mismatch m NA -1 1.0850 
19-May-2018_13:42:37 Exp 7321 18 female R 1 1 18 immoralOther immoralOther match n n 1 0.7792 
19-May-2018_13:42:40 Exp 7321 18 female R 1 1 19 immoralSelf immoralSelf match n m 0 0.7773 
19-May-2018_13:42:42 Exp 7321 18 female R 1 1 20 immoralSelf immoralOther mismatch m n 0 0.5674 
19-May-2018_13:42:44 Exp 7321 18 female R 1 1 21 moralOther moralSelf mismatch m n 0 0.7598 
19-May-2018_13:42:47 Exp 7321 18 female R 1 1 22 immoralSelf immoralSelf match n n 1 0.8097 
19-May-2018_13:42:49 Exp 7321 18 female R 1 1 23 moralOther moralOther match n n 1 0.9058 
19-May-2018_13:42:51 Exp 7321 18 female R 1 1 24 moralOther moralOther match n n 1 0.4880 
19-May-2018_13:42:54 Exp 7321 18 female R 1 2 1 moralSelf immoralOther mismatch m m 1 0.7342 
19-May-2018_13:42:56 Exp 7321 18 female R 1 2 2 immoralOther immoralOther match n n 1 0.5742 
19-May-2018_13:42:58 Exp 7321 18 female R 1 2 3 moralSelf moralSelf match n n 1 0.7743 
19-May-2018_13:43:01 Exp 7321 18 female R 1 2 4 immoralOther immoralOther match n n 1 0.5985 
19-May-2018_13:43:03 Exp 7321 18 female R 1 2 5 immoralOther moralOther mismatch m m 1 0.9366 
19-May-2018_13:43:06 Exp 7321 18 female R 1 2 6 moralOther moralOther match n m 0 0.8567 
19-May-2018_13:43:08 Exp 7321 18 female R 1 2 7 immoralOther immoralSelf mismatch m n 0 0.8409 
19-May-2018_13:43:11 Exp 7321 18 female R 1 2 8 immoralSelf moralSelf mismatch m m 1 0.8831 
19-May-2018_13:43:13 Exp 7321 18 female R 1 2 9 immoralSelf immoralSelf match n n 1 0.7652 
19-May-2018_13:43:15 Exp 7321 18 female R 1 2 10 immoralSelf immoralSelf match n n 1 0.6152 
19-May-2018_13:43:18 Exp 7321 18 female R 1 2 11 moralSelf moralSelf match n n 1 0.6874 
19-May-2018_13:43:20 Exp 7321 18 female R 1 2 12 immoralSelf moralSelf mismatch m n 0 0.5436 
19-May-2018_13:43:22 Exp 7321 18 female R 1 2 13 immoralSelf immoralSelf match n n 1 0.7658 
19-May-2018_13:43:24 Exp 7321 18 female R 1 2 14 moralOther moralOther match n n 1 0.6639 
19-May-2018_13:43:27 Exp 7321 18 female R 1 2 15 moralSelf immoralSelf mismatch m n 0 0.6620 
19-May-2018_13:43:29 Exp 7321 18 female R 1 2 16 immoralSelf immoralOther mismatch m n 0 1.0840 
19-May-2018_13:43:32 Exp 7321 18 female R 1 2 17 moralOther immoralOther mismatch m m 1 0.7503 
19-May-2018_13:43:34 Exp 7321 18 female R 1 2 18 moralOther moralOther match n n 1 0.6904 
19-May-2018_13:43:36 Exp 7321 18 female R 1 2 19 moralSelf moralSelf match n n 1 0.5625 
19-May-2018_13:43:39 Exp 7321 18 female R 1 2 20 moralOther immoralOther mismatch m m 1 0.8126 
19-May-2018_13:43:41 Exp 7321 18 female R 1 2 21 immoralOther immoralOther match n n 1 0.5567 
19-May-2018_13:43:43 Exp 7321 18 female R 1 2 22 immoralOther moralSelf mismatch m n 0 0.5609 
19-May-2018_13:43:45 Exp 7321 18 female R 1 2 23 moralOther moralSelf mismatch m n 0 0.6350 
19-May-2018_13:43:48 Exp 7321 18 female R 1 2 24 moralSelf moralOther mismatch m m 1 0.6791 
19-May-2018_13:43:50 Exp 7321 18 female R 1 3 1 moralSelf immoralOther mismatch m m 1 0.6252 
19-May-2018_13:43:52 Exp 7321 18 female R 1 3 2 moralOther immoralOther mismatch m m 1 0.7034 
19-May-2018_13:43:54 Exp 7321 18 female R 1 3 3 moralOther moralOther match n n 1 0.5975 
19-May-2018_13:43:57 Exp 7321 18 female R 1 3 4 immoralSelf immoralOther mismatch m m 1 0.7756 
19-May-2018_13:43:59 Exp 7321 18 female R 1 3 5 moralOther moralOther match n n 1 0.8238 
19-May-2018_13:44:02 Exp 7321 18 female R 1 3 6 immoralSelf immoralSelf match n n 1 0.9739 
19-May-2018_13:44:04 Exp 7321 18 female R 1 3 7 immoralOther immoralOther match n n 1 0.7020 
19-May-2018_13:44:07 Exp 7321 18 female R 1 3 8 immoralOther immoralOther match n n 1 0.7082 
19-May-2018_13:44:09 Exp 7321 18 female R 1 3 9 immoralSelf immoralOther mismatch m m 1 0.7203 
19-May-2018_13:44:11 Exp 7321 18 female R 1 3 10 immoralSelf immoralSelf match n n 1 0.6984 
19-May-2018_13:44:13 Exp 7321 18 female R 1 3 11 moralSelf moralSelf match n n 1 0.6007 
19-May-2018_13:44:16 Exp 7321 18 female R 1 3 12 moralSelf moralOther mismatch m m 1 0.7787 
19-May-2018_13:44:18 Exp 7321 18 female R 1 3 13 moralOther moralOther match n n 1 0.4969 
19-May-2018_13:44:21 Exp 7321 18 female R 1 3 14 moralOther immoralOther mismatch m m 1 0.9210 
19-May-2018_13:44:23 Exp 7321 18 female R 1 3 15 immoralSelf moralSelf mismatch m n 0 0.5312 
19-May-2018_13:44:25 Exp 7321 18 female R 1 3 16 immoralOther immoralSelf mismatch m m 1 0.7872 
19-May-2018_13:44:28 Exp 7321 18 female R 1 3 17 immoralSelf immoralSelf match n n 1 0.7913 
19-May-2018_13:44:30 Exp 7321 18 female R 1 3 18 moralOther immoralOther mismatch m m 1 0.9715 
19-May-2018_13:44:32 Exp 7321 18 female R 1 3 19 moralSelf moralOther mismatch m m 1 0.6676 
19-May-2018_13:44:35 Exp 7321 18 female R 1 3 20 immoralOther moralOther mismatch m m 1 0.7677 
19-May-2018_13:44:37 Exp 7321 18 female R 1 3 21 immoralOther immoralOther match n n 1 0.6959 
19-May-2018_13:44:39 Exp 7321 18 female R 1 3 22 moralSelf moralSelf match n n 1 0.7040 
19-May-2018_13:44:42 Exp 7321 18 female R 1 3 23 immoralOther immoralSelf mismatch m n 0 0.6541 
19-May-2018_13:44:44 Exp 7321 18 female R 1 3 24 moralSelf moralSelf match n n 1 0.6863 
19-May-2018_13:44:57 Exp 7321 18 female R 1 4 1 moralSelf moralSelf match n n 1 0.4791 
19-May-2018_13:44:59 Exp 7321 18 female R 1 4 2 immoralOther immoralOther match n n 1 0.5771 
19-May-2018_13:45:01 Exp 7321 18 female R 1 4 3 immoralSelf immoralSelf match n n 1 0.6975 
19-May-2018_13:45:03 Exp 7321 18 female R 1 4 4 immoralSelf moralOther mismatch m m 1 0.7113 
19-May-2018_13:45:06 Exp 7321 18 female R 1 4 5 moralOther moralOther match n n 1 0.5635 
19-May-2018_13:45:08 Exp 7321 18 female R 1 4 6 moralOther moralSelf mismatch m n 0 0.8217 
19-May-2018_13:45:10 Exp 7321 18 female R 1 4 7 immoralSelf moralSelf mismatch m n 0 0.6278 
19-May-2018_13:45:13 Exp 7321 18 female R 1 4 8 immoralOther moralSelf mismatch m m 1 0.7039 
19-May-2018_13:45:15 Exp 7321 18 female R 1 4 9 immoralOther immoralOther match n n 1 0.5500 
19-May-2018_13:45:17 Exp 7321 18 female R 1 4 10 immoralSelf immoralSelf match n n 1 0.8982 
19-May-2018_13:45:20 Exp 7321 18 female R 1 4 11 immoralSelf moralOther mismatch m m 1 0.7044 
19-May-2018_13:45:22 Exp 7321 18 female R 1 4 12 immoralOther immoralSelf mismatch m n 0 0.7984 
19-May-2018_13:45:24 Exp 7321 18 female R 1 4 13 moralOther moralOther match n n 1 0.5366 
19-May-2018_13:45:27 Exp 7321 18 female R 1 4 14 immoralSelf immoralSelf match n n 1 0.6648 
19-May-2018_13:45:29 Exp 7321 18 female R 1 4 15 moralSelf immoralSelf mismatch m m 1 0.7108 
19-May-2018_13:45:31 Exp 7321 18 female R 1 4 16 moralOther moralOther match n n 1 0.6030 
19-May-2018_13:45:34 Exp 7321 18 female R 1 4 17 moralOther immoralSelf mismatch m m 1 0.8851 
19-May-2018_13:45:36 Exp 7321 18 female R 1 4 18 moralSelf immoralSelf mismatch m m 1 0.6953 
19-May-2018_13:45:38 Exp 7321 18 female R 1 4 19 moralOther immoralSelf mismatch m m 1 0.7434 
19-May-2018_13:45:41 Exp 7321 18 female R 1 4 20 immoralOther immoralOther match n n 1 0.6455 
19-May-2018_13:45:43 Exp 7321 18 female R 1 4 21 moralSelf moralSelf match n n 1 0.7676 
19-May-2018_13:45:45 Exp 7321 18 female R 1 4 22 moralSelf moralSelf match n n 1 0.4398 
19-May-2018_13:45:47 Exp 7321 18 female R 1 4 23 moralSelf immoralOther mismatch m m 1 0.6659 
19-May-2018_13:45:50 Exp 7321 18 female R 1 4 24 immoralOther immoralSelf mismatch m n 0 0.5680 
19-May-2018_13:45:52 Exp 7321 18 female R 1 5 1 moralOther moralOther match n n 1 0.6561 
19-May-2018_13:45:54 Exp 7321 18 female R 1 5 2 immoralSelf immoralSelf match n n 1 0.8003 
19-May-2018_13:45:56 Exp 7321 18 female R 1 5 3 immoralSelf immoralOther mismatch m n 0 0.5864 
19-May-2018_13:45:59 Exp 7321 18 female R 1 5 4 moralSelf moralSelf match n n 1 0.5046 
19-May-2018_13:46:01 Exp 7321 18 female R 1 5 5 immoralSelf immoralSelf match n n 1 0.7426 
19-May-2018_13:46:03 Exp 7321 18 female R 1 5 6 immoralSelf immoralSelf match n n 1 0.7807 
19-May-2018_13:46:06 Exp 7321 18 female R 1 5 7 immoralOther immoralOther match n n 1 0.5310 
19-May-2018_13:46:08 Exp 7321 18 female R 1 5 8 moralOther immoralSelf mismatch m n 0 0.4990 
19-May-2018_13:46:10 Exp 7321 18 female R 1 5 9 moralOther moralOther match n n 1 0.4812 
19-May-2018_13:46:12 Exp 7321 18 female R 1 5 10 immoralOther immoralSelf mismatch m m 1 0.8593 
19-May-2018_13:46:14 Exp 7321 18 female R 1 5 11 immoralSelf moralSelf mismatch m n 0 0.5614 
19-May-2018_13:46:17 Exp 7321 18 female R 1 5 12 moralSelf immoralSelf mismatch m m 1 0.6195 
19-May-2018_13:46:19 Exp 7321 18 female R 1 5 13 immoralOther immoralOther match n n 1 0.5457 
19-May-2018_13:46:21 Exp 7321 18 female R 1 5 14 moralOther moralSelf mismatch m n 0 0.6158 
19-May-2018_13:46:24 Exp 7321 18 female R 1 5 15 moralSelf moralOther mismatch m m 1 0.7520 
19-May-2018_13:46:26 Exp 7321 18 female R 1 5 16 immoralOther immoralOther match n n 1 0.5801 
19-May-2018_13:46:28 Exp 7321 18 female R 1 5 17 moralOther moralSelf mismatch m n 0 0.7782 
19-May-2018_13:46:31 Exp 7321 18 female R 1 5 18 moralSelf immoralOther mismatch m m 1 0.7924 
19-May-2018_13:46:33 Exp 7321 18 female R 1 5 19 immoralSelf immoralOther mismatch m n 0 0.8525 
19-May-2018_13:46:36 Exp 7321 18 female R 1 5 20 moralSelf moralSelf match n n 1 0.8606 
19-May-2018_13:46:38 Exp 7321 18 female R 1 5 21 immoralOther immoralSelf mismatch m m 1 0.9307 
19-May-2018_13:46:40 Exp 7321 18 female R 1 5 22 moralSelf moralSelf match n n 1 0.5069 
19-May-2018_13:46:42 Exp 7321 18 female R 1 5 23 moralOther moralOther match n n 1 0.5770 
19-May-2018_13:46:45 Exp 7321 18 female R 1 5 24 immoralOther immoralSelf mismatch m m 1 0.6891 
19-May-2018_13:46:50 Exp 7321 18 female R 2 1 1 immoralOther immoralOther match n m 0 0.8193 
19-May-2018_13:46:53 Exp 7321 18 female R 2 1 2 moralOther immoralOther mismatch m ,< 2 0.7696 
19-May-2018_13:46:55 Exp 7321 18 female R 2 1 3 moralSelf moralSelf match n NA -1 1.0849 
19-May-2018_13:46:58 Exp 7321 18 female R 2 1 4 moralOther immoralSelf mismatch m m 1 0.6919 
19-May-2018_13:47:00 Exp 7321 18 female R 2 1 5 moralOther moralOther match n n 1 0.7000 
19-May-2018_13:47:02 Exp 7321 18 female R 2 1 6 immoralSelf immoralSelf match n m 0 0.7701 
19-May-2018_13:47:05 Exp 7321 18 female R 2 1 7 immoralOther immoralSelf mismatch m m 1 0.8423 
19-May-2018_13:47:07 Exp 7321 18 female R 2 1 8 immoralSelf immoralSelf match n m 0 0.7404 
19-May-2018_13:47:10 Exp 7321 18 female R 2 1 9 immoralSelf moralOther mismatch m n 0 0.9466 
19-May-2018_13:47:12 Exp 7321 18 female R 2 1 10 moralSelf moralSelf match n n 1 0.5767 
19-May-2018_13:47:14 Exp 7321 18 female R 2 1 11 immoralSelf moralOther mismatch m n 0 0.5208 
19-May-2018_13:47:17 Exp 7321 18 female R 2 1 12 immoralOther immoralOther match n n 1 0.7389 
19-May-2018_13:47:19 Exp 7321 18 female R 2 1 13 moralSelf immoralSelf mismatch m m 1 0.7612 
19-May-2018_13:47:21 Exp 7321 18 female R 2 1 14 immoralSelf immoralSelf match n n 1 0.7072 
19-May-2018_13:47:24 Exp 7321 18 female R 2 1 15 moralOther immoralSelf mismatch m m 1 0.6633 
19-May-2018_13:47:26 Exp 7321 18 female R 2 1 16 moralSelf immoralSelf mismatch m m 1 0.7095 
19-May-2018_13:47:28 Exp 7321 18 female R 2 1 17 immoralOther moralOther mismatch m m 1 0.6256 
19-May-2018_13:47:30 Exp 7321 18 female R 2 1 18 moralSelf moralSelf match n n 1 0.5838 
19-May-2018_13:47:32 Exp 7321 18 female R 2 1 19 moralSelf immoralOther mismatch m m 1 0.5338 
19-May-2018_13:47:35 Exp 7321 18 female R 2 1 20 moralOther moralOther match n n 1 0.5260 
19-May-2018_13:47:37 Exp 7321 18 female R 2 1 21 immoralSelf moralOther mismatch m m 1 0.5921 
19-May-2018_13:47:39 Exp 7321 18 female R 2 1 22 immoralOther immoralOther match n n 1 0.9087 
19-May-2018_13:47:41 Exp 7321 18 female R 2 1 23 immoralOther immoralSelf mismatch m m 1 0.4724 
19-May-2018_13:47:44 Exp 7321 18 female R 2 1 24 moralOther moralOther match n n 1 0.4844 
19-May-2018_13:47:46 Exp 7321 18 female R 2 2 1 moralOther moralOther match n n 1 0.7267 
19-May-2018_13:47:48 Exp 7321 18 female R 2 2 2 moralOther immoralSelf mismatch m m 1 0.5047 
19-May-2018_13:47:50 Exp 7321 18 female R 2 2 3 moralSelf moralSelf match n n 1 0.5748 
19-May-2018_13:47:53 Exp 7321 18 female R 2 2 4 immoralSelf immoralSelf match n n 1 0.9509 
19-May-2018_13:47:55 Exp 7321 18 female R 2 2 5 immoralSelf immoralSelf match n m 0 0.5311 
19-May-2018_13:47:58 Exp 7321 18 female R 2 2 6 immoralOther immoralSelf mismatch m m 1 0.9073 
19-May-2018_13:48:00 Exp 7321 18 female R 2 2 7 moralOther immoralSelf mismatch m m 1 0.9434 
19-May-2018_13:48:02 Exp 7321 18 female R 2 2 8 moralSelf immoralSelf mismatch m m 1 0.5655 
19-May-2018_13:48:05 Exp 7321 18 female R 2 2 9 immoralOther moralSelf mismatch m n 0 0.5517 
19-May-2018_13:48:07 Exp 7321 18 female R 2 2 10 moralOther moralOther match n n 1 0.4838 
19-May-2018_13:48:09 Exp 7321 18 female R 2 2 11 immoralSelf moralSelf mismatch m m 1 0.7579 
19-May-2018_13:48:11 Exp 7321 18 female R 2 2 12 moralSelf immoralSelf mismatch m m 1 0.5360 
19-May-2018_13:48:14 Exp 7321 18 female R 2 2 13 immoralOther immoralSelf mismatch m n 0 0.7362 
19-May-2018_13:48:16 Exp 7321 18 female R 2 2 14 moralSelf moralSelf match n n 1 0.5922 
19-May-2018_13:48:18 Exp 7321 18 female R 2 2 15 moralOther moralSelf mismatch m m 1 0.6924 
19-May-2018_13:48:20 Exp 7321 18 female R 2 2 16 moralSelf moralSelf match n m 0 0.7485 
19-May-2018_13:48:23 Exp 7321 18 female R 2 2 17 immoralOther immoralOther match n n 1 0.6807 
19-May-2018_13:48:25 Exp 7321 18 female R 2 2 18 moralSelf immoralOther mismatch m m 1 0.9469 
19-May-2018_13:48:28 Exp 7321 18 female R 2 2 19 immoralSelf immoralSelf match n n 1 0.8250 
19-May-2018_13:48:30 Exp 7321 18 female R 2 2 20 moralOther moralOther match n n 1 0.5510 
19-May-2018_13:48:32 Exp 7321 18 female R 2 2 21 immoralOther immoralOther match n n 1 0.5552 
19-May-2018_13:48:35 Exp 7321 18 female R 2 2 22 immoralSelf moralSelf mismatch m n 0 1.0473 
19-May-2018_13:48:37 Exp 7321 18 female R 2 2 23 immoralOther immoralOther match n n 1 0.5835 
19-May-2018_13:48:39 Exp 7321 18 female R 2 2 24 immoralSelf immoralOther mismatch m n 0 0.7899 
19-May-2018_13:48:42 Exp 7321 18 female R 2 3 1 immoralOther immoralOther match n n 1 0.6417 
19-May-2018_13:48:44 Exp 7321 18 female R 2 3 2 moralOther immoralSelf mismatch m m 1 0.6279 
19-May-2018_13:48:46 Exp 7321 18 female R 2 3 3 immoralSelf immoralSelf match n n 1 0.7200 
19-May-2018_13:48:49 Exp 7321 18 female R 2 3 4 immoralOther immoralSelf mismatch m m 1 0.7782 
19-May-2018_13:48:51 Exp 7321 18 female R 2 3 5 moralOther immoralOther mismatch m m 1 0.6643 
19-May-2018_13:48:53 Exp 7321 18 female R 2 3 6 moralOther moralOther match n n 1 0.6064 
19-May-2018_13:48:56 Exp 7321 18 female R 2 3 7 immoralOther immoralOther match n n 1 0.6325 
19-May-2018_13:48:58 Exp 7321 18 female R 2 3 8 moralSelf moralOther mismatch m n 0 0.5808 
19-May-2018_13:49:00 Exp 7321 18 female R 2 3 9 immoralSelf immoralOther mismatch m n 0 0.9788 
19-May-2018_13:49:03 Exp 7321 18 female R 2 3 10 immoralSelf moralSelf mismatch m m 1 0.8409 
19-May-2018_13:49:05 Exp 7321 18 female R 2 3 11 moralSelf moralOther mismatch m n 0 0.7951 
19-May-2018_13:49:08 Exp 7321 18 female R 2 3 12 moralSelf moralSelf match n n 1 0.7352 
19-May-2018_13:49:10 Exp 7321 18 female R 2 3 13 moralSelf immoralSelf mismatch m m 1 0.5754 
19-May-2018_13:49:12 Exp 7321 18 female R 2 3 14 immoralOther moralSelf mismatch m m 1 0.7675 
19-May-2018_13:49:14 Exp 7321 18 female R 2 3 15 moralSelf moralSelf match n n 1 0.5916 
19-May-2018_13:49:17 Exp 7321 18 female R 2 3 16 immoralSelf immoralSelf match n n 1 0.8677 
19-May-2018_13:49:19 Exp 7321 18 female R 2 3 17 immoralOther immoralOther match n n 1 0.8798 
19-May-2018_13:49:22 Exp 7321 18 female R 2 3 18 immoralSelf immoralOther mismatch m n 0 0.6901 
19-May-2018_13:49:24 Exp 7321 18 female R 2 3 19 immoralOther moralOther mismatch m m 1 0.8182 
19-May-2018_13:49:27 Exp 7321 18 female R 2 3 20 moralOther moralOther match n n 1 0.8242 
19-May-2018_13:49:29 Exp 7321 18 female R 2 3 21 immoralSelf immoralSelf match n n 1 0.7024 
19-May-2018_13:49:31 Exp 7321 18 female R 2 3 22 moralOther moralOther match n n 1 0.6045 
19-May-2018_13:49:33 Exp 7321 18 female R 2 3 23 moralOther immoralOther mismatch m m 1 0.6627 
19-May-2018_13:49:36 Exp 7321 18 female R 2 3 24 moralSelf moralSelf match n n 1 0.8128 
19-May-2018_13:49:52 Exp 7321 18 female R 2 4 1 moralSelf moralSelf match n n 1 0.7057 
19-May-2018_13:49:55 Exp 7321 18 female R 2 4 2 moralOther immoralSelf mismatch m m 1 0.7679 
19-May-2018_13:49:57 Exp 7321 18 female R 2 4 3 immoralSelf immoralSelf match n n 1 0.7840 
19-May-2018_13:49:59 Exp 7321 18 female R 2 4 4 moralOther immoralOther mismatch m m 1 0.6382 
19-May-2018_13:50:02 Exp 7321 18 female R 2 4 5 immoralOther immoralSelf mismatch m m 1 0.9682 
19-May-2018_13:50:04 Exp 7321 18 female R 2 4 6 moralSelf immoralOther mismatch m m 1 0.8004 
19-May-2018_13:50:07 Exp 7321 18 female R 2 4 7 immoralOther immoralOther match n n 1 0.7065 
19-May-2018_13:50:09 Exp 7321 18 female R 2 4 8 moralOther moralOther match n n 1 0.5368 
19-May-2018_13:50:11 Exp 7321 18 female R 2 4 9 immoralOther moralSelf mismatch m m 1 0.5928 
19-May-2018_13:50:13 Exp 7321 18 female R 2 4 10 moralOther immoralSelf mismatch m m 1 0.6769 
19-May-2018_13:50:15 Exp 7321 18 female R 2 4 11 moralSelf moralSelf match n n 1 0.5771 
19-May-2018_13:50:18 Exp 7321 18 female R 2 4 12 immoralOther immoralOther match n n 1 0.5592 
19-May-2018_13:50:20 Exp 7321 18 female R 2 4 13 immoralSelf moralOther mismatch m n 0 0.7772 
19-May-2018_13:50:22 Exp 7321 18 female R 2 4 14 immoralSelf immoralSelf match n n 1 0.7994 
19-May-2018_13:50:25 Exp 7321 18 female R 2 4 15 moralSelf immoralSelf mismatch m m 1 0.6335 
19-May-2018_13:50:27 Exp 7321 18 female R 2 4 16 moralOther moralOther match n n 1 0.5898 
19-May-2018_13:50:29 Exp 7321 18 female R 2 4 17 moralOther moralOther match n n 1 0.6578 
19-May-2018_13:50:32 Exp 7321 18 female R 2 4 18 immoralSelf immoralSelf match n n 1 0.7679 
19-May-2018_13:50:34 Exp 7321 18 female R 2 4 19 immoralSelf moralOther mismatch m m 1 0.6640 
19-May-2018_13:50:36 Exp 7321 18 female R 2 4 20 moralSelf moralSelf match n n 1 0.5262 
19-May-2018_13:50:39 Exp 7321 18 female R 2 4 21 immoralSelf immoralOther mismatch m n 0 0.8004 
19-May-2018_13:50:41 Exp 7321 18 female R 2 4 22 immoralOther moralOther mismatch m m 1 0.6185 
19-May-2018_13:50:43 Exp 7321 18 female R 2 4 23 immoralOther immoralOther match n n 1 0.5606 
19-May-2018_13:50:45 Exp 7321 18 female R 2 4 24 moralSelf immoralSelf mismatch m m 1 0.8828 
19-May-2018_13:50:48 Exp 7321 18 female R 2 5 1 moralSelf moralOther mismatch m m 1 0.7649 
19-May-2018_13:50:50 Exp 7321 18 female R 2 5 2 moralOther moralOther match n n 1 0.5510 
19-May-2018_13:50:52 Exp 7321 18 female R 2 5 3 immoralOther immoralOther match n n 1 0.6111 
19-May-2018_13:50:55 Exp 7321 18 female R 2 5 4 moralOther immoralOther mismatch m m 1 0.6193 
19-May-2018_13:50:57 Exp 7321 18 female R 2 5 5 moralOther moralOther match n n 1 0.5374 
19-May-2018_13:50:59 Exp 7321 18 female R 2 5 6 immoralSelf immoralSelf match n n 1 0.8155 
19-May-2018_13:51:02 Exp 7321 18 female R 2 5 7 moralOther moralSelf mismatch m m 1 0.8157 
19-May-2018_13:51:04 Exp 7321 18 female R 2 5 8 immoralSelf immoralOther mismatch m n 0 0.7837 
19-May-2018_13:51:06 Exp 7321 18 female R 2 5 9 immoralSelf immoralSelf match n n 1 0.6939 
19-May-2018_13:51:09 Exp 7321 18 female R 2 5 10 moralSelf moralSelf match n n 1 0.6461 
19-May-2018_13:51:11 Exp 7321 18 female R 2 5 11 immoralSelf immoralSelf match n n 1 0.7122 
19-May-2018_13:51:13 Exp 7321 18 female R 2 5 12 moralOther moralOther match n n 1 0.6443 
19-May-2018_13:51:16 Exp 7321 18 female R 2 5 13 moralSelf moralOther mismatch m m 1 0.9345 
19-May-2018_13:51:18 Exp 7321 18 female R 2 5 14 immoralOther moralSelf mismatch m m 1 0.7346 
19-May-2018_13:51:20 Exp 7321 18 female R 2 5 15 immoralOther moralSelf mismatch m m 1 0.6308 
19-May-2018_13:51:23 Exp 7321 18 female R 2 5 16 immoralOther moralOther mismatch m m 1 0.8828 
19-May-2018_13:51:25 Exp 7321 18 female R 2 5 17 moralSelf moralSelf match n n 1 0.7250 
19-May-2018_13:51:27 Exp 7321 18 female R 2 5 18 moralSelf moralOther mismatch m m 1 0.6231 
19-May-2018_13:51:30 Exp 7321 18 female R 2 5 19 immoralSelf moralSelf mismatch m m 1 0.7812 
19-May-2018_13:51:32 Exp 7321 18 female R 2 5 20 immoralSelf moralSelf mismatch m m 1 0.5394 
19-May-2018_13:51:34 Exp 7321 18 female R 2 5 21 moralSelf moralSelf match n m 0 0.5056 
19-May-2018_13:51:36 Exp 7321 18 female R 2 5 22 moralOther immoralOther mismatch m m 1 0.6956 
19-May-2018_13:51:39 Exp 7321 18 female R 2 5 23 immoralOther immoralOther match n n 1 0.7358 
19-May-2018_13:51:41 Exp 7321 18 female R 2 5 24 immoralOther immoralOther match n n 1 0.7119 
19-May-2018_13:51:47 Exp 7321 18 female R 3 1 1 immoralSelf immoralSelf match n NA -1 1.0850 
19-May-2018_13:51:49 Exp 7321 18 female R 3 1 2 immoralOther immoralOther match n n 1 0.5444 
19-May-2018_13:51:51 Exp 7321 18 female R 3 1 3 immoralOther immoralOther match n n 1 0.6145 
19-May-2018_13:51:54 Exp 7321 18 female R 3 1 4 immoralOther immoralSelf mismatch m n 0 0.6467 
19-May-2018_13:51:56 Exp 7321 18 female R 3 1 5 moralOther moralOther match n n 1 0.6887 
19-May-2018_13:51:58 Exp 7321 18 female R 3 1 6 immoralOther moralOther mismatch m m 1 0.6410 
19-May-2018_13:52:01 Exp 7321 18 female R 3 1 7 immoralSelf moralSelf mismatch m m 1 0.9710 
19-May-2018_13:52:03 Exp 7321 18 female R 3 1 8 moralOther immoralSelf mismatch m m 1 0.7473 
19-May-2018_13:52:05 Exp 7321 18 female R 3 1 9 moralOther moralSelf mismatch m m 1 0.5673 
19-May-2018_13:52:08 Exp 7321 18 female R 3 1 10 immoralSelf moralOther mismatch m m 1 0.7434 
19-May-2018_13:52:10 Exp 7321 18 female R 3 1 11 moralSelf immoralOther mismatch m m 1 0.8057 
19-May-2018_13:52:13 Exp 7321 18 female R 3 1 12 immoralSelf immoralSelf match n n 1 0.7917 
19-May-2018_13:52:15 Exp 7321 18 female R 3 1 13 immoralOther moralOther mismatch m m 1 0.7238 
19-May-2018_13:52:17 Exp 7321 18 female R 3 1 14 moralSelf moralSelf match n n 1 0.7099 
19-May-2018_13:52:20 Exp 7321 18 female R 3 1 15 moralSelf moralSelf match n m 0 0.6261 
19-May-2018_13:52:22 Exp 7321 18 female R 3 1 16 moralOther moralOther match n n 1 0.6802 
19-May-2018_13:52:24 Exp 7321 18 female R 3 1 17 moralSelf immoralOther mismatch m m 1 0.6743 
19-May-2018_13:52:26 Exp 7321 18 female R 3 1 18 moralOther immoralSelf mismatch m m 1 0.6304 
19-May-2018_13:52:29 Exp 7321 18 female R 3 1 19 immoralSelf immoralSelf match n n 1 0.7385 
19-May-2018_13:52:31 Exp 7321 18 female R 3 1 20 moralSelf moralSelf match n n 1 0.8169 
19-May-2018_13:52:34 Exp 7321 18 female R 3 1 21 immoralSelf moralOther mismatch m n 0 0.7208 
19-May-2018_13:52:36 Exp 7321 18 female R 3 1 22 moralOther moralOther match n n 1 0.5631 
19-May-2018_13:52:38 Exp 7321 18 female R 3 1 23 immoralOther immoralOther match n n 1 0.5251 
19-May-2018_13:52:40 Exp 7321 18 female R 3 1 24 moralSelf moralOther mismatch m n 0 0.9352 
19-May-2018_13:52:43 Exp 7321 18 female R 3 2 1 immoralSelf immoralSelf match n n 1 0.6554 
19-May-2018_13:52:45 Exp 7321 18 female R 3 2 2 immoralOther immoralSelf mismatch m m 1 0.8155 
19-May-2018_13:52:47 Exp 7321 18 female R 3 2 3 moralSelf moralSelf match n n 1 0.6077 
19-May-2018_13:52:50 Exp 7321 18 female R 3 2 4 immoralSelf immoralSelf match n n 1 0.7918 
19-May-2018_13:52:52 Exp 7321 18 female R 3 2 5 moralSelf moralSelf match n n 1 0.7879 
19-May-2018_13:52:54 Exp 7321 18 female R 3 2 6 immoralOther moralSelf mismatch m m 1 0.5920 
19-May-2018_13:52:57 Exp 7321 18 female R 3 2 7 immoralSelf immoralSelf match n n 1 0.6202 
19-May-2018_13:52:59 Exp 7321 18 female R 3 2 8 moralSelf immoralOther mismatch m m 1 0.7783 
19-May-2018_13:53:01 Exp 7321 18 female R 3 2 9 moralOther immoralOther mismatch m m 1 0.5764 
19-May-2018_13:53:04 Exp 7321 18 female R 3 2 10 immoralSelf moralOther mismatch m n 0 1.0726 
19-May-2018_13:53:06 Exp 7321 18 female R 3 2 11 moralOther moralOther match n n 1 0.5407 
19-May-2018_13:53:08 Exp 7321 18 female R 3 2 12 moralOther moralOther match n n 1 0.4909 
19-May-2018_13:53:10 Exp 7321 18 female R 3 2 13 moralOther immoralOther mismatch m m 1 0.5230 
19-May-2018_13:53:13 Exp 7321 18 female R 3 2 14 immoralSelf immoralOther mismatch m m 1 0.8771 
19-May-2018_13:53:15 Exp 7321 18 female R 3 2 15 moralSelf moralSelf match n n 1 0.7592 
19-May-2018_13:53:18 Exp 7321 18 female R 3 2 16 moralSelf immoralOther mismatch m m 1 0.6894 
19-May-2018_13:53:20 Exp 7321 18 female R 3 2 17 immoralOther immoralOther match n n 1 0.4976 
19-May-2018_13:53:22 Exp 7321 18 female R 3 2 18 immoralSelf moralOther mismatch m n 0 0.8156 
19-May-2018_13:53:24 Exp 7321 18 female R 3 2 19 moralOther moralOther match n n 1 0.4797 
19-May-2018_13:53:27 Exp 7321 18 female R 3 2 20 moralOther immoralOther mismatch m m 1 0.5859 
19-May-2018_13:53:29 Exp 7321 18 female R 3 2 21 immoralOther moralOther mismatch m m 1 0.6720 
19-May-2018_13:53:31 Exp 7321 18 female R 3 2 22 immoralOther immoralOther match n n 1 0.7081 
19-May-2018_13:53:33 Exp 7321 18 female R 3 2 23 immoralOther immoralOther match n m 0 0.5122 
19-May-2018_13:53:36 Exp 7321 18 female R 3 2 24 moralSelf moralOther mismatch m m 1 0.5963 
19-May-2018_13:53:38 Exp 7321 18 female R 3 3 1 moralSelf moralSelf match n n 1 0.8245 
19-May-2018_13:53:41 Exp 7321 18 female R 3 3 2 immoralSelf immoralSelf match n n 1 0.8466 
19-May-2018_13:53:43 Exp 7321 18 female R 3 3 3 immoralOther immoralOther match n n 1 0.5768 
19-May-2018_13:53:45 Exp 7321 18 female R 3 3 4 immoralSelf moralSelf mismatch m n 0 0.9209 
19-May-2018_13:53:47 Exp 7321 18 female R 3 3 5 moralSelf moralSelf match n n 1 0.5871 
19-May-2018_13:53:50 Exp 7321 18 female R 3 3 6 moralOther immoralSelf mismatch m m 1 0.8151 
19-May-2018_13:53:52 Exp 7321 18 female R 3 3 7 moralOther immoralOther mismatch m m 1 0.6953 
19-May-2018_13:53:55 Exp 7321 18 female R 3 3 8 immoralOther moralOther mismatch m m 1 0.6955 
19-May-2018_13:53:57 Exp 7321 18 female R 3 3 9 moralOther moralOther match n n 1 0.5836 
19-May-2018_13:53:59 Exp 7321 18 female R 3 3 10 immoralSelf moralOther mismatch m m 1 0.8137 
19-May-2018_13:54:02 Exp 7321 18 female R 3 3 11 immoralOther immoralOther match n n 1 0.7019 
19-May-2018_13:54:04 Exp 7321 18 female R 3 3 12 moralSelf immoralOther mismatch m m 1 0.7320 
19-May-2018_13:54:06 Exp 7321 18 female R 3 3 13 immoralOther immoralOther match n n 1 0.7081 
19-May-2018_13:54:08 Exp 7321 18 female R 3 3 14 moralOther moralSelf mismatch m m 1 0.6002 
19-May-2018_13:54:11 Exp 7321 18 female R 3 3 15 immoralSelf immoralSelf match n n 1 0.7783 
19-May-2018_13:54:13 Exp 7321 18 female R 3 3 16 moralSelf moralOther mismatch m m 1 0.8005 
19-May-2018_13:54:16 Exp 7321 18 female R 3 3 17 immoralSelf immoralSelf match n n 1 0.9387 
19-May-2018_13:54:18 Exp 7321 18 female R 3 3 18 moralOther moralOther match n n 1 0.6408 
19-May-2018_13:54:20 Exp 7321 18 female R 3 3 19 immoralOther moralOther mismatch m m 1 0.6029 
19-May-2018_13:54:23 Exp 7321 18 female R 3 3 20 moralSelf moralSelf match n n 1 0.5170 
19-May-2018_13:54:25 Exp 7321 18 female R 3 3 21 immoralSelf moralOther mismatch m m 1 0.9211 
19-May-2018_13:54:27 Exp 7321 18 female R 3 3 22 moralOther moralOther match n n 1 0.5473 
19-May-2018_13:54:30 Exp 7321 18 female R 3 3 23 immoralOther moralOther mismatch m m 1 0.6714 
19-May-2018_13:54:32 Exp 7321 18 female R 3 3 24 moralSelf immoralOther mismatch m m 1 0.7716 
19-May-2018_13:55:20 Exp 7321 18 female R 3 4 1 moralSelf moralSelf match n m 0 0.5723 
19-May-2018_13:55:22 Exp 7321 18 female R 3 4 2 moralOther immoralSelf mismatch m m 1 0.6125 
19-May-2018_13:55:24 Exp 7321 18 female R 3 4 3 immoralOther moralSelf mismatch m m 1 0.7806 
19-May-2018_13:55:26 Exp 7321 18 female R 3 4 4 moralSelf moralSelf match n n 1 0.5467 
19-May-2018_13:55:29 Exp 7321 18 female R 3 4 5 moralOther moralSelf mismatch m m 1 0.5048 
19-May-2018_13:55:31 Exp 7321 18 female R 3 4 6 moralSelf moralSelf match n n 1 0.5350 
19-May-2018_13:55:33 Exp 7321 18 female R 3 4 7 moralOther immoralSelf mismatch m n 0 0.8310 
19-May-2018_13:55:35 Exp 7321 18 female R 3 4 8 moralOther moralOther match n n 1 0.4991 
19-May-2018_13:55:38 Exp 7321 18 female R 3 4 9 immoralSelf immoralSelf match n n 1 0.9134 
19-May-2018_13:55:40 Exp 7321 18 female R 3 4 10 immoralSelf moralOther mismatch m m 1 0.6855 
19-May-2018_13:55:42 Exp 7321 18 female R 3 4 11 immoralOther moralOther mismatch m m 1 0.6076 
19-May-2018_13:55:45 Exp 7321 18 female R 3 4 12 immoralSelf moralSelf mismatch m m 1 1.0557 
19-May-2018_13:55:47 Exp 7321 18 female R 3 4 13 moralSelf immoralSelf mismatch m m 1 0.7118 
19-May-2018_13:55:50 Exp 7321 18 female R 3 4 14 moralOther moralOther match n n 1 0.5080 
19-May-2018_13:55:52 Exp 7321 18 female R 3 4 15 immoralSelf immoralOther mismatch m m 1 0.9361 
19-May-2018_13:55:54 Exp 7321 18 female R 3 4 16 moralSelf immoralSelf mismatch m m 1 0.6963 
19-May-2018_13:55:57 Exp 7321 18 female R 3 4 17 immoralSelf immoralSelf match n n 1 0.6884 
19-May-2018_13:55:59 Exp 7321 18 female R 3 4 18 immoralOther immoralOther match n n 1 0.5605 
19-May-2018_13:56:01 Exp 7321 18 female R 3 4 19 moralSelf immoralSelf mismatch m m 1 0.5946 
19-May-2018_13:56:04 Exp 7321 18 female R 3 4 20 immoralOther immoralSelf mismatch m NA -1 1.0850 
19-May-2018_13:56:06 Exp 7321 18 female R 3 4 21 immoralSelf immoralSelf match n n 1 0.7609 
19-May-2018_13:56:08 Exp 7321 18 female R 3 4 22 immoralOther immoralOther match n n 1 0.5070 
19-May-2018_13:56:11 Exp 7321 18 female R 3 4 23 moralOther moralOther match n n 1 0.5292 
19-May-2018_13:56:13 Exp 7321 18 female R 3 4 24 immoralOther immoralOther match n n 1 0.5853 
19-May-2018_13:56:15 Exp 7321 18 female R 3 5 1 immoralOther immoralOther match n n 1 0.5355 
19-May-2018_13:56:17 Exp 7321 18 female R 3 5 2 moralOther moralOther match n n 1 0.5516 
19-May-2018_13:56:20 Exp 7321 18 female R 3 5 3 moralOther moralSelf mismatch m n 0 0.8836 
19-May-2018_13:56:22 Exp 7321 18 female R 3 5 4 immoralOther moralOther mismatch m m 1 0.5898 
19-May-2018_13:56:24 Exp 7321 18 female R 3 5 5 immoralOther moralSelf mismatch m m 1 0.7699 
19-May-2018_13:56:27 Exp 7321 18 female R 3 5 6 moralOther immoralSelf mismatch m m 1 0.7061 
19-May-2018_13:56:29 Exp 7321 18 female R 3 5 7 moralOther moralSelf mismatch m n 0 0.7202 
19-May-2018_13:56:31 Exp 7321 18 female R 3 5 8 moralSelf immoralOther mismatch m m 1 0.5704 
19-May-2018_13:56:33 Exp 7321 18 female R 3 5 9 moralOther moralOther match n n 1 0.5304 
19-May-2018_13:56:36 Exp 7321 18 female R 3 5 10 immoralSelf immoralSelf match n n 1 0.8266 
19-May-2018_13:56:38 Exp 7321 18 female R 3 5 11 moralSelf immoralOther mismatch m m 1 0.7447 
19-May-2018_13:56:40 Exp 7321 18 female R 3 5 12 immoralOther immoralOther match n n 1 0.5029 
19-May-2018_13:56:43 Exp 7321 18 female R 3 5 13 immoralSelf moralSelf mismatch m n 0 0.6530 
19-May-2018_13:56:45 Exp 7321 18 female R 3 5 14 immoralOther moralSelf mismatch m m 1 0.5573 
19-May-2018_13:56:47 Exp 7321 18 female R 3 5 15 moralOther moralOther match n n 1 0.5512 
19-May-2018_13:56:49 Exp 7321 18 female R 3 5 16 moralSelf immoralOther mismatch m m 1 0.7153 
19-May-2018_13:56:51 Exp 7321 18 female R 3 5 17 moralSelf moralSelf match n n 1 0.5595 
19-May-2018_13:56:54 Exp 7321 18 female R 3 5 18 immoralOther immoralOther match n n 1 0.5376 
19-May-2018_13:56:56 Exp 7321 18 female R 3 5 19 immoralSelf moralOther mismatch m m 1 0.7917 
19-May-2018_13:56:58 Exp 7321 18 female R 3 5 20 immoralSelf immoralSelf match n n 1 0.8119 
19-May-2018_13:57:01 Exp 7321 18 female R 3 5 21 immoralSelf immoralSelf match n m 0 0.6359 
19-May-2018_13:57:03 Exp 7321 18 female R 3 5 22 moralSelf moralSelf match n n 1 0.4882 
19-May-2018_13:57:05 Exp 7321 18 female R 3 5 23 immoralSelf moralOther mismatch m m 1 0.6484 
19-May-2018_13:57:07 Exp 7321 18 female R 3 5 24 moralSelf moralSelf match n n 1 0.6644 
Date Prac Sub Age Sex Hand Block Bin Trial Shape Label Match CorrResp Resp ACC RT
19-May-2018_14:01:37 Exp 7321 18 female R 1 1 1 immoralSelf immoralSelf match n NA -1 1.0850 
19-May-2018_14:01:39 Exp 7321 18 female R 1 1 2 moralSelf moralOther mismatch m u 2 0.5900 
19-May-2018_14:01:42 Exp 7321 18 female R 1 1 3 moralSelf moralSelf match n NA -1 1.0850 
19-May-2018_14:01:44 Exp 7321 18 female R 1 1 4 immoralOther immoralSelf mismatch m NA -1 1.0850 
19-May-2018_14:01:47 Exp 7321 18 female R 1 1 5 moralOther moralOther match n m 0 0.7002 
19-May-2018_14:01:49 Exp 7321 18 female R 1 1 6 immoralSelf moralOther mismatch m NA -1 1.0850 
19-May-2018_14:01:52 Exp 7321 18 female R 1 1 7 immoralSelf moralOther mismatch m n 0 0.6526 
19-May-2018_14:01:54 Exp 7321 18 female R 1 1 8 moralSelf moralSelf match n m 0 0.6766 
19-May-2018_14:01:57 Exp 7321 18 female R 1 1 9 immoralOther immoralOther match n n 1 1.0569 
19-May-2018_14:01:59 Exp 7321 18 female R 1 1 10 moralOther moralSelf mismatch m n 0 1.0549 
19-May-2018_14:02:02 Exp 7321 18 female R 1 1 11 moralOther moralOther match n n 1 0.7351 
19-May-2018_14:02:04 Exp 7321 18 female R 1 1 12 moralSelf immoralSelf mismatch m m 1 0.6392 
19-May-2018_14:02:06 Exp 7321 18 female R 1 1 13 immoralSelf immoralOther mismatch m n 0 0.7453 
19-May-2018_14:02:09 Exp 7321 18 female R 1 1 14 immoralOther immoralOther match n n 1 0.6235 
19-May-2018_14:02:11 Exp 7321 18 female R 1 1 15 immoralSelf immoralSelf match n n 1 0.8536 
19-May-2018_14:02:14 Exp 7321 18 female R 1 1 16 moralSelf immoralSelf mismatch m m 1 0.7497 
19-May-2018_14:02:16 Exp 7321 18 female R 1 1 17 immoralSelf immoralSelf match n n 1 0.9218 
19-May-2018_14:02:18 Exp 7321 18 female R 1 1 18 moralOther moralOther match n n 1 0.5640 
19-May-2018_14:02:20 Exp 7321 18 female R 1 1 19 immoralOther immoralOther match n n 1 0.5822 
19-May-2018_14:02:23 Exp 7321 18 female R 1 1 20 moralSelf moralSelf match n n 1 0.5083 
19-May-2018_14:02:25 Exp 7321 18 female R 1 1 21 moralOther moralSelf mismatch m m 1 1.0244 
19-May-2018_14:02:28 Exp 7321 18 female R 1 1 22 immoralOther moralSelf mismatch m m 1 0.6946 
19-May-2018_14:02:30 Exp 7321 18 female R 1 1 23 moralOther immoralOther mismatch m m 1 0.7027 
19-May-2018_14:02:32 Exp 7321 18 female R 1 1 24 immoralOther immoralSelf mismatch m m 1 0.5808 
19-May-2018_14:02:34 Exp 7321 18 female R 1 2 1 immoralOther moralSelf mismatch m m 1 0.6589 
19-May-2018_14:02:37 Exp 7321 18 female R 1 2 2 moralOther moralOther match n n 1 0.8410 
19-May-2018_14:02:39 Exp 7321 18 female R 1 2 3 immoralOther immoralOther match n n 1 0.5792 
19-May-2018_14:02:42 Exp 7321 18 female R 1 2 4 moralSelf moralSelf match n m 0 0.7693 
19-May-2018_14:02:44 Exp 7321 18 female R 1 2 5 immoralSelf immoralSelf match n n 1 0.8735 
19-May-2018_14:02:46 Exp 7321 18 female R 1 2 6 moralOther moralOther match n n 1 0.5097 
19-May-2018_14:02:49 Exp 7321 18 female R 1 2 7 moralOther moralOther match n n 1 0.7217 
19-May-2018_14:02:51 Exp 7321 18 female R 1 2 8 moralSelf moralSelf match n n 1 0.4918 
19-May-2018_14:02:53 Exp 7321 18 female R 1 2 9 immoralSelf moralSelf mismatch m m 1 1.0040 
19-May-2018_14:02:56 Exp 7321 18 female R 1 2 10 moralSelf immoralSelf mismatch m n 0 0.8381 
19-May-2018_14:02:58 Exp 7321 18 female R 1 2 11 moralSelf immoralSelf mismatch m n 0 0.5843 
19-May-2018_14:03:00 Exp 7321 18 female R 1 2 12 immoralSelf moralSelf mismatch m m 1 0.8624 
19-May-2018_14:03:03 Exp 7321 18 female R 1 2 13 moralOther immoralOther mismatch m m 1 0.7246 
19-May-2018_14:03:05 Exp 7321 18 female R 1 2 14 moralSelf immoralSelf mismatch m m 1 0.6546 
19-May-2018_14:03:07 Exp 7321 18 female R 1 2 15 immoralOther immoralSelf mismatch m n 0 0.6147 
19-May-2018_14:03:10 Exp 7321 18 female R 1 2 16 moralOther moralSelf mismatch m m 1 1.0310 
19-May-2018_14:03:12 Exp 7321 18 female R 1 2 17 moralSelf moralSelf match n n 1 0.6191 
19-May-2018_14:03:15 Exp 7321 18 female R 1 2 18 immoralSelf immoralSelf match n NA -1 1.0850 
19-May-2018_14:03:17 Exp 7321 18 female R 1 2 19 immoralOther immoralOther match n n 1 0.5313 
19-May-2018_14:03:19 Exp 7321 18 female R 1 2 20 moralOther immoralOther mismatch m m 1 0.6035 
19-May-2018_14:03:21 Exp 7321 18 female R 1 2 21 immoralOther moralOther mismatch m n 0 0.5416 
19-May-2018_14:03:24 Exp 7321 18 female R 1 2 22 immoralOther immoralOther match n n 1 0.6757 
19-May-2018_14:03:26 Exp 7321 18 female R 1 2 23 immoralSelf immoralSelf match n m 0 1.0159 
19-May-2018_14:03:29 Exp 7321 18 female R 1 2 24 immoralSelf moralOther mismatch m m 1 0.6960 
Date Prac Sub Age Sex Hand Block Bin Trial Shape Label Match CorrResp Resp ACC RT
19-May-2018_14:09:12 Exp 7321 18 female R 1 1 1 immoralSelf immoralSelf match n n 1 1.0274 
19-May-2018_14:09:14 Exp 7321 18 female R 1 1 2 moralOther immoralOther mismatch m m 1 0.6296 
19-May-2018_14:09:16 Exp 7321 18 female R 1 1 3 moralOther moralSelf mismatch m m 1 0.8657 
19-May-2018_14:09:19 Exp 7321 18 female R 1 1 4 immoralSelf immoralSelf match n n 1 0.7518 
19-May-2018_14:09:21 Exp 7321 18 female R 1 1 5 moralOther moralOther match n n 1 0.7160 
19-May-2018_14:09:24 Exp 7321 18 female R 1 1 6 moralSelf immoralSelf mismatch m m 1 1.0322 
19-May-2018_14:09:26 Exp 7321 18 female R 1 1 7 immoralSelf immoralSelf match n n 1 0.6683 
19-May-2018_14:09:28 Exp 7321 18 female R 1 1 8 moralSelf immoralOther mismatch m m 1 0.7124 
19-May-2018_14:09:31 Exp 7321 18 female R 1 1 9 moralSelf immoralSelf mismatch m m 1 0.5166 
19-May-2018_14:09:33 Exp 7321 18 female R 1 1 10 immoralOther immoralOther match n n 1 0.5206 
19-May-2018_14:09:35 Exp 7321 18 female R 1 1 11 immoralOther moralSelf mismatch m m 1 0.5469 
19-May-2018_14:09:37 Exp 7321 18 female R 1 1 12 immoralOther moralSelf mismatch m m 1 0.8408 
19-May-2018_14:09:40 Exp 7321 18 female R 1 1 13 moralSelf moralSelf match n n 1 0.8590 
19-May-2018_14:09:42 Exp 7321 18 female R 1 1 14 immoralSelf moralSelf mismatch m m 1 0.9851 
19-May-2018_14:09:45 Exp 7321 18 female R 1 1 15 moralSelf moralSelf match n n 1 0.5274 
19-May-2018_14:09:47 Exp 7321 18 female R 1 1 16 immoralOther immoralOther match n n 1 0.6554 
19-May-2018_14:09:49 Exp 7321 18 female R 1 1 17 moralOther moralOther match n n 1 0.7116 
19-May-2018_14:09:51 Exp 7321 18 female R 1 1 18 moralSelf moralSelf match n n 1 0.5317 
19-May-2018_14:09:54 Exp 7321 18 female R 1 1 19 moralOther moralOther match n n 1 0.7238 
19-May-2018_14:09:56 Exp 7321 18 female R 1 1 20 immoralOther immoralSelf mismatch m m 1 0.5980 
19-May-2018_14:09:58 Exp 7321 18 female R 1 1 21 immoralOther immoralOther match n n 1 0.5601 
19-May-2018_14:10:00 Exp 7321 18 female R 1 1 22 moralOther immoralSelf mismatch m m 1 0.7063 
19-May-2018_14:10:03 Exp 7321 18 female R 1 1 23 immoralSelf moralOther mismatch m m 1 0.7283 
19-May-2018_14:10:05 Exp 7321 18 female R 1 1 24 immoralSelf immoralOther mismatch m m 1 0.7686 
19-May-2018_14:10:08 Exp 7321 18 female R 1 2 1 immoralSelf immoralSelf match n n 1 0.7367 
19-May-2018_14:10:10 Exp 7321 18 female R 1 2 2 immoralOther moralOther mismatch m m 1 0.7127 
19-May-2018_14:10:12 Exp 7321 18 female R 1 2 3 immoralOther moralOther mismatch m m 1 0.5889 
19-May-2018_14:10:15 Exp 7321 18 female R 1 2 4 moralOther moralOther match n n 1 0.7370 
19-May-2018_14:10:17 Exp 7321 18 female R 1 2 5 immoralSelf moralSelf mismatch m n 0 0.7372 
19-May-2018_14:10:19 Exp 7321 18 female R 1 2 6 immoralSelf moralOther mismatch m m 1 0.7593 
19-May-2018_14:10:22 Exp 7321 18 female R 1 2 7 immoralOther immoralOther match n n 1 0.7214 
19-May-2018_14:10:24 Exp 7321 18 female R 1 2 8 moralSelf moralSelf match n n 1 0.4915 
19-May-2018_14:10:26 Exp 7321 18 female R 1 2 9 immoralSelf immoralSelf match n n 1 0.7717 
19-May-2018_14:10:29 Exp 7321 18 female R 1 2 10 immoralSelf immoralSelf match n m 0 0.8117 
19-May-2018_14:10:31 Exp 7321 18 female R 1 2 11 moralSelf immoralSelf mismatch m m 1 0.5959 
19-May-2018_14:10:33 Exp 7321 18 female R 1 2 12 moralSelf moralSelf match n n 1 0.5121 
19-May-2018_14:10:35 Exp 7321 18 female R 1 2 13 moralSelf moralOther mismatch m m 1 0.6442 
19-May-2018_14:10:38 Exp 7321 18 female R 1 2 14 moralSelf immoralSelf mismatch m m 1 0.6704 
19-May-2018_14:10:40 Exp 7321 18 female R 1 2 15 immoralSelf moralSelf mismatch m m 1 0.8504 
19-May-2018_14:10:42 Exp 7321 18 female R 1 2 16 moralOther immoralSelf mismatch m m 1 0.6187 
19-May-2018_14:10:45 Exp 7321 18 female R 1 2 17 moralOther immoralOther mismatch m m 1 0.6728 
19-May-2018_14:10:47 Exp 7321 18 female R 1 2 18 immoralOther moralSelf mismatch m m 1 0.6208 
19-May-2018_14:10:49 Exp 7321 18 female R 1 2 19 moralOther moralSelf mismatch m m 1 0.8350 
19-May-2018_14:10:51 Exp 7321 18 female R 1 2 20 immoralOther immoralOther match n n 1 0.5511 
19-May-2018_14:10:54 Exp 7321 18 female R 1 2 21 moralOther moralOther match n m 0 0.5633 
19-May-2018_14:10:56 Exp 7321 18 female R 1 2 22 immoralOther immoralOther match n n 1 0.6294 
19-May-2018_14:10:58 Exp 7321 18 female R 1 2 23 moralSelf moralSelf match n n 1 0.5136 
19-May-2018_14:11:00 Exp 7321 18 female R 1 2 24 moralOther moralOther match n n 1 0.7016 
Date Prac Sub Age Sex Hand Block Bin Trial Shape Label Match CorrResp Resp ACC RT
19-May-2018_14:16:13 Exp 7321 18 female R 1 1 1 moralOther moralOther match n m 0 0.7534 
19-May-2018_14:16:15 Exp 7321 18 female R 1 1 2 moralSelf immoralOther mismatch m m 1 0.6775 
19-May-2018_14:16:18 Exp 7321 18 female R 1 1 3 moralOther moralSelf mismatch m n 0 0.5837 
19-May-2018_14:16:20 Exp 7321 18 female R 1 1 4 moralOther immoralSelf mismatch m m 1 0.9338 
19-May-2018_14:16:22 Exp 7321 18 female R 1 1 5 immoralOther moralSelf mismatch m m 1 0.6939 
19-May-2018_14:16:25 Exp 7321 18 female R 1 1 6 moralOther immoralSelf mismatch m m 1 0.8620 
19-May-2018_14:16:27 Exp 7321 18 female R 1 1 7 immoralOther immoralOther match n n 1 0.5642 
19-May-2018_14:16:29 Exp 7321 18 female R 1 1 8 immoralOther moralSelf mismatch m m 1 0.5584 
19-May-2018_14:16:32 Exp 7321 18 female R 1 1 9 immoralSelf moralSelf mismatch m n 0 0.6805 
19-May-2018_14:16:34 Exp 7321 18 female R 1 1 10 immoralOther immoralOther match n n 1 0.5306 
19-May-2018_14:16:36 Exp 7321 18 female R 1 1 11 immoralSelf immoralSelf match n n 1 0.8346 
19-May-2018_14:16:39 Exp 7321 18 female R 1 1 12 moralSelf moralOther mismatch m n 0 0.8388 
19-May-2018_14:16:41 Exp 7321 18 female R 1 1 13 immoralOther immoralOther match n n 1 0.5530 
19-May-2018_14:16:43 Exp 7321 18 female R 1 1 14 moralSelf immoralOther mismatch m m 1 0.7411 
19-May-2018_14:16:46 Exp 7321 18 female R 1 1 15 immoralSelf immoralSelf match n n 1 0.7392 
19-May-2018_14:16:48 Exp 7321 18 female R 1 1 16 immoralOther moralSelf mismatch m m 1 0.6574 
19-May-2018_14:16:50 Exp 7321 18 female R 1 1 17 immoralSelf immoralSelf match n n 1 0.6795 
19-May-2018_14:16:52 Exp 7321 18 female R 1 1 18 immoralSelf moralSelf mismatch m n 0 0.5135 
19-May-2018_14:16:55 Exp 7321 18 female R 1 1 19 immoralSelf moralSelf mismatch m m 1 0.6457 
19-May-2018_14:16:57 Exp 7321 18 female R 1 1 20 moralOther moralOther match n n 1 0.6478 
19-May-2018_14:16:59 Exp 7321 18 female R 1 1 21 moralSelf moralSelf match n n 1 0.6880 
19-May-2018_14:17:01 Exp 7321 18 female R 1 1 22 moralSelf moralSelf match n n 1 0.4961 
19-May-2018_14:17:04 Exp 7321 18 female R 1 1 23 moralSelf moralSelf match n n 1 0.5203 
19-May-2018_14:17:06 Exp 7321 18 female R 1 1 24 moralOther moralOther match n n 1 0.6425 
19-May-2018_14:17:08 Exp 7321 18 female R 1 2 1 immoralSelf moralOther mismatch m n 0 0.7165 
19-May-2018_14:17:11 Exp 7321 18 female R 1 2 2 immoralSelf immoralSelf match n n 1 1.0007 
19-May-2018_14:17:13 Exp 7321 18 female R 1 2 3 moralOther immoralOther mismatch m m 1 0.7228 
19-May-2018_14:17:15 Exp 7321 18 female R 1 2 4 immoralOther immoralOther match n n 1 0.5409 
19-May-2018_14:17:18 Exp 7321 18 female R 1 2 5 immoralOther moralSelf mismatch m m 1 0.6431 
19-May-2018_14:17:20 Exp 7321 18 female R 1 2 6 immoralOther immoralOther match n n 1 0.6052 
19-May-2018_14:17:22 Exp 7321 18 female R 1 2 7 moralOther moralOther match n n 1 0.6233 
19-May-2018_14:17:24 Exp 7321 18 female R 1 2 8 immoralOther immoralSelf mismatch m n 0 0.5575 
19-May-2018_14:17:26 Exp 7321 18 female R 1 2 9 moralOther moralOther match n n 1 0.6315 
19-May-2018_14:17:29 Exp 7321 18 female R 1 2 10 immoralSelf immoralSelf match n m 0 0.9397 
19-May-2018_14:17:31 Exp 7321 18 female R 1 2 11 moralSelf immoralOther mismatch m m 1 0.6338 
19-May-2018_14:17:34 Exp 7321 18 female R 1 2 12 immoralSelf moralSelf mismatch m m 1 0.9180 
19-May-2018_14:17:36 Exp 7321 18 female R 1 2 13 immoralSelf immoralSelf match n n 1 0.7281 
19-May-2018_14:17:39 Exp 7321 18 female R 1 2 14 moralSelf immoralOther mismatch m m 1 0.6403 
19-May-2018_14:17:41 Exp 7321 18 female R 1 2 15 moralOther moralOther match n n 1 0.8583 
19-May-2018_14:17:43 Exp 7321 18 female R 1 2 16 moralSelf moralSelf match n n 1 0.5686 
19-May-2018_14:17:46 Exp 7321 18 female R 1 2 17 moralOther moralSelf mismatch m m 1 0.9607 
19-May-2018_14:17:48 Exp 7321 18 female R 1 2 18 moralSelf moralSelf match n n 1 0.5388 
19-May-2018_14:17:50 Exp 7321 18 female R 1 2 19 moralSelf immoralSelf mismatch m m 1 0.6329 
19-May-2018_14:17:53 Exp 7321 18 female R 1 2 20 moralOther immoralSelf mismatch m m 1 0.7491 
19-May-2018_14:17:55 Exp 7321 18 female R 1 2 21 immoralSelf moralSelf mismatch m m 1 0.7611 
19-May-2018_14:17:57 Exp 7321 18 female R 1 2 22 immoralOther immoralSelf mismatch m m 1 0.6595 
19-May-2018_14:17:59 Exp 7321 18 female R 1 2 23 moralSelf moralSelf match n n 1 0.5857 
19-May-2018_14:18:02 Exp 7321 18 female R 1 2 24 immoralOther immoralOther match n n 1 0.5836 
Date Prac Sub Age Sex Hand Block Bin Trial Shape Label Match CorrResp Resp ACC RT
19-May-2018_14:23:57 Exp 7321 18 female R 1 1 1 immoralOther moralOther mismatch m m 1 0.7577 
19-May-2018_14:23:59 Exp 7321 18 female R 1 1 2 immoralOther immoralOther match n n 1 0.6398 
19-May-2018_14:24:01 Exp 7321 18 female R 1 1 3 moralOther moralOther match n n 1 0.5780 
19-May-2018_14:24:03 Exp 7321 18 female R 1 1 4 moralOther moralOther match n n 1 0.6241 
19-May-2018_14:24:06 Exp 7321 18 female R 1 1 5 moralOther moralOther match n n 1 0.6302 
19-May-2018_14:24:08 Exp 7321 18 female R 1 1 6 immoralSelf moralSelf mismatch m m 1 0.9624 
19-May-2018_14:24:11 Exp 7321 18 female R 1 1 7 moralSelf moralSelf match n n 1 0.6926 
19-May-2018_14:24:13 Exp 7321 18 female R 1 1 8 immoralOther immoralOther match n n 1 0.5487 
19-May-2018_14:24:15 Exp 7321 18 female R 1 1 9 moralOther immoralOther mismatch m m 1 0.6408 
19-May-2018_14:24:17 Exp 7321 18 female R 1 1 10 moralOther moralSelf mismatch m m 1 0.7309 
19-May-2018_14:24:20 Exp 7321 18 female R 1 1 11 immoralOther immoralSelf mismatch m m 1 0.6030 
19-May-2018_14:24:22 Exp 7321 18 female R 1 1 12 immoralSelf moralSelf mismatch m m 1 0.9732 
19-May-2018_14:24:24 Exp 7321 18 female R 1 1 13 moralSelf immoralSelf mismatch m m 1 0.5893 
19-May-2018_14:24:27 Exp 7321 18 female R 1 1 14 moralSelf moralSelf match n n 1 0.5054 
19-May-2018_14:24:29 Exp 7321 18 female R 1 1 15 moralSelf moralOther mismatch m m 1 0.7196 
19-May-2018_14:24:31 Exp 7321 18 female R 1 1 16 immoralOther immoralOther match n n 1 0.5697 
19-May-2018_14:24:34 Exp 7321 18 female R 1 1 17 immoralSelf immoralSelf match n n 1 0.8418 
19-May-2018_14:24:36 Exp 7321 18 female R 1 1 18 immoralSelf immoralSelf match n m 0 0.5719 
19-May-2018_14:24:38 Exp 7321 18 female R 1 1 19 moralOther immoralOther mismatch m m 1 0.7641 
19-May-2018_14:24:40 Exp 7321 18 female R 1 1 20 immoralSelf moralOther mismatch m m 1 0.6783 
19-May-2018_14:24:43 Exp 7321 18 female R 1 1 21 immoralSelf immoralSelf match n n 1 0.6803 
19-May-2018_14:24:45 Exp 7321 18 female R 1 1 22 moralSelf moralOther mismatch m m 1 0.7146 
19-May-2018_14:24:48 Exp 7321 18 female R 1 1 23 moralSelf moralSelf match n n 1 0.7906 
19-May-2018_14:24:50 Exp 7321 18 female R 1 1 24 immoralOther moralOther mismatch m m 1 0.7147 
19-May-2018_14:24:53 Exp 7321 18 female R 1 2 1 immoralOther immoralSelf mismatch m n 0 1.0390 
19-May-2018_14:24:55 Exp 7321 18 female R 1 2 2 moralSelf immoralSelf mismatch m m 1 0.6971 
19-May-2018_14:24:57 Exp 7321 18 female R 1 2 3 immoralSelf moralSelf mismatch m m 1 0.7612 
19-May-2018_14:25:00 Exp 7321 18 female R 1 2 4 moralOther moralOther match n n 1 0.6833 
19-May-2018_14:25:02 Exp 7321 18 female R 1 2 5 immoralSelf immoralSelf match n n 1 0.7414 
19-May-2018_14:25:04 Exp 7321 18 female R 1 2 6 moralSelf moralSelf match n n 1 0.5795 
19-May-2018_14:25:06 Exp 7321 18 female R 1 2 7 moralSelf immoralOther mismatch m m 1 0.6897 
19-May-2018_14:25:09 Exp 7321 18 female R 1 2 8 immoralOther moralSelf mismatch m m 1 0.6819 
19-May-2018_14:25:11 Exp 7321 18 female R 1 2 9 immoralSelf immoralSelf match n n 1 0.6279 
19-May-2018_14:25:13 Exp 7321 18 female R 1 2 10 moralSelf immoralSelf mismatch m m 1 0.5520 
19-May-2018_14:25:15 Exp 7321 18 female R 1 2 11 immoralOther moralOther mismatch m n 0 0.4922 
19-May-2018_14:25:17 Exp 7321 18 female R 1 2 12 moralSelf moralSelf match n n 1 0.5083 
19-May-2018_14:25:20 Exp 7321 18 female R 1 2 13 moralOther immoralSelf mismatch m m 1 0.6245 
19-May-2018_14:25:22 Exp 7321 18 female R 1 2 14 immoralOther immoralOther match n n 1 0.7027 
19-May-2018_14:25:24 Exp 7321 18 female R 1 2 15 moralOther immoralOther mismatch m m 1 0.5887 
19-May-2018_14:25:26 Exp 7321 18 female R 1 2 16 immoralOther immoralOther match n n 1 0.4969 
19-May-2018_14:25:29 Exp 7321 18 female R 1 2 17 moralOther moralOther match n n 1 0.6170 
19-May-2018_14:25:31 Exp 7321 18 female R 1 2 18 immoralSelf immoralOther mismatch m m 1 1.0090 
19-May-2018_14:25:34 Exp 7321 18 female R 1 2 19 immoralSelf immoralSelf match n n 1 0.7692 
19-May-2018_14:25:36 Exp 7321 18 female R 1 2 20 moralOther immoralSelf mismatch m m 1 0.6174 
19-May-2018_14:25:38 Exp 7321 18 female R 1 2 21 immoralSelf moralSelf mismatch m m 1 0.6475 
19-May-2018_14:25:40 Exp 7321 18 female R 1 2 22 immoralOther immoralOther match n n 1 0.5037 
19-May-2018_14:25:43 Exp 7321 18 female R 1 2 23 moralOther moralOther match n n 1 0.6217 
19-May-2018_14:25:45 Exp 7321 18 female R 1 2 24 moralSelf moralSelf match n n 1 0.5319 
Date Prac Sub Age Sex Hand Block Bin Trial Shape Label Match CorrResp Resp ACC RT
19-May-2018_14:29:58 Exp 7321 18 female R 1 1 1 immoralOther moralOther mismatch m m 1 0.5802 
19-May-2018_14:30:00 Exp 7321 18 female R 1 1 2 immoralOther immoralSelf mismatch m m 1 0.7625 
19-May-2018_14:30:03 Exp 7321 18 female R 1 1 3 immoralSelf immoralSelf match n n 1 0.6685 
19-May-2018_14:30:05 Exp 7321 18 female R 1 1 4 immoralOther immoralOther match n n 1 0.5366 
19-May-2018_14:30:07 Exp 7321 18 female R 1 1 5 moralOther immoralSelf mismatch m m 1 0.9367 
19-May-2018_14:30:10 Exp 7321 18 female R 1 1 6 immoralSelf immoralSelf match n n 1 0.7769 
19-May-2018_14:30:12 Exp 7321 18 female R 1 1 7 moralSelf moralSelf match n n 1 0.5130 
19-May-2018_14:30:14 Exp 7321 18 female R 1 1 8 moralOther moralOther match n n 1 0.6052 
19-May-2018_14:30:16 Exp 7321 18 female R 1 1 9 immoralSelf immoralOther mismatch m m 1 0.7993 
19-May-2018_14:30:19 Exp 7321 18 female R 1 1 10 moralOther moralOther match n n 1 0.6494 
19-May-2018_14:30:21 Exp 7321 18 female R 1 1 11 immoralSelf immoralOther mismatch m m 1 0.6496 
19-May-2018_14:30:23 Exp 7321 18 female R 1 1 12 moralOther immoralOther mismatch m m 1 0.6578 
19-May-2018_14:30:26 Exp 7321 18 female R 1 1 13 moralSelf immoralSelf mismatch m m 1 0.6478 
19-May-2018_14:30:28 Exp 7321 18 female R 1 1 14 moralOther immoralOther mismatch m m 1 0.5680 
19-May-2018_14:30:30 Exp 7321 18 female R 1 1 15 moralSelf moralSelf match n n 1 0.5201 
19-May-2018_14:30:32 Exp 7321 18 female R 1 1 16 immoralSelf immoralOther mismatch m m 1 0.9142 
19-May-2018_14:30:35 Exp 7321 18 female R 1 1 17 immoralSelf immoralSelf match n n 1 0.7745 
19-May-2018_14:30:37 Exp 7321 18 female R 1 1 18 moralSelf moralOther mismatch m n 0 0.5426 
19-May-2018_14:30:39 Exp 7321 18 female R 1 1 19 immoralOther moralOther mismatch m m 1 0.6606 
19-May-2018_14:30:42 Exp 7321 18 female R 1 1 20 moralSelf moralSelf match n n 1 0.5547 
19-May-2018_14:30:44 Exp 7321 18 female R 1 1 21 immoralOther immoralOther match n n 1 0.5588 
19-May-2018_14:30:46 Exp 7321 18 female R 1 1 22 immoralOther immoralOther match n n 1 0.7130 
19-May-2018_14:30:48 Exp 7321 18 female R 1 1 23 moralSelf immoralOther mismatch m m 1 0.6771 
19-May-2018_14:30:51 Exp 7321 18 female R 1 1 24 moralOther moralOther match n n 1 0.6233 
19-May-2018_14:30:53 Exp 7321 18 female R 1 2 1 immoralOther immoralOther match n n 1 0.5414 
19-May-2018_14:30:55 Exp 7321 18 female R 1 2 2 moralOther moralOther match n n 1 0.5555 
19-May-2018_14:30:57 Exp 7321 18 female R 1 2 3 immoralOther immoralOther match n n 1 0.4796 
19-May-2018_14:30:59 Exp 7321 18 female R 1 2 4 moralSelf moralSelf match n n 1 0.5218 
19-May-2018_14:31:01 Exp 7321 18 female R 1 2 5 moralSelf moralSelf match n n 1 0.5318 
19-May-2018_14:31:04 Exp 7321 18 female R 1 2 6 immoralSelf moralSelf mismatch m m 1 0.8041 
19-May-2018_14:31:06 Exp 7321 18 female R 1 2 7 immoralSelf immoralOther mismatch m m 1 0.6462 
19-May-2018_14:31:08 Exp 7321 18 female R 1 2 8 immoralOther moralOther mismatch m m 1 0.6962 
19-May-2018_14:31:11 Exp 7321 18 female R 1 2 9 moralSelf immoralSelf mismatch m m 1 0.6805 
19-May-2018_14:31:13 Exp 7321 18 female R 1 2 10 immoralOther immoralOther match n n 1 0.5145 
19-May-2018_14:31:15 Exp 7321 18 female R 1 2 11 moralOther moralOther match n n 1 0.7427 
19-May-2018_14:31:17 Exp 7321 18 female R 1 2 12 moralOther immoralOther mismatch m m 1 0.5888 
19-May-2018_14:31:20 Exp 7321 18 female R 1 2 13 moralSelf moralOther mismatch m m 1 0.6969 
19-May-2018_14:31:22 Exp 7321 18 female R 1 2 14 immoralSelf immoralOther mismatch m m 1 0.6890 
19-May-2018_14:31:24 Exp 7321 18 female R 1 2 15 moralOther immoralSelf mismatch m m 1 0.6172 
19-May-2018_14:31:27 Exp 7321 18 female R 1 2 16 moralOther moralSelf mismatch m m 1 0.7592 
19-May-2018_14:31:29 Exp 7321 18 female R 1 2 17 immoralOther moralSelf mismatch m m 1 0.5614 
19-May-2018_14:31:31 Exp 7321 18 female R 1 2 18 immoralSelf immoralSelf match n n 1 0.6436 
19-May-2018_14:31:34 Exp 7321 18 female R 1 2 19 moralSelf moralOther mismatch m n 0 0.7816 
19-May-2018_14:31:36 Exp 7321 18 female R 1 2 20 immoralSelf immoralSelf match n n 1 0.9638 
19-May-2018_14:31:38 Exp 7321 18 female R 1 2 21 moralOther moralOther match n n 1 0.5739 
19-May-2018_14:31:41 Exp 7321 18 female R 1 2 22 immoralSelf immoralSelf match n n 1 0.6701 
19-May-2018_14:31:43 Exp 7321 18 female R 1 2 23 moralSelf moralSelf match n n 1 0.5702 
19-May-2018_14:31:45 Exp 7321 18 female R 1 2 24 immoralOther moralSelf mismatch m m 1 0.6024 
