Date Prac Sub Age Sex Hand Block Bin Trial Shape Label Match CorrResp Resp ACC RT
26-May-2018_09:55:38 Exp 7327 19 female R 1 1 1 moralOther moralOther match m m 1 1.0185 
26-May-2018_09:55:40 Exp 7327 19 female R 1 1 2 immoralSelf immoralSelf match m m 1 0.6997 
26-May-2018_09:55:42 Exp 7327 19 female R 1 1 3 immoralSelf immoralOther mismatch n n 1 0.5384 
26-May-2018_09:55:44 Exp 7327 19 female R 1 1 4 moralSelf moralSelf match m m 1 0.6259 
26-May-2018_09:55:47 Exp 7327 19 female R 1 1 5 immoralSelf immoralSelf match m m 1 0.7832 
26-May-2018_09:55:49 Exp 7327 19 female R 1 1 6 immoralSelf immoralSelf match m m 1 0.5076 
26-May-2018_09:55:51 Exp 7327 19 female R 1 1 7 immoralOther immoralOther match m m 1 0.5504 
26-May-2018_09:55:54 Exp 7327 19 female R 1 1 8 moralOther immoralSelf mismatch n n 1 0.8183 
26-May-2018_09:55:56 Exp 7327 19 female R 1 1 9 moralOther moralOther match m m 1 0.7793 
26-May-2018_09:55:59 Exp 7327 19 female R 1 1 10 immoralOther immoralSelf mismatch n m 0 0.9037 
26-May-2018_09:56:01 Exp 7327 19 female R 1 1 11 immoralSelf moralSelf mismatch n n 1 0.7946 
26-May-2018_09:56:04 Exp 7327 19 female R 1 1 12 moralSelf immoralSelf mismatch n n 1 0.8671 
26-May-2018_09:56:06 Exp 7327 19 female R 1 1 13 immoralOther immoralOther match m m 1 0.6852 
26-May-2018_09:56:08 Exp 7327 19 female R 1 1 14 moralOther moralSelf mismatch n n 1 0.9275 
26-May-2018_09:56:11 Exp 7327 19 female R 1 1 15 moralSelf moralOther mismatch n m 0 0.6829 
26-May-2018_09:56:13 Exp 7327 19 female R 1 1 16 immoralOther immoralOther match m m 1 0.5894 
26-May-2018_09:56:15 Exp 7327 19 female R 1 1 17 moralOther moralSelf mismatch n n 1 0.8940 
26-May-2018_09:56:18 Exp 7327 19 female R 1 1 18 moralSelf immoralOther mismatch n n 1 0.7806 
26-May-2018_09:56:20 Exp 7327 19 female R 1 1 19 immoralSelf immoralOther mismatch n n 1 0.9130 
26-May-2018_09:56:23 Exp 7327 19 female R 1 1 20 moralSelf moralSelf match m m 1 0.5879 
26-May-2018_09:56:25 Exp 7327 19 female R 1 1 21 immoralOther immoralSelf mismatch n m 0 0.7004 
26-May-2018_09:56:27 Exp 7327 19 female R 1 1 22 moralSelf moralSelf match m m 1 0.7791 
26-May-2018_09:56:30 Exp 7327 19 female R 1 1 23 moralOther moralOther match m m 1 0.8315 
26-May-2018_09:56:32 Exp 7327 19 female R 1 1 24 immoralOther immoralSelf mismatch n n 1 0.8207 
26-May-2018_09:56:35 Exp 7327 19 female R 1 2 1 immoralOther immoralOther match m m 1 0.6181 
26-May-2018_09:56:37 Exp 7327 19 female R 1 2 2 moralOther immoralOther mismatch n n 1 0.7550 
26-May-2018_09:56:39 Exp 7327 19 female R 1 2 3 moralSelf moralSelf match m m 1 0.6709 
26-May-2018_09:56:42 Exp 7327 19 female R 1 2 4 moralOther immoralSelf mismatch n n 1 0.6451 
26-May-2018_09:56:44 Exp 7327 19 female R 1 2 5 moralOther moralOther match m m 1 0.7469 
26-May-2018_09:56:46 Exp 7327 19 female R 1 2 6 immoralSelf immoralSelf match m m 1 0.9464 
26-May-2018_09:56:49 Exp 7327 19 female R 1 2 7 immoralOther immoralSelf mismatch n n 1 0.7222 
26-May-2018_09:56:51 Exp 7327 19 female R 1 2 8 immoralSelf immoralSelf match m m 1 0.8972 
26-May-2018_09:56:54 Exp 7327 19 female R 1 2 9 immoralSelf moralOther mismatch n n 1 0.5280 
26-May-2018_09:56:56 Exp 7327 19 female R 1 2 10 moralSelf moralSelf match m m 1 0.5313 
26-May-2018_09:56:58 Exp 7327 19 female R 1 2 11 immoralSelf moralOther mismatch n n 1 0.6147 
26-May-2018_09:57:00 Exp 7327 19 female R 1 2 12 immoralOther immoralOther match m m 1 0.7357 
26-May-2018_09:57:03 Exp 7327 19 female R 1 2 13 moralSelf immoralSelf mismatch n n 1 0.6431 
26-May-2018_09:57:05 Exp 7327 19 female R 1 2 14 immoralSelf immoralSelf match m m 1 0.4846 
26-May-2018_09:57:07 Exp 7327 19 female R 1 2 15 moralOther immoralSelf mismatch n n 1 0.5511 
26-May-2018_09:57:09 Exp 7327 19 female R 1 2 16 moralSelf immoralSelf mismatch n n 1 0.5788 
26-May-2018_09:57:11 Exp 7327 19 female R 1 2 17 immoralOther moralOther mismatch n n 1 0.6712 
26-May-2018_09:57:14 Exp 7327 19 female R 1 2 18 moralSelf moralSelf match m m 1 0.6534 
26-May-2018_09:57:16 Exp 7327 19 female R 1 2 19 moralSelf immoralOther mismatch n n 1 0.5393 
26-May-2018_09:57:18 Exp 7327 19 female R 1 2 20 moralOther moralOther match m m 1 0.7788 
26-May-2018_09:57:20 Exp 7327 19 female R 1 2 21 immoralSelf moralOther mismatch n n 1 0.5911 
26-May-2018_09:57:23 Exp 7327 19 female R 1 2 22 immoralOther immoralOther match m m 1 0.5676 
26-May-2018_09:57:25 Exp 7327 19 female R 1 2 23 immoralOther immoralSelf mismatch n n 1 0.6477 
26-May-2018_09:57:27 Exp 7327 19 female R 1 2 24 moralOther moralOther match m m 1 0.6615 
26-May-2018_09:57:29 Exp 7327 19 female R 1 3 1 moralOther moralOther match m m 1 0.3754 
26-May-2018_09:57:32 Exp 7327 19 female R 1 3 2 moralOther immoralSelf mismatch n n 1 0.6277 
26-May-2018_09:57:34 Exp 7327 19 female R 1 3 3 moralSelf moralSelf match m m 1 0.6090 
26-May-2018_09:57:36 Exp 7327 19 female R 1 3 4 immoralSelf immoralSelf match m n 0 0.9301 
26-May-2018_09:57:38 Exp 7327 19 female R 1 3 5 immoralSelf immoralSelf match m m 1 0.4375 
26-May-2018_09:57:41 Exp 7327 19 female R 1 3 6 immoralOther immoralSelf mismatch n n 1 0.6070 
26-May-2018_09:57:43 Exp 7327 19 female R 1 3 7 moralOther immoralSelf mismatch n n 1 0.5237 
26-May-2018_09:57:45 Exp 7327 19 female R 1 3 8 moralSelf immoralSelf mismatch n n 1 0.4989 
26-May-2018_09:57:47 Exp 7327 19 female R 1 3 9 immoralOther moralSelf mismatch n m 0 0.6095 
26-May-2018_09:57:50 Exp 7327 19 female R 1 3 10 moralOther moralOther match m m 1 0.7465 
26-May-2018_09:57:52 Exp 7327 19 female R 1 3 11 immoralSelf moralSelf mismatch n n 1 0.8581 
26-May-2018_09:57:54 Exp 7327 19 female R 1 3 12 moralSelf immoralSelf mismatch n n 1 0.7002 
26-May-2018_09:57:57 Exp 7327 19 female R 1 3 13 immoralOther immoralSelf mismatch n m 0 0.6348 
26-May-2018_09:57:59 Exp 7327 19 female R 1 3 14 moralSelf moralSelf match m m 1 0.6844 
26-May-2018_09:58:01 Exp 7327 19 female R 1 3 15 moralOther moralSelf mismatch n n 1 0.6228 
26-May-2018_09:58:03 Exp 7327 19 female R 1 3 16 moralSelf moralSelf match m n 0 0.5481 
26-May-2018_09:58:06 Exp 7327 19 female R 1 3 17 immoralOther immoralOther match m m 1 0.7717 
26-May-2018_09:58:08 Exp 7327 19 female R 1 3 18 moralSelf immoralOther mismatch n n 1 0.7318 
26-May-2018_09:58:10 Exp 7327 19 female R 1 3 19 immoralSelf immoralSelf match m m 1 0.6471 
26-May-2018_09:58:13 Exp 7327 19 female R 1 3 20 moralOther moralOther match m m 1 0.9329 
26-May-2018_09:58:15 Exp 7327 19 female R 1 3 21 immoralOther immoralOther match m m 1 0.7762 
26-May-2018_09:58:18 Exp 7327 19 female R 1 3 22 immoralSelf moralSelf mismatch n n 1 0.7486 
26-May-2018_09:58:20 Exp 7327 19 female R 1 3 23 immoralOther immoralOther match m m 1 0.7562 
26-May-2018_09:58:22 Exp 7327 19 female R 1 3 24 immoralSelf immoralOther mismatch n n 1 0.6321 
26-May-2018_09:58:55 Exp 7327 19 female R 1 4 1 immoralOther immoralOther match m m 1 0.6310 
26-May-2018_09:58:57 Exp 7327 19 female R 1 4 2 moralOther immoralSelf mismatch n n 1 0.9242 
26-May-2018_09:59:00 Exp 7327 19 female R 1 4 3 immoralSelf immoralSelf match m m 1 0.7555 
26-May-2018_09:59:02 Exp 7327 19 female R 1 4 4 immoralOther immoralSelf mismatch n n 1 0.8713 
26-May-2018_09:59:05 Exp 7327 19 female R 1 4 5 moralOther immoralOther mismatch n NA -1 1.0841 
26-May-2018_09:59:08 Exp 7327 19 female R 1 4 6 moralOther moralOther match m m 1 1.0159 
26-May-2018_09:59:10 Exp 7327 19 female R 1 4 7 immoralOther immoralOther match m m 1 0.6490 
26-May-2018_09:59:12 Exp 7327 19 female R 1 4 8 moralSelf moralOther mismatch n m 0 0.6147 
26-May-2018_09:59:15 Exp 7327 19 female R 1 4 9 immoralSelf immoralOther mismatch n n 1 0.7677 
26-May-2018_09:59:17 Exp 7327 19 female R 1 4 10 immoralSelf moralSelf mismatch n n 1 0.7278 
26-May-2018_09:59:19 Exp 7327 19 female R 1 4 11 moralSelf moralOther mismatch n m 0 0.7392 
26-May-2018_09:59:22 Exp 7327 19 female R 1 4 12 moralSelf moralSelf match m m 1 0.6588 
26-May-2018_09:59:24 Exp 7327 19 female R 1 4 13 moralSelf immoralSelf mismatch n n 1 0.7008 
26-May-2018_09:59:26 Exp 7327 19 female R 1 4 14 immoralOther moralSelf mismatch n n 1 0.8355 
26-May-2018_09:59:29 Exp 7327 19 female R 1 4 15 moralSelf moralSelf match m NA -1 1.0841 
26-May-2018_09:59:32 Exp 7327 19 female R 1 4 16 immoralSelf immoralSelf match m m 1 1.0314 
26-May-2018_09:59:34 Exp 7327 19 female R 1 4 17 immoralOther immoralOther match m m 1 0.6207 
26-May-2018_09:59:36 Exp 7327 19 female R 1 4 18 immoralSelf immoralOther mismatch n m 0 0.4659 
26-May-2018_09:59:39 Exp 7327 19 female R 1 4 19 immoralOther moralOther mismatch n n 1 0.7720 
26-May-2018_09:59:41 Exp 7327 19 female R 1 4 20 moralOther moralOther match m m 1 0.6040 
26-May-2018_09:59:43 Exp 7327 19 female R 1 4 21 immoralSelf immoralSelf match m m 1 0.5769 
26-May-2018_09:59:45 Exp 7327 19 female R 1 4 22 moralOther moralOther match m n 0 0.7652 
26-May-2018_09:59:48 Exp 7327 19 female R 1 4 23 moralOther immoralOther mismatch n n 1 0.6692 
26-May-2018_09:59:50 Exp 7327 19 female R 1 4 24 moralSelf moralSelf match m m 1 0.5635 
26-May-2018_09:59:52 Exp 7327 19 female R 1 5 1 moralSelf moralSelf match m m 1 0.4196 
26-May-2018_09:59:54 Exp 7327 19 female R 1 5 2 moralOther immoralSelf mismatch n n 1 0.7166 
26-May-2018_09:59:56 Exp 7327 19 female R 1 5 3 immoralSelf immoralSelf match m m 1 0.4357 
26-May-2018_09:59:59 Exp 7327 19 female R 1 5 4 moralOther immoralOther mismatch n n 1 0.8132 
26-May-2018_10:00:01 Exp 7327 19 female R 1 5 5 immoralOther immoralSelf mismatch n m 0 0.5582 
26-May-2018_10:00:03 Exp 7327 19 female R 1 5 6 moralSelf immoralOther mismatch n m 0 0.6421 
26-May-2018_10:00:06 Exp 7327 19 female R 1 5 7 immoralOther immoralOther match m m 1 0.6676 
26-May-2018_10:00:08 Exp 7327 19 female R 1 5 8 moralOther moralOther match m m 1 0.9538 
26-May-2018_10:00:11 Exp 7327 19 female R 1 5 9 immoralOther moralSelf mismatch n n 1 0.8137 
26-May-2018_10:00:13 Exp 7327 19 female R 1 5 10 moralOther immoralSelf mismatch n m 0 0.8467 
26-May-2018_10:00:15 Exp 7327 19 female R 1 5 11 moralSelf moralSelf match m m 1 0.6524 
26-May-2018_10:00:18 Exp 7327 19 female R 1 5 12 immoralOther immoralOther match m m 1 0.6342 
26-May-2018_10:00:20 Exp 7327 19 female R 1 5 13 immoralSelf moralOther mismatch n n 1 0.6996 
26-May-2018_10:00:22 Exp 7327 19 female R 1 5 14 immoralSelf immoralSelf match m m 1 0.5704 
26-May-2018_10:00:25 Exp 7327 19 female R 1 5 15 moralSelf immoralSelf mismatch n n 1 0.6744 
26-May-2018_10:00:27 Exp 7327 19 female R 1 5 16 moralOther moralOther match m m 1 0.6967 
26-May-2018_10:00:29 Exp 7327 19 female R 1 5 17 moralOther moralOther match m m 1 0.4073 
26-May-2018_10:00:31 Exp 7327 19 female R 1 5 18 immoralSelf immoralSelf match m m 1 0.6361 
26-May-2018_10:00:33 Exp 7327 19 female R 1 5 19 immoralSelf moralOther mismatch n n 1 0.5736 
26-May-2018_10:00:36 Exp 7327 19 female R 1 5 20 moralSelf moralSelf match m m 1 0.6739 
26-May-2018_10:00:38 Exp 7327 19 female R 1 5 21 immoralSelf immoralOther mismatch n m 0 0.5761 
26-May-2018_10:00:40 Exp 7327 19 female R 1 5 22 immoralOther moralOther mismatch n n 1 0.6924 
26-May-2018_10:00:43 Exp 7327 19 female R 1 5 23 immoralOther immoralOther match m m 1 0.6192 
26-May-2018_10:00:45 Exp 7327 19 female R 1 5 24 moralSelf immoralSelf mismatch n n 1 0.7722 
26-May-2018_10:00:51 Exp 7327 19 female R 2 1 1 moralSelf moralOther mismatch n NA -1 1.0841 
26-May-2018_10:00:53 Exp 7327 19 female R 2 1 2 moralOther moralOther match m m 1 0.9593 
26-May-2018_10:00:55 Exp 7327 19 female R 2 1 3 immoralOther immoralOther match m m 1 0.6271 
26-May-2018_10:00:58 Exp 7327 19 female R 2 1 4 moralOther immoralOther mismatch n n 1 0.6884 
26-May-2018_10:01:00 Exp 7327 19 female R 2 1 5 moralOther moralOther match m m 1 0.9069 
26-May-2018_10:01:03 Exp 7327 19 female R 2 1 6 immoralSelf immoralSelf match m m 1 0.5818 
26-May-2018_10:01:05 Exp 7327 19 female R 2 1 7 moralOther moralSelf mismatch n m 0 0.9861 
26-May-2018_10:01:08 Exp 7327 19 female R 2 1 8 immoralSelf immoralOther mismatch n n 1 0.6986 
26-May-2018_10:01:10 Exp 7327 19 female R 2 1 9 immoralSelf immoralSelf match m m 1 0.4813 
26-May-2018_10:01:12 Exp 7327 19 female R 2 1 10 moralSelf moralSelf match m m 1 0.7478 
26-May-2018_10:01:14 Exp 7327 19 female R 2 1 11 immoralSelf immoralSelf match m n 0 0.7075 
26-May-2018_10:01:17 Exp 7327 19 female R 2 1 12 moralOther moralOther match m m 1 0.6703 
26-May-2018_10:01:19 Exp 7327 19 female R 2 1 13 moralSelf moralOther mismatch n n 1 1.0046 
26-May-2018_10:01:22 Exp 7327 19 female R 2 1 14 immoralOther moralSelf mismatch n n 1 0.7533 
26-May-2018_10:01:24 Exp 7327 19 female R 2 1 15 immoralOther moralSelf mismatch n n 1 0.7892 
26-May-2018_10:01:26 Exp 7327 19 female R 2 1 16 immoralOther moralOther mismatch n n 1 0.7418 
26-May-2018_10:01:29 Exp 7327 19 female R 2 1 17 moralSelf moralSelf match m m 1 0.7094 
26-May-2018_10:01:31 Exp 7327 19 female R 2 1 18 moralSelf moralOther mismatch n m 0 0.6003 
26-May-2018_10:01:33 Exp 7327 19 female R 2 1 19 immoralSelf moralSelf mismatch n n 1 0.7491 
26-May-2018_10:01:36 Exp 7327 19 female R 2 1 20 immoralSelf moralSelf mismatch n n 1 0.7247 
26-May-2018_10:01:38 Exp 7327 19 female R 2 1 21 moralSelf moralSelf match m m 1 0.7159 
26-May-2018_10:01:40 Exp 7327 19 female R 2 1 22 moralOther immoralOther mismatch n n 1 0.6670 
26-May-2018_10:01:43 Exp 7327 19 female R 2 1 23 immoralOther immoralOther match m m 1 0.6370 
26-May-2018_10:01:45 Exp 7327 19 female R 2 1 24 immoralOther immoralOther match m m 1 0.4465 
26-May-2018_10:01:47 Exp 7327 19 female R 2 2 1 immoralSelf immoralSelf match m m 1 0.6761 
26-May-2018_10:01:49 Exp 7327 19 female R 2 2 2 immoralOther immoralOther match m m 1 0.6664 
26-May-2018_10:01:51 Exp 7327 19 female R 2 2 3 immoralOther immoralOther match m m 1 0.4524 
26-May-2018_10:01:54 Exp 7327 19 female R 2 2 4 immoralOther immoralSelf mismatch n n 1 0.6021 
26-May-2018_10:01:56 Exp 7327 19 female R 2 2 5 moralOther moralOther match m m 1 0.6709 
26-May-2018_10:01:58 Exp 7327 19 female R 2 2 6 immoralOther moralOther mismatch n n 1 0.7011 
26-May-2018_10:02:01 Exp 7327 19 female R 2 2 7 immoralSelf moralSelf mismatch n n 1 0.9318 
26-May-2018_10:02:03 Exp 7327 19 female R 2 2 8 moralOther immoralSelf mismatch n n 1 0.6792 
26-May-2018_10:02:05 Exp 7327 19 female R 2 2 9 moralOther moralSelf mismatch n m 0 0.6614 
26-May-2018_10:02:08 Exp 7327 19 female R 2 2 10 immoralSelf moralOther mismatch n n 1 0.7674 
26-May-2018_10:02:10 Exp 7327 19 female R 2 2 11 moralSelf immoralOther mismatch n n 1 0.8315 
26-May-2018_10:02:13 Exp 7327 19 female R 2 2 12 immoralSelf immoralSelf match m m 1 0.8928 
26-May-2018_10:02:15 Exp 7327 19 female R 2 2 13 immoralOther moralOther mismatch n n 1 0.7876 
26-May-2018_10:02:18 Exp 7327 19 female R 2 2 14 moralSelf moralSelf match m n 0 0.6840 
26-May-2018_10:02:20 Exp 7327 19 female R 2 2 15 moralSelf moralSelf match m m 1 0.4144 
26-May-2018_10:02:22 Exp 7327 19 female R 2 2 16 moralOther moralOther match m m 1 0.8875 
26-May-2018_10:02:24 Exp 7327 19 female R 2 2 17 moralSelf immoralOther mismatch n n 1 0.5379 
26-May-2018_10:02:27 Exp 7327 19 female R 2 2 18 moralOther immoralSelf mismatch n n 1 0.7092 
26-May-2018_10:02:29 Exp 7327 19 female R 2 2 19 immoralSelf immoralSelf match m m 1 0.7762 
26-May-2018_10:02:32 Exp 7327 19 female R 2 2 20 moralSelf moralSelf match m m 1 0.9165 
26-May-2018_10:02:34 Exp 7327 19 female R 2 2 21 immoralSelf moralOther mismatch n n 1 0.9076 
26-May-2018_10:02:36 Exp 7327 19 female R 2 2 22 moralOther moralOther match m m 1 0.5586 
26-May-2018_10:02:39 Exp 7327 19 female R 2 2 23 immoralOther immoralOther match m m 1 0.6024 
26-May-2018_10:02:41 Exp 7327 19 female R 2 2 24 moralSelf moralOther mismatch n m 0 0.5592 
26-May-2018_10:02:43 Exp 7327 19 female R 2 3 1 immoralSelf immoralSelf match m m 1 0.5631 
26-May-2018_10:02:45 Exp 7327 19 female R 2 3 2 immoralOther immoralSelf mismatch n m 0 0.6432 
26-May-2018_10:02:48 Exp 7327 19 female R 2 3 3 moralSelf moralSelf match m m 1 0.7407 
26-May-2018_10:02:50 Exp 7327 19 female R 2 3 4 immoralSelf immoralSelf match m m 1 0.6843 
26-May-2018_10:02:52 Exp 7327 19 female R 2 3 5 moralSelf moralSelf match m m 1 0.6868 
26-May-2018_10:02:55 Exp 7327 19 female R 2 3 6 immoralOther moralSelf mismatch n n 1 0.6012 
26-May-2018_10:02:57 Exp 7327 19 female R 2 3 7 immoralSelf immoralSelf match m m 1 0.7179 
26-May-2018_10:02:59 Exp 7327 19 female R 2 3 8 moralSelf immoralOther mismatch n n 1 0.6611 
26-May-2018_10:03:02 Exp 7327 19 female R 2 3 9 moralOther immoralOther mismatch n n 1 0.7591 
26-May-2018_10:03:04 Exp 7327 19 female R 2 3 10 immoralSelf moralOther mismatch n n 1 0.6989 
26-May-2018_10:03:06 Exp 7327 19 female R 2 3 11 moralOther moralOther match m n 0 0.6896 
26-May-2018_10:03:08 Exp 7327 19 female R 2 3 12 moralOther moralOther match m m 1 0.4520 
26-May-2018_10:03:11 Exp 7327 19 female R 2 3 13 moralOther immoralOther mismatch n n 1 0.6098 
26-May-2018_10:03:13 Exp 7327 19 female R 2 3 14 immoralSelf immoralOther mismatch n n 1 0.7788 
26-May-2018_10:03:15 Exp 7327 19 female R 2 3 15 moralSelf moralSelf match m m 1 0.8151 
26-May-2018_10:03:18 Exp 7327 19 female R 2 3 16 moralSelf immoralOther mismatch n n 1 0.6402 
26-May-2018_10:03:20 Exp 7327 19 female R 2 3 17 immoralOther immoralOther match m m 1 0.6497 
26-May-2018_10:03:22 Exp 7327 19 female R 2 3 18 immoralSelf moralOther mismatch n n 1 0.6314 
26-May-2018_10:03:25 Exp 7327 19 female R 2 3 19 moralOther moralOther match m m 1 0.8047 
26-May-2018_10:03:27 Exp 7327 19 female R 2 3 20 moralOther immoralOther mismatch n n 1 0.6815 
26-May-2018_10:03:29 Exp 7327 19 female R 2 3 21 immoralOther moralOther mismatch n n 1 0.6920 
26-May-2018_10:03:32 Exp 7327 19 female R 2 3 22 immoralOther immoralOther match m m 1 0.6106 
26-May-2018_10:03:34 Exp 7327 19 female R 2 3 23 immoralOther immoralOther match m m 1 0.4516 
26-May-2018_10:03:36 Exp 7327 19 female R 2 3 24 moralSelf moralOther mismatch n m 0 0.8494 
26-May-2018_10:03:57 Exp 7327 19 female R 2 4 1 moralSelf moralSelf match m m 1 0.8153 
26-May-2018_10:03:59 Exp 7327 19 female R 2 4 2 immoralSelf immoralSelf match m m 1 0.8724 
26-May-2018_10:04:02 Exp 7327 19 female R 2 4 3 immoralOther immoralOther match m m 1 0.6466 
26-May-2018_10:04:04 Exp 7327 19 female R 2 4 4 immoralSelf moralSelf mismatch n n 1 0.7003 
26-May-2018_10:04:07 Exp 7327 19 female R 2 4 5 moralSelf moralSelf match m m 1 0.8430 
26-May-2018_10:04:09 Exp 7327 19 female R 2 4 6 moralOther immoralSelf mismatch n n 1 0.9965 
26-May-2018_10:04:12 Exp 7327 19 female R 2 4 7 moralOther immoralOther mismatch n n 1 0.8931 
26-May-2018_10:04:14 Exp 7327 19 female R 2 4 8 immoralOther moralOther mismatch n n 1 0.7318 
26-May-2018_10:04:17 Exp 7327 19 female R 2 4 9 moralOther moralOther match m m 1 0.8391 
26-May-2018_10:04:19 Exp 7327 19 female R 2 4 10 immoralSelf moralOther mismatch n n 1 0.6326 
26-May-2018_10:04:21 Exp 7327 19 female R 2 4 11 immoralOther immoralOther match m m 1 0.6422 
26-May-2018_10:04:23 Exp 7327 19 female R 2 4 12 moralSelf immoralOther mismatch n n 1 0.5876 
26-May-2018_10:04:26 Exp 7327 19 female R 2 4 13 immoralOther immoralOther match m m 1 0.6202 
26-May-2018_10:04:28 Exp 7327 19 female R 2 4 14 moralOther moralSelf mismatch n n 1 0.9013 
26-May-2018_10:04:30 Exp 7327 19 female R 2 4 15 immoralSelf immoralSelf match m m 1 0.7000 
26-May-2018_10:04:33 Exp 7327 19 female R 2 4 16 moralSelf moralOther mismatch n m 0 0.7385 
26-May-2018_10:04:35 Exp 7327 19 female R 2 4 17 immoralSelf immoralSelf match m m 1 0.6902 
26-May-2018_10:04:38 Exp 7327 19 female R 2 4 18 moralOther moralOther match m n 0 0.9566 
26-May-2018_10:04:40 Exp 7327 19 female R 2 4 19 immoralOther moralOther mismatch n n 1 0.8245 
26-May-2018_10:04:42 Exp 7327 19 female R 2 4 20 moralSelf moralSelf match m m 1 0.6058 
26-May-2018_10:04:45 Exp 7327 19 female R 2 4 21 immoralSelf moralOther mismatch n n 1 0.6906 
26-May-2018_10:04:47 Exp 7327 19 female R 2 4 22 moralOther moralOther match m NA -1 1.0841 
26-May-2018_10:04:50 Exp 7327 19 female R 2 4 23 immoralOther moralOther mismatch n n 1 0.7356 
26-May-2018_10:04:52 Exp 7327 19 female R 2 4 24 moralSelf immoralOther mismatch n n 1 0.9149 
26-May-2018_10:04:54 Exp 7327 19 female R 2 5 1 moralSelf moralSelf match m m 1 0.4660 
26-May-2018_10:04:57 Exp 7327 19 female R 2 5 2 moralOther immoralSelf mismatch n n 1 0.6440 
26-May-2018_10:04:59 Exp 7327 19 female R 2 5 3 immoralOther moralSelf mismatch n n 1 0.6737 
26-May-2018_10:05:01 Exp 7327 19 female R 2 5 4 moralSelf moralSelf match m m 1 0.7439 
26-May-2018_10:05:04 Exp 7327 19 female R 2 5 5 moralOther moralSelf mismatch n n 1 0.5995 
26-May-2018_10:05:06 Exp 7327 19 female R 2 5 6 moralSelf moralSelf match m m 1 0.6444 
26-May-2018_10:05:08 Exp 7327 19 female R 2 5 7 moralOther immoralSelf mismatch n n 1 0.6821 
26-May-2018_10:05:10 Exp 7327 19 female R 2 5 8 moralOther moralOther match m m 1 0.4125 
26-May-2018_10:05:12 Exp 7327 19 female R 2 5 9 immoralSelf immoralSelf match m n 0 0.5976 
26-May-2018_10:05:15 Exp 7327 19 female R 2 5 10 immoralSelf moralOther mismatch n n 1 0.5943 
26-May-2018_10:05:17 Exp 7327 19 female R 2 5 11 immoralOther moralOther mismatch n m 0 0.6109 
26-May-2018_10:05:19 Exp 7327 19 female R 2 5 12 immoralSelf moralSelf mismatch n m 0 0.8040 
26-May-2018_10:05:22 Exp 7327 19 female R 2 5 13 moralSelf immoralSelf mismatch n n 1 0.9288 
26-May-2018_10:05:24 Exp 7327 19 female R 2 5 14 moralOther moralOther match m m 1 0.7161 
26-May-2018_10:05:27 Exp 7327 19 female R 2 5 15 immoralSelf immoralOther mismatch n n 1 0.6753 
26-May-2018_10:05:29 Exp 7327 19 female R 2 5 16 moralSelf immoralSelf mismatch n n 1 0.6815 
26-May-2018_10:05:31 Exp 7327 19 female R 2 5 17 immoralSelf immoralSelf match m m 1 0.4519 
26-May-2018_10:05:33 Exp 7327 19 female R 2 5 18 immoralOther immoralOther match m m 1 0.8496 
26-May-2018_10:05:36 Exp 7327 19 female R 2 5 19 moralSelf immoralSelf mismatch n n 1 0.8474 
26-May-2018_10:05:39 Exp 7327 19 female R 2 5 20 immoralOther immoralSelf mismatch n n 1 1.0451 
26-May-2018_10:05:41 Exp 7327 19 female R 2 5 21 immoralSelf immoralSelf match m m 1 0.5548 
26-May-2018_10:05:43 Exp 7327 19 female R 2 5 22 immoralOther immoralOther match m m 1 0.6467 
26-May-2018_10:05:45 Exp 7327 19 female R 2 5 23 moralOther moralOther match m m 1 0.5965 
26-May-2018_10:05:48 Exp 7327 19 female R 2 5 24 immoralOther immoralOther match m n 0 0.6691 
26-May-2018_10:05:53 Exp 7327 19 female R 3 1 1 immoralOther immoralOther match m m 1 0.7798 
26-May-2018_10:05:55 Exp 7327 19 female R 3 1 2 moralOther moralOther match m m 1 0.5921 
26-May-2018_10:05:58 Exp 7327 19 female R 3 1 3 moralOther moralSelf mismatch n NA -1 1.0841 
26-May-2018_10:06:00 Exp 7327 19 female R 3 1 4 immoralOther moralOther mismatch n n 1 0.7152 
26-May-2018_10:06:03 Exp 7327 19 female R 3 1 5 immoralOther moralSelf mismatch n n 1 0.6984 
26-May-2018_10:06:05 Exp 7327 19 female R 3 1 6 moralOther immoralSelf mismatch n n 1 0.8729 
26-May-2018_10:06:08 Exp 7327 19 female R 3 1 7 moralOther moralSelf mismatch n n 1 0.9272 
26-May-2018_10:06:10 Exp 7327 19 female R 3 1 8 moralSelf immoralOther mismatch n n 1 0.7466 
26-May-2018_10:06:13 Exp 7327 19 female R 3 1 9 moralOther moralOther match m m 1 0.7542 
26-May-2018_10:06:15 Exp 7327 19 female R 3 1 10 immoralSelf immoralSelf match m m 1 0.6941 
26-May-2018_10:06:17 Exp 7327 19 female R 3 1 11 moralSelf immoralOther mismatch n m 0 0.7648 
26-May-2018_10:06:20 Exp 7327 19 female R 3 1 12 immoralOther immoralOther match m m 1 0.6208 
26-May-2018_10:06:22 Exp 7327 19 female R 3 1 13 immoralSelf moralSelf mismatch n n 1 0.6101 
26-May-2018_10:06:24 Exp 7327 19 female R 3 1 14 immoralOther moralSelf mismatch n n 1 0.6271 
26-May-2018_10:06:26 Exp 7327 19 female R 3 1 15 moralOther moralOther match m m 1 0.6404 
26-May-2018_10:06:29 Exp 7327 19 female R 3 1 16 moralSelf immoralOther mismatch n n 1 0.5939 
26-May-2018_10:06:31 Exp 7327 19 female R 3 1 17 moralSelf moralSelf match m m 1 0.5784 
26-May-2018_10:06:33 Exp 7327 19 female R 3 1 18 immoralOther immoralOther match m m 1 0.6228 
26-May-2018_10:06:35 Exp 7327 19 female R 3 1 19 immoralSelf moralOther mismatch n m 0 0.6040 
26-May-2018_10:06:38 Exp 7327 19 female R 3 1 20 immoralSelf immoralSelf match m n 0 0.9609 
26-May-2018_10:06:40 Exp 7327 19 female R 3 1 21 immoralSelf immoralSelf match m m 1 0.5726 
26-May-2018_10:06:42 Exp 7327 19 female R 3 1 22 moralSelf moralSelf match m m 1 0.6928 
26-May-2018_10:06:45 Exp 7327 19 female R 3 1 23 immoralSelf moralOther mismatch n n 1 0.8754 
26-May-2018_10:06:47 Exp 7327 19 female R 3 1 24 moralSelf moralSelf match m m 1 0.6336 
26-May-2018_10:06:49 Exp 7327 19 female R 3 2 1 immoralSelf immoralSelf match m m 1 0.6752 
26-May-2018_10:06:52 Exp 7327 19 female R 3 2 2 moralOther moralSelf mismatch n n 1 0.7213 
26-May-2018_10:06:54 Exp 7327 19 female R 3 2 3 immoralSelf moralSelf mismatch n n 1 0.7925 
26-May-2018_10:06:57 Exp 7327 19 female R 3 2 4 moralSelf moralOther mismatch n n 1 0.8571 
26-May-2018_10:06:59 Exp 7327 19 female R 3 2 5 moralOther immoralOther mismatch n n 1 0.6910 
26-May-2018_10:07:01 Exp 7327 19 female R 3 2 6 immoralOther immoralOther match m m 1 0.5655 
26-May-2018_10:07:03 Exp 7327 19 female R 3 2 7 moralSelf immoralOther mismatch n n 1 0.6216 
26-May-2018_10:07:06 Exp 7327 19 female R 3 2 8 moralOther immoralSelf mismatch n n 1 0.7789 
26-May-2018_10:07:08 Exp 7327 19 female R 3 2 9 moralSelf moralSelf match m m 1 0.6312 
26-May-2018_10:07:11 Exp 7327 19 female R 3 2 10 immoralOther immoralSelf mismatch n m 0 0.7485 
26-May-2018_10:07:13 Exp 7327 19 female R 3 2 11 immoralSelf moralOther mismatch n n 1 0.8121 
26-May-2018_10:07:15 Exp 7327 19 female R 3 2 12 moralOther moralOther match m m 1 0.8131 
26-May-2018_10:07:18 Exp 7327 19 female R 3 2 13 immoralOther moralSelf mismatch n n 1 0.5582 
26-May-2018_10:07:20 Exp 7327 19 female R 3 2 14 moralSelf moralSelf match m m 1 0.7779 
26-May-2018_10:07:22 Exp 7327 19 female R 3 2 15 immoralOther immoralOther match m m 1 0.6704 
26-May-2018_10:07:25 Exp 7327 19 female R 3 2 16 moralOther moralOther match m m 1 0.7005 
26-May-2018_10:07:27 Exp 7327 19 female R 3 2 17 moralOther moralOther match m m 1 0.5712 
26-May-2018_10:07:29 Exp 7327 19 female R 3 2 18 immoralOther immoralSelf mismatch n n 1 0.5713 
26-May-2018_10:07:31 Exp 7327 19 female R 3 2 19 immoralSelf immoralSelf match m m 1 0.5952 
26-May-2018_10:07:34 Exp 7327 19 female R 3 2 20 immoralOther immoralOther match m m 1 0.6279 
26-May-2018_10:07:36 Exp 7327 19 female R 3 2 21 moralSelf moralOther mismatch n m 0 0.6171 
26-May-2018_10:07:38 Exp 7327 19 female R 3 2 22 immoralSelf moralSelf mismatch n n 1 0.7782 
26-May-2018_10:07:41 Exp 7327 19 female R 3 2 23 immoralSelf immoralSelf match m m 1 0.9345 
26-May-2018_10:07:43 Exp 7327 19 female R 3 2 24 moralSelf moralSelf match m m 1 0.5619 
26-May-2018_10:07:45 Exp 7327 19 female R 3 3 1 immoralSelf immoralSelf match m n 0 0.7140 
26-May-2018_10:07:48 Exp 7327 19 female R 3 3 2 moralOther immoralOther mismatch n n 1 0.8049 
26-May-2018_10:07:50 Exp 7327 19 female R 3 3 3 immoralOther moralSelf mismatch n n 1 0.6177 
26-May-2018_10:07:53 Exp 7327 19 female R 3 3 4 moralOther moralOther match m n 0 1.0747 
26-May-2018_10:07:55 Exp 7327 19 female R 3 3 5 immoralOther moralSelf mismatch n n 1 0.8490 
26-May-2018_10:07:57 Exp 7327 19 female R 3 3 6 immoralOther immoralOther match m m 1 0.6628 
26-May-2018_10:08:00 Exp 7327 19 female R 3 3 7 immoralSelf immoralOther mismatch n n 1 0.6647 
26-May-2018_10:08:02 Exp 7327 19 female R 3 3 8 moralSelf moralSelf match m m 1 0.6826 
26-May-2018_10:08:05 Exp 7327 19 female R 3 3 9 moralSelf immoralSelf mismatch n n 1 0.8291 
26-May-2018_10:08:07 Exp 7327 19 female R 3 3 10 moralSelf moralSelf match m m 1 0.7943 
26-May-2018_10:08:09 Exp 7327 19 female R 3 3 11 moralOther moralOther match m m 1 0.6909 
26-May-2018_10:08:12 Exp 7327 19 female R 3 3 12 immoralOther moralOther mismatch n n 1 0.6374 
26-May-2018_10:08:14 Exp 7327 19 female R 3 3 13 immoralSelf immoralSelf match m m 1 0.6388 
26-May-2018_10:08:16 Exp 7327 19 female R 3 3 14 moralSelf moralSelf match m m 1 0.6803 
26-May-2018_10:08:19 Exp 7327 19 female R 3 3 15 moralOther immoralOther mismatch n m 0 0.8508 
26-May-2018_10:08:21 Exp 7327 19 female R 3 3 16 immoralSelf moralSelf mismatch n n 1 0.7046 
26-May-2018_10:08:23 Exp 7327 19 female R 3 3 17 moralOther moralOther match m n 0 0.8515 
26-May-2018_10:08:26 Exp 7327 19 female R 3 3 18 immoralSelf immoralSelf match m m 1 0.6332 
26-May-2018_10:08:28 Exp 7327 19 female R 3 3 19 immoralOther immoralOther match m m 1 0.7387 
26-May-2018_10:08:31 Exp 7327 19 female R 3 3 20 moralOther immoralSelf mismatch n n 1 0.9063 
26-May-2018_10:08:33 Exp 7327 19 female R 3 3 21 moralSelf moralOther mismatch n m 0 0.5492 
26-May-2018_10:08:35 Exp 7327 19 female R 3 3 22 moralSelf immoralOther mismatch n n 1 0.6768 
26-May-2018_10:08:38 Exp 7327 19 female R 3 3 23 immoralSelf moralSelf mismatch n n 1 0.8431 
26-May-2018_10:08:40 Exp 7327 19 female R 3 3 24 immoralOther immoralOther match m m 1 0.6686 
26-May-2018_10:09:00 Exp 7327 19 female R 3 4 1 moralSelf moralSelf match m m 1 0.4858 
26-May-2018_10:09:02 Exp 7327 19 female R 3 4 2 immoralOther moralOther mismatch n n 1 0.6323 
26-May-2018_10:09:04 Exp 7327 19 female R 3 4 3 immoralSelf moralSelf mismatch n n 1 0.7734 
26-May-2018_10:09:07 Exp 7327 19 female R 3 4 4 moralOther moralOther match m m 1 0.8899 
26-May-2018_10:09:09 Exp 7327 19 female R 3 4 5 moralSelf moralSelf match m m 1 0.7003 
26-May-2018_10:09:12 Exp 7327 19 female R 3 4 6 immoralSelf immoralSelf match m m 1 0.7710 
26-May-2018_10:09:14 Exp 7327 19 female R 3 4 7 moralSelf moralOther mismatch n m 0 0.7311 
26-May-2018_10:09:17 Exp 7327 19 female R 3 4 8 immoralSelf moralSelf mismatch n n 1 0.9424 
26-May-2018_10:09:19 Exp 7327 19 female R 3 4 9 immoralOther moralOther mismatch n n 1 0.7661 
26-May-2018_10:09:21 Exp 7327 19 female R 3 4 10 immoralOther immoralOther match m m 1 0.5102 
26-May-2018_10:09:23 Exp 7327 19 female R 3 4 11 immoralSelf immoralSelf match m m 1 0.7130 
26-May-2018_10:09:26 Exp 7327 19 female R 3 4 12 immoralOther immoralOther match m m 1 0.8040 
26-May-2018_10:09:28 Exp 7327 19 female R 3 4 13 immoralOther immoralOther match m m 1 0.5048 
26-May-2018_10:09:30 Exp 7327 19 female R 3 4 14 moralOther moralOther match m m 1 0.7478 
26-May-2018_10:09:33 Exp 7327 19 female R 3 4 15 moralOther immoralSelf mismatch n n 1 0.5953 
26-May-2018_10:09:35 Exp 7327 19 female R 3 4 16 moralSelf moralSelf match m m 1 0.5878 
26-May-2018_10:09:37 Exp 7327 19 female R 3 4 17 moralOther immoralOther mismatch n n 1 0.7405 
26-May-2018_10:09:40 Exp 7327 19 female R 3 4 18 moralOther moralOther match m m 1 0.7880 
26-May-2018_10:09:42 Exp 7327 19 female R 3 4 19 immoralSelf immoralSelf match m m 1 0.6525 
26-May-2018_10:09:44 Exp 7327 19 female R 3 4 20 moralOther immoralSelf mismatch n n 1 0.6903 
26-May-2018_10:09:47 Exp 7327 19 female R 3 4 21 moralSelf immoralOther mismatch n n 1 0.7728 
26-May-2018_10:09:49 Exp 7327 19 female R 3 4 22 immoralOther immoralSelf mismatch n m 0 0.7249 
26-May-2018_10:09:51 Exp 7327 19 female R 3 4 23 immoralSelf moralOther mismatch n n 1 0.7720 
26-May-2018_10:09:54 Exp 7327 19 female R 3 4 24 moralSelf immoralOther mismatch n n 1 0.7561 
26-May-2018_10:09:56 Exp 7327 19 female R 3 5 1 moralOther moralSelf mismatch n m 0 0.6719 
26-May-2018_10:09:58 Exp 7327 19 female R 3 5 2 immoralSelf moralSelf mismatch n n 1 0.7421 
26-May-2018_10:10:01 Exp 7327 19 female R 3 5 3 immoralSelf immoralSelf match m n 0 0.8057 
26-May-2018_10:10:03 Exp 7327 19 female R 3 5 4 moralOther immoralOther mismatch n n 1 0.8827 
26-May-2018_10:10:06 Exp 7327 19 female R 3 5 5 moralOther moralOther match m m 1 0.8291 
26-May-2018_10:10:08 Exp 7327 19 female R 3 5 6 moralOther moralOther match m m 1 0.5464 
26-May-2018_10:10:10 Exp 7327 19 female R 3 5 7 immoralOther immoralOther match m m 1 0.6420 
26-May-2018_10:10:13 Exp 7327 19 female R 3 5 8 immoralOther moralSelf mismatch n n 1 0.6034 
26-May-2018_10:10:15 Exp 7327 19 female R 3 5 9 moralSelf immoralOther mismatch n n 1 0.6800 
26-May-2018_10:10:17 Exp 7327 19 female R 3 5 10 immoralSelf immoralOther mismatch n n 1 0.8666 
26-May-2018_10:10:20 Exp 7327 19 female R 3 5 11 moralOther moralOther match m m 1 0.5887 
26-May-2018_10:10:22 Exp 7327 19 female R 3 5 12 moralSelf moralSelf match m m 1 0.6132 
26-May-2018_10:10:24 Exp 7327 19 female R 3 5 13 immoralSelf moralSelf mismatch n n 1 0.5903 
26-May-2018_10:10:27 Exp 7327 19 female R 3 5 14 moralSelf moralOther mismatch n m 0 0.7987 
26-May-2018_10:10:29 Exp 7327 19 female R 3 5 15 immoralOther immoralOther match m m 1 0.5796 
26-May-2018_10:10:31 Exp 7327 19 female R 3 5 16 moralSelf immoralSelf mismatch n n 1 0.7119 
26-May-2018_10:10:34 Exp 7327 19 female R 3 5 17 immoralSelf immoralSelf match m m 1 0.8189 
26-May-2018_10:10:36 Exp 7327 19 female R 3 5 18 immoralSelf immoralSelf match m m 1 0.5719 
26-May-2018_10:10:38 Exp 7327 19 female R 3 5 19 moralOther immoralOther mismatch n n 1 0.7080 
26-May-2018_10:10:40 Exp 7327 19 female R 3 5 20 immoralOther immoralOther match m m 1 0.5428 
26-May-2018_10:10:42 Exp 7327 19 female R 3 5 21 moralSelf moralSelf match m m 1 0.5585 
26-May-2018_10:10:45 Exp 7327 19 female R 3 5 22 immoralOther moralOther mismatch n n 1 0.6423 
26-May-2018_10:10:47 Exp 7327 19 female R 3 5 23 moralSelf moralSelf match m m 1 0.5557 
26-May-2018_10:10:49 Exp 7327 19 female R 3 5 24 immoralOther moralSelf mismatch n n 1 0.6556 
Date Prac Sub Age Sex Hand Block Bin Trial Shape Label Match CorrResp Resp ACC RT
26-May-2018_10:16:19 Exp 7327 19 female R 1 1 1 immoralSelf immoralSelf match m m 1 0.7590 
26-May-2018_10:16:22 Exp 7327 19 female R 1 1 2 immoralOther immoralOther match m m 1 0.6350 
26-May-2018_10:16:24 Exp 7327 19 female R 1 1 3 immoralOther immoralSelf mismatch n n 1 0.9564 
26-May-2018_10:16:27 Exp 7327 19 female R 1 1 4 immoralSelf immoralOther mismatch n n 1 0.7523 
26-May-2018_10:16:29 Exp 7327 19 female R 1 1 5 moralOther immoralOther mismatch n n 1 0.7721 
26-May-2018_10:16:31 Exp 7327 19 female R 1 1 6 moralOther moralOther match m m 1 0.6603 
26-May-2018_10:16:34 Exp 7327 19 female R 1 1 7 moralOther immoralOther mismatch n n 1 0.6303 
26-May-2018_10:16:36 Exp 7327 19 female R 1 1 8 moralSelf moralOther mismatch n n 1 0.8915 
26-May-2018_10:16:38 Exp 7327 19 female R 1 1 9 moralSelf moralSelf match m m 1 0.7062 
26-May-2018_10:16:41 Exp 7327 19 female R 1 1 10 moralSelf immoralOther mismatch n n 1 0.6451 
26-May-2018_10:16:43 Exp 7327 19 female R 1 1 11 immoralSelf moralOther mismatch n n 1 0.7308 
26-May-2018_10:16:46 Exp 7327 19 female R 1 1 12 immoralOther immoralOther match m m 1 0.7502 
26-May-2018_10:16:48 Exp 7327 19 female R 1 1 13 immoralOther immoralOther match m m 1 0.6421 
26-May-2018_10:16:50 Exp 7327 19 female R 1 1 14 moralOther immoralSelf mismatch n n 1 0.8276 
26-May-2018_10:16:53 Exp 7327 19 female R 1 1 15 moralOther moralOther match m m 1 0.7208 
26-May-2018_10:16:55 Exp 7327 19 female R 1 1 16 moralSelf immoralSelf mismatch n n 1 0.7279 
26-May-2018_10:16:57 Exp 7327 19 female R 1 1 17 moralSelf moralSelf match m m 1 0.6433 
26-May-2018_10:17:00 Exp 7327 19 female R 1 1 18 moralOther moralOther match m m 1 0.7328 
26-May-2018_10:17:02 Exp 7327 19 female R 1 1 19 immoralSelf moralSelf mismatch n n 1 0.7042 
26-May-2018_10:17:04 Exp 7327 19 female R 1 1 20 immoralOther moralSelf mismatch n n 1 0.6911 
26-May-2018_10:17:07 Exp 7327 19 female R 1 1 21 immoralOther immoralSelf mismatch n n 1 0.7858 
26-May-2018_10:17:09 Exp 7327 19 female R 1 1 22 immoralSelf immoralSelf match m m 1 0.6504 
26-May-2018_10:17:11 Exp 7327 19 female R 1 1 23 immoralSelf immoralSelf match m m 1 0.5841 
26-May-2018_10:17:14 Exp 7327 19 female R 1 1 24 moralSelf moralSelf match m m 1 0.8444 
26-May-2018_10:17:16 Exp 7327 19 female R 1 2 1 immoralSelf immoralSelf match m NA -1 1.0841 
26-May-2018_10:17:19 Exp 7327 19 female R 1 2 2 immoralOther immoralOther match m m 1 0.8366 
26-May-2018_10:17:21 Exp 7327 19 female R 1 2 3 moralOther moralOther match m m 1 0.6861 
26-May-2018_10:17:24 Exp 7327 19 female R 1 2 4 moralOther immoralOther mismatch n n 1 0.7286 
26-May-2018_10:17:26 Exp 7327 19 female R 1 2 5 moralSelf moralOther mismatch n n 1 0.7239 
26-May-2018_10:17:28 Exp 7327 19 female R 1 2 6 immoralOther moralOther mismatch n n 1 0.6591 
26-May-2018_10:17:30 Exp 7327 19 female R 1 2 7 moralSelf moralSelf match m m 1 0.6690 
26-May-2018_10:17:33 Exp 7327 19 female R 1 2 8 immoralSelf immoralSelf match m m 1 0.7154 
26-May-2018_10:17:35 Exp 7327 19 female R 1 2 9 moralSelf moralSelf match m m 1 0.7144 
26-May-2018_10:17:37 Exp 7327 19 female R 1 2 10 moralSelf immoralSelf mismatch n n 1 0.6133 
26-May-2018_10:17:40 Exp 7327 19 female R 1 2 11 immoralSelf moralSelf mismatch n n 1 0.8144 
26-May-2018_10:17:42 Exp 7327 19 female R 1 2 12 immoralOther immoralSelf mismatch n n 1 0.6714 
26-May-2018_10:17:45 Exp 7327 19 female R 1 2 13 immoralSelf moralSelf mismatch n n 1 0.7337 
26-May-2018_10:17:47 Exp 7327 19 female R 1 2 14 immoralSelf immoralSelf match m m 1 0.7850 
26-May-2018_10:17:49 Exp 7327 19 female R 1 2 15 immoralOther immoralOther match m m 1 0.6373 
26-May-2018_10:17:52 Exp 7327 19 female R 1 2 16 moralOther immoralSelf mismatch n n 1 0.7348 
26-May-2018_10:17:54 Exp 7327 19 female R 1 2 17 moralOther immoralSelf mismatch n n 1 0.8262 
26-May-2018_10:17:56 Exp 7327 19 female R 1 2 18 moralSelf moralSelf match m m 1 0.6155 
26-May-2018_10:17:59 Exp 7327 19 female R 1 2 19 immoralSelf immoralOther mismatch n n 1 0.7845 
26-May-2018_10:18:01 Exp 7327 19 female R 1 2 20 immoralOther moralOther mismatch n n 1 0.5968 
26-May-2018_10:18:03 Exp 7327 19 female R 1 2 21 moralOther moralOther match m m 1 0.6614 
26-May-2018_10:18:06 Exp 7327 19 female R 1 2 22 moralSelf moralOther mismatch n n 1 0.7914 
26-May-2018_10:18:08 Exp 7327 19 female R 1 2 23 immoralOther immoralOther match m m 1 0.6880 
26-May-2018_10:18:10 Exp 7327 19 female R 1 2 24 moralOther moralOther match m m 1 0.8024 
Date Prac Sub Age Sex Hand Block Bin Trial Shape Label Match CorrResp Resp ACC RT
26-May-2018_10:23:37 Exp 7327 19 female R 1 1 1 moralOther moralSelf mismatch n NA -1 1.0841 
26-May-2018_10:23:39 Exp 7327 19 female R 1 1 2 immoralSelf immoralSelf match m m 1 0.6162 
26-May-2018_10:23:42 Exp 7327 19 female R 1 1 3 moralSelf immoralOther mismatch n n 1 0.6973 
26-May-2018_10:23:44 Exp 7327 19 female R 1 1 4 immoralOther moralSelf mismatch n n 1 0.6799 
26-May-2018_10:23:46 Exp 7327 19 female R 1 1 5 moralOther immoralSelf mismatch n n 1 0.6664 
26-May-2018_10:23:49 Exp 7327 19 female R 1 1 6 immoralOther immoralOther match m m 1 0.6924 
26-May-2018_10:23:51 Exp 7327 19 female R 1 1 7 immoralSelf immoralSelf match m m 1 0.7311 
26-May-2018_10:23:53 Exp 7327 19 female R 1 1 8 moralOther moralOther match m m 1 0.6625 
26-May-2018_10:23:56 Exp 7327 19 female R 1 1 9 moralSelf immoralOther mismatch n n 1 0.7444 
26-May-2018_10:23:58 Exp 7327 19 female R 1 1 10 moralSelf moralSelf match m m 1 0.7200 
26-May-2018_10:24:00 Exp 7327 19 female R 1 1 11 immoralOther immoralOther match m m 1 0.6151 
26-May-2018_10:24:03 Exp 7327 19 female R 1 1 12 immoralOther immoralSelf mismatch n n 1 0.7282 
26-May-2018_10:24:05 Exp 7327 19 female R 1 1 13 moralOther moralOther match m m 1 0.5956 
26-May-2018_10:24:07 Exp 7327 19 female R 1 1 14 moralOther moralOther match m m 1 0.5721 
26-May-2018_10:24:09 Exp 7327 19 female R 1 1 15 moralSelf moralSelf match m m 1 0.5962 
26-May-2018_10:24:12 Exp 7327 19 female R 1 1 16 immoralSelf moralOther mismatch n n 1 0.6607 
26-May-2018_10:24:14 Exp 7327 19 female R 1 1 17 immoralSelf immoralOther mismatch n n 1 0.7427 
26-May-2018_10:24:16 Exp 7327 19 female R 1 1 18 immoralOther immoralOther match m m 1 0.5983 
26-May-2018_10:24:19 Exp 7327 19 female R 1 1 19 moralSelf immoralOther mismatch n n 1 0.6992 
26-May-2018_10:24:21 Exp 7327 19 female R 1 1 20 moralSelf moralSelf match m m 1 0.6338 
26-May-2018_10:24:24 Exp 7327 19 female R 1 1 21 moralOther moralSelf mismatch n n 1 1.0113 
26-May-2018_10:24:26 Exp 7327 19 female R 1 1 22 immoralOther moralSelf mismatch n n 1 0.8204 
26-May-2018_10:24:28 Exp 7327 19 female R 1 1 23 immoralSelf immoralSelf match m m 1 0.7494 
26-May-2018_10:24:31 Exp 7327 19 female R 1 1 24 immoralSelf immoralOther mismatch n n 1 0.6771 
26-May-2018_10:24:33 Exp 7327 19 female R 1 2 1 moralSelf moralOther mismatch n m 0 0.5712 
26-May-2018_10:24:35 Exp 7327 19 female R 1 2 2 moralOther immoralSelf mismatch n n 1 0.7633 
26-May-2018_10:24:37 Exp 7327 19 female R 1 2 3 immoralSelf immoralSelf match m m 1 0.6034 
26-May-2018_10:24:40 Exp 7327 19 female R 1 2 4 moralSelf moralSelf match m m 1 0.7042 
26-May-2018_10:24:42 Exp 7327 19 female R 1 2 5 immoralSelf moralOther mismatch n n 1 0.7631 
26-May-2018_10:24:45 Exp 7327 19 female R 1 2 6 moralSelf immoralSelf mismatch n n 1 0.6512 
26-May-2018_10:24:47 Exp 7327 19 female R 1 2 7 moralOther moralOther match m m 1 0.6169 
26-May-2018_10:24:49 Exp 7327 19 female R 1 2 8 moralSelf moralSelf match m m 1 0.7699 
26-May-2018_10:24:51 Exp 7327 19 female R 1 2 9 immoralOther immoralOther match m m 1 0.5620 
26-May-2018_10:24:54 Exp 7327 19 female R 1 2 10 immoralSelf immoralOther mismatch n n 1 0.6421 
26-May-2018_10:24:56 Exp 7327 19 female R 1 2 11 immoralOther immoralOther match m m 1 0.6276 
26-May-2018_10:24:58 Exp 7327 19 female R 1 2 12 immoralOther moralSelf mismatch n n 1 0.6409 
26-May-2018_10:25:01 Exp 7327 19 female R 1 2 13 immoralSelf immoralSelf match m m 1 0.7543 
26-May-2018_10:25:03 Exp 7327 19 female R 1 2 14 immoralOther moralOther mismatch n n 1 0.6303 
26-May-2018_10:25:05 Exp 7327 19 female R 1 2 15 moralSelf moralSelf match m m 1 0.4595 
26-May-2018_10:25:07 Exp 7327 19 female R 1 2 16 immoralSelf immoralSelf match m m 1 0.6934 
26-May-2018_10:25:10 Exp 7327 19 female R 1 2 17 moralSelf immoralSelf mismatch n n 1 0.7321 
26-May-2018_10:25:12 Exp 7327 19 female R 1 2 18 moralOther immoralOther mismatch n n 1 0.7755 
26-May-2018_10:25:15 Exp 7327 19 female R 1 2 19 immoralOther immoralSelf mismatch n NA -1 1.0841 
26-May-2018_10:25:17 Exp 7327 19 female R 1 2 20 moralOther moralOther match m m 1 0.7023 
26-May-2018_10:25:19 Exp 7327 19 female R 1 2 21 moralOther immoralSelf mismatch n n 1 0.7409 
26-May-2018_10:25:22 Exp 7327 19 female R 1 2 22 moralOther moralOther match m m 1 0.8205 
26-May-2018_10:25:24 Exp 7327 19 female R 1 2 23 immoralSelf moralOther mismatch n n 1 0.5619 
26-May-2018_10:25:26 Exp 7327 19 female R 1 2 24 immoralOther immoralOther match m m 1 0.6819 
Date Prac Sub Age Sex Hand Block Bin Trial Shape Label Match CorrResp Resp ACC RT
26-May-2018_10:30:22 Exp 7327 19 female R 1 1 1 moralOther immoralOther mismatch n n 1 0.7866 
26-May-2018_10:30:25 Exp 7327 19 female R 1 1 2 moralSelf moralSelf match m m 1 0.5633 
26-May-2018_10:30:27 Exp 7327 19 female R 1 1 3 moralOther immoralSelf mismatch n n 1 0.7633 
26-May-2018_10:30:29 Exp 7327 19 female R 1 1 4 immoralOther immoralOther match m m 1 0.6354 
26-May-2018_10:30:32 Exp 7327 19 female R 1 1 5 immoralSelf immoralOther mismatch n n 1 0.6210 
26-May-2018_10:30:34 Exp 7327 19 female R 1 1 6 immoralSelf immoralSelf match m m 1 0.5862 
26-May-2018_10:30:36 Exp 7327 19 female R 1 1 7 immoralOther moralOther mismatch n n 1 0.7228 
26-May-2018_10:30:38 Exp 7327 19 female R 1 1 8 immoralSelf immoralOther mismatch n n 1 0.7460 
26-May-2018_10:30:41 Exp 7327 19 female R 1 1 9 immoralOther immoralOther match m m 1 0.6255 
26-May-2018_10:30:43 Exp 7327 19 female R 1 1 10 moralOther moralOther match m m 1 0.7908 
26-May-2018_10:30:46 Exp 7327 19 female R 1 1 11 immoralSelf immoralOther mismatch n n 1 0.7753 
26-May-2018_10:30:48 Exp 7327 19 female R 1 1 12 immoralOther moralOther mismatch n n 1 0.6837 
26-May-2018_10:30:50 Exp 7327 19 female R 1 1 13 moralSelf immoralSelf mismatch n n 1 0.7021 
26-May-2018_10:30:52 Exp 7327 19 female R 1 1 14 moralSelf immoralSelf mismatch n n 1 0.6128 
26-May-2018_10:30:55 Exp 7327 19 female R 1 1 15 immoralSelf immoralSelf match m m 1 0.4219 
26-May-2018_10:30:57 Exp 7327 19 female R 1 1 16 moralOther immoralSelf mismatch n n 1 0.6430 
26-May-2018_10:30:59 Exp 7327 19 female R 1 1 17 immoralSelf immoralSelf match m m 1 0.5646 
26-May-2018_10:31:01 Exp 7327 19 female R 1 1 18 immoralOther immoralOther match m m 1 0.6126 
26-May-2018_10:31:03 Exp 7327 19 female R 1 1 19 moralOther moralOther match m m 1 0.6057 
26-May-2018_10:31:06 Exp 7327 19 female R 1 1 20 moralOther moralOther match m m 1 0.5705 
26-May-2018_10:31:08 Exp 7327 19 female R 1 1 21 immoralOther moralOther mismatch n n 1 0.7145 
26-May-2018_10:31:10 Exp 7327 19 female R 1 1 22 moralSelf immoralOther mismatch n n 1 0.6854 
26-May-2018_10:31:12 Exp 7327 19 female R 1 1 23 moralSelf moralSelf match m m 1 0.4159 
26-May-2018_10:31:14 Exp 7327 19 female R 1 1 24 moralSelf moralSelf match m m 1 0.4889 
26-May-2018_10:31:17 Exp 7327 19 female R 1 2 1 moralOther moralSelf mismatch n n 1 0.7394 
26-May-2018_10:31:19 Exp 7327 19 female R 1 2 2 immoralOther immoralOther match m m 1 0.5470 
26-May-2018_10:31:22 Exp 7327 19 female R 1 2 3 moralSelf moralOther mismatch n m 0 0.8826 
26-May-2018_10:31:24 Exp 7327 19 female R 1 2 4 immoralSelf immoralOther mismatch n n 1 0.7010 
26-May-2018_10:31:26 Exp 7327 19 female R 1 2 5 immoralSelf immoralSelf match m m 1 0.6518 
26-May-2018_10:31:29 Exp 7327 19 female R 1 2 6 moralSelf moralOther mismatch n n 1 0.7454 
26-May-2018_10:31:31 Exp 7327 19 female R 1 2 7 immoralOther moralSelf mismatch n n 1 0.5690 
26-May-2018_10:31:33 Exp 7327 19 female R 1 2 8 immoralSelf immoralSelf match m m 1 0.6011 
26-May-2018_10:31:35 Exp 7327 19 female R 1 2 9 moralSelf moralSelf match m m 1 0.5900 
26-May-2018_10:31:37 Exp 7327 19 female R 1 2 10 moralSelf immoralSelf mismatch n n 1 0.6224 
26-May-2018_10:31:40 Exp 7327 19 female R 1 2 11 immoralOther immoralOther match m m 1 0.5798 
26-May-2018_10:31:42 Exp 7327 19 female R 1 2 12 immoralSelf moralOther mismatch n n 1 0.7681 
26-May-2018_10:31:45 Exp 7327 19 female R 1 2 13 moralOther moralOther match m m 1 0.8962 
26-May-2018_10:31:47 Exp 7327 19 female R 1 2 14 immoralOther immoralOther match m m 1 0.5669 
26-May-2018_10:31:49 Exp 7327 19 female R 1 2 15 moralOther moralOther match m m 1 0.5669 
26-May-2018_10:31:51 Exp 7327 19 female R 1 2 16 immoralSelf moralOther mismatch n n 1 0.7030 
26-May-2018_10:31:54 Exp 7327 19 female R 1 2 17 moralSelf moralSelf match m m 1 0.8098 
26-May-2018_10:31:56 Exp 7327 19 female R 1 2 18 moralOther moralSelf mismatch n n 1 0.5870 
26-May-2018_10:31:58 Exp 7327 19 female R 1 2 19 immoralOther moralSelf mismatch n n 1 0.6515 
26-May-2018_10:32:01 Exp 7327 19 female R 1 2 20 immoralSelf immoralSelf match m m 1 0.6413 
26-May-2018_10:32:03 Exp 7327 19 female R 1 2 21 moralOther immoralSelf mismatch n n 1 0.6587 
26-May-2018_10:32:05 Exp 7327 19 female R 1 2 22 immoralOther moralOther mismatch n m 0 0.6607 
26-May-2018_10:32:07 Exp 7327 19 female R 1 2 23 moralSelf moralSelf match m m 1 0.6227 
26-May-2018_10:32:10 Exp 7327 19 female R 1 2 24 moralOther moralOther match m m 1 0.7639 
Date Prac Sub Age Sex Hand Block Bin Trial Shape Label Match CorrResp Resp ACC RT
26-May-2018_10:37:23 Exp 7327 19 female R 1 1 1 immoralSelf immoralSelf match m m 1 0.6387 
26-May-2018_10:37:26 Exp 7327 19 female R 1 1 2 immoralOther moralSelf mismatch n n 1 0.7042 
26-May-2018_10:37:28 Exp 7327 19 female R 1 1 3 immoralOther moralOther mismatch n n 1 0.8271 
26-May-2018_10:37:30 Exp 7327 19 female R 1 1 4 immoralOther moralOther mismatch n n 1 0.5525 
26-May-2018_10:37:33 Exp 7327 19 female R 1 1 5 moralOther moralSelf mismatch n n 1 0.6443 
26-May-2018_10:37:35 Exp 7327 19 female R 1 1 6 immoralOther immoralOther match m m 1 0.6821 
26-May-2018_10:37:38 Exp 7327 19 female R 1 1 7 moralOther immoralSelf mismatch n n 1 0.9085 
26-May-2018_10:37:40 Exp 7327 19 female R 1 1 8 moralSelf moralSelf match m m 1 0.6154 
26-May-2018_10:37:42 Exp 7327 19 female R 1 1 9 immoralOther immoralOther match m m 1 0.6084 
26-May-2018_10:37:44 Exp 7327 19 female R 1 1 10 immoralSelf immoralSelf match m m 1 0.7252 
26-May-2018_10:37:47 Exp 7327 19 female R 1 1 11 moralSelf immoralSelf mismatch n n 1 0.7884 
26-May-2018_10:37:49 Exp 7327 19 female R 1 1 12 immoralSelf moralSelf mismatch n n 1 0.7329 
26-May-2018_10:37:52 Exp 7327 19 female R 1 1 13 immoralSelf immoralOther mismatch n n 1 0.7763 
26-May-2018_10:37:54 Exp 7327 19 female R 1 1 14 immoralSelf immoralSelf match m m 1 0.6286 
26-May-2018_10:37:56 Exp 7327 19 female R 1 1 15 moralSelf immoralSelf mismatch n n 1 0.5778 
26-May-2018_10:37:59 Exp 7327 19 female R 1 1 16 moralOther immoralOther mismatch n n 1 0.8381 
26-May-2018_10:38:01 Exp 7327 19 female R 1 1 17 immoralSelf immoralOther mismatch n n 1 0.7757 
26-May-2018_10:38:03 Exp 7327 19 female R 1 1 18 moralSelf moralSelf match m m 1 0.6041 
26-May-2018_10:38:05 Exp 7327 19 female R 1 1 19 immoralOther immoralOther match m m 1 0.6888 
26-May-2018_10:38:08 Exp 7327 19 female R 1 1 20 moralOther moralOther match m m 1 0.6352 
26-May-2018_10:38:10 Exp 7327 19 female R 1 1 21 moralOther moralOther match m m 1 0.4608 
26-May-2018_10:38:12 Exp 7327 19 female R 1 1 22 moralSelf moralSelf match m m 1 0.6467 
26-May-2018_10:38:14 Exp 7327 19 female R 1 1 23 moralSelf immoralSelf mismatch n n 1 0.6524 
26-May-2018_10:38:17 Exp 7327 19 female R 1 1 24 moralOther moralOther match m m 1 0.5862 
26-May-2018_10:38:19 Exp 7327 19 female R 1 2 1 moralOther moralOther match m m 1 0.5548 
26-May-2018_10:38:21 Exp 7327 19 female R 1 2 2 moralSelf immoralOther mismatch n n 1 0.6865 
26-May-2018_10:38:23 Exp 7327 19 female R 1 2 3 immoralSelf immoralSelf match m m 1 0.5851 
26-May-2018_10:38:26 Exp 7327 19 female R 1 2 4 moralOther moralOther match m m 1 0.6213 
26-May-2018_10:38:28 Exp 7327 19 female R 1 2 5 moralOther immoralSelf mismatch n n 1 0.5546 
26-May-2018_10:38:30 Exp 7327 19 female R 1 2 6 immoralOther immoralOther match m m 1 0.5425 
26-May-2018_10:38:32 Exp 7327 19 female R 1 2 7 immoralOther immoralSelf mismatch n n 1 0.5580 
26-May-2018_10:38:35 Exp 7327 19 female R 1 2 8 immoralSelf immoralSelf match m m 1 0.7219 
26-May-2018_10:38:37 Exp 7327 19 female R 1 2 9 immoralSelf moralOther mismatch n n 1 0.5691 
26-May-2018_10:38:39 Exp 7327 19 female R 1 2 10 immoralSelf immoralOther mismatch n n 1 0.6651 
26-May-2018_10:38:41 Exp 7327 19 female R 1 2 11 moralSelf immoralSelf mismatch n n 1 0.5871 
26-May-2018_10:38:44 Exp 7327 19 female R 1 2 12 moralSelf moralSelf match m m 1 0.6276 
26-May-2018_10:38:46 Exp 7327 19 female R 1 2 13 moralSelf moralSelf match m m 1 0.5609 
26-May-2018_10:38:48 Exp 7327 19 female R 1 2 14 immoralOther immoralSelf mismatch n n 1 0.6447 
26-May-2018_10:38:50 Exp 7327 19 female R 1 2 15 immoralOther immoralOther match m m 1 0.6265 
26-May-2018_10:38:52 Exp 7327 19 female R 1 2 16 immoralOther immoralOther match m m 1 0.5278 
26-May-2018_10:38:55 Exp 7327 19 female R 1 2 17 moralSelf moralOther mismatch n m 0 0.6832 
26-May-2018_10:38:57 Exp 7327 19 female R 1 2 18 immoralSelf immoralSelf match m m 1 0.6376 
26-May-2018_10:38:59 Exp 7327 19 female R 1 2 19 moralOther moralOther match m m 1 0.5990 
26-May-2018_10:39:01 Exp 7327 19 female R 1 2 20 moralOther moralSelf mismatch n n 1 0.5879 
26-May-2018_10:39:04 Exp 7327 19 female R 1 2 21 immoralOther immoralSelf mismatch n n 1 0.7964 
26-May-2018_10:39:06 Exp 7327 19 female R 1 2 22 moralOther immoralOther mismatch n n 1 0.6690 
26-May-2018_10:39:08 Exp 7327 19 female R 1 2 23 moralSelf moralSelf match m m 1 0.6192 
26-May-2018_10:39:11 Exp 7327 19 female R 1 2 24 immoralSelf moralSelf mismatch n n 1 0.7082 
Date Prac Sub Age Sex Hand Block Bin Trial Shape Label Match CorrResp Resp ACC RT
26-May-2018_10:44:11 Exp 7327 19 female R 1 1 1 moralSelf moralSelf match m m 1 0.4936 
26-May-2018_10:44:13 Exp 7327 19 female R 1 1 2 immoralSelf immoralSelf match m m 1 0.5964 
26-May-2018_10:44:15 Exp 7327 19 female R 1 1 3 immoralSelf moralOther mismatch n n 1 0.7169 
26-May-2018_10:44:18 Exp 7327 19 female R 1 1 4 immoralSelf immoralSelf match m m 1 0.5641 
26-May-2018_10:44:20 Exp 7327 19 female R 1 1 5 moralSelf immoralOther mismatch n n 1 0.6921 
26-May-2018_10:44:22 Exp 7327 19 female R 1 1 6 moralSelf moralSelf match m m 1 0.7868 
26-May-2018_10:44:25 Exp 7327 19 female R 1 1 7 immoralOther immoralOther match m m 1 0.5554 
26-May-2018_10:44:27 Exp 7327 19 female R 1 1 8 moralOther moralSelf mismatch n n 1 0.6393 
26-May-2018_10:44:29 Exp 7327 19 female R 1 1 9 moralOther moralOther match m m 1 0.4567 
26-May-2018_10:44:31 Exp 7327 19 female R 1 1 10 moralOther moralOther match m m 1 0.4507 
26-May-2018_10:44:33 Exp 7327 19 female R 1 1 11 immoralOther immoralOther match m m 1 0.5764 
26-May-2018_10:44:35 Exp 7327 19 female R 1 1 12 moralOther moralSelf mismatch n m 0 0.5968 
26-May-2018_10:44:38 Exp 7327 19 female R 1 1 13 moralSelf immoralSelf mismatch n n 1 0.5413 
26-May-2018_10:44:40 Exp 7327 19 female R 1 1 14 moralSelf moralSelf match m m 1 0.7009 
26-May-2018_10:44:42 Exp 7327 19 female R 1 1 15 immoralSelf immoralSelf match m m 1 0.8436 
26-May-2018_10:44:45 Exp 7327 19 female R 1 1 16 moralSelf immoralOther mismatch n n 1 1.0451 
26-May-2018_10:44:48 Exp 7327 19 female R 1 1 17 immoralOther immoralSelf mismatch n m 0 0.8188 
26-May-2018_10:44:50 Exp 7327 19 female R 1 1 18 immoralSelf moralSelf mismatch n n 1 0.8198 
26-May-2018_10:44:52 Exp 7327 19 female R 1 1 19 immoralOther immoralOther match m m 1 0.7249 
26-May-2018_10:44:55 Exp 7327 19 female R 1 1 20 immoralOther immoralSelf mismatch n n 1 0.7320 
26-May-2018_10:44:57 Exp 7327 19 female R 1 1 21 immoralSelf moralOther mismatch n n 1 0.6314 
26-May-2018_10:45:00 Exp 7327 19 female R 1 1 22 moralOther moralOther match m m 1 0.9807 
26-May-2018_10:45:02 Exp 7327 19 female R 1 1 23 moralOther immoralSelf mismatch n n 1 0.6011 
26-May-2018_10:45:04 Exp 7327 19 female R 1 1 24 immoralOther moralOther mismatch n n 1 0.6058 
26-May-2018_10:45:06 Exp 7327 19 female R 1 2 1 immoralOther immoralSelf mismatch n n 1 0.7146 
26-May-2018_10:45:09 Exp 7327 19 female R 1 2 2 immoralSelf immoralOther mismatch n n 1 0.6818 
26-May-2018_10:45:11 Exp 7327 19 female R 1 2 3 immoralSelf moralOther mismatch n n 1 0.6842 
26-May-2018_10:45:13 Exp 7327 19 female R 1 2 4 moralSelf moralSelf match m m 1 0.5826 
26-May-2018_10:45:16 Exp 7327 19 female R 1 2 5 immoralOther immoralSelf mismatch n n 1 0.6830 
26-May-2018_10:45:18 Exp 7327 19 female R 1 2 6 immoralOther immoralOther match m m 1 0.5494 
26-May-2018_10:45:20 Exp 7327 19 female R 1 2 7 moralSelf immoralSelf mismatch n n 1 0.6930 
26-May-2018_10:45:22 Exp 7327 19 female R 1 2 8 moralOther moralOther match m m 1 0.6757 
26-May-2018_10:45:25 Exp 7327 19 female R 1 2 9 immoralOther immoralOther match m m 1 0.6659 
26-May-2018_10:45:27 Exp 7327 19 female R 1 2 10 moralSelf moralOther mismatch n n 1 0.8118 
26-May-2018_10:45:29 Exp 7327 19 female R 1 2 11 immoralSelf immoralSelf match m m 1 0.6849 
26-May-2018_10:45:32 Exp 7327 19 female R 1 2 12 immoralSelf immoralSelf match m m 1 0.5754 
26-May-2018_10:45:34 Exp 7327 19 female R 1 2 13 moralOther immoralOther mismatch n n 1 0.8756 
26-May-2018_10:45:37 Exp 7327 19 female R 1 2 14 moralOther immoralSelf mismatch n n 1 0.8019 
26-May-2018_10:45:39 Exp 7327 19 female R 1 2 15 moralSelf immoralOther mismatch n n 1 0.7027 
26-May-2018_10:45:41 Exp 7327 19 female R 1 2 16 immoralOther immoralOther match m m 1 0.6294 
26-May-2018_10:45:43 Exp 7327 19 female R 1 2 17 moralSelf moralSelf match m m 1 0.6666 
26-May-2018_10:45:46 Exp 7327 19 female R 1 2 18 moralOther immoralOther mismatch n n 1 0.5646 
26-May-2018_10:45:48 Exp 7327 19 female R 1 2 19 moralOther moralOther match m m 1 0.7488 
26-May-2018_10:45:50 Exp 7327 19 female R 1 2 20 immoralSelf moralSelf mismatch n n 1 0.6203 
26-May-2018_10:45:53 Exp 7327 19 female R 1 2 21 immoralOther moralSelf mismatch n n 1 0.6934 
26-May-2018_10:45:55 Exp 7327 19 female R 1 2 22 moralOther moralOther match m m 1 0.7400 
26-May-2018_10:45:57 Exp 7327 19 female R 1 2 23 immoralSelf immoralSelf match m m 1 0.6997 
26-May-2018_10:46:00 Exp 7327 19 female R 1 2 24 moralSelf moralSelf match m m 1 0.6983 
