Date Prac Sub Age Sex Hand Block Bin Trial Shape Label Match CorrResp Resp ACC RT
07-Jun-2018_13:42:34 Exp 7343 20 female R 1 1 1 moralOther moralOther match m n 0 0.7906 
07-Jun-2018_13:42:36 Exp 7343 20 female R 1 1 2 immoralSelf immoralSelf match m m 1 0.9833 
07-Jun-2018_13:42:39 Exp 7343 20 female R 1 1 3 immoralSelf immoralOther mismatch n n 1 0.9236 
07-Jun-2018_13:42:41 Exp 7343 20 female R 1 1 4 moralSelf moralSelf match m m 1 0.6667 
07-Jun-2018_13:42:44 Exp 7343 20 female R 1 1 5 immoralSelf immoralSelf match m m 1 0.8767 
07-Jun-2018_13:42:46 Exp 7343 20 female R 1 1 6 immoralSelf immoralSelf match m m 1 0.6109 
07-Jun-2018_13:42:48 Exp 7343 20 female R 1 1 7 immoralOther immoralOther match m m 1 0.8120 
07-Jun-2018_13:42:51 Exp 7343 20 female R 1 1 8 moralOther immoralSelf mismatch n m 0 0.8931 
07-Jun-2018_13:42:53 Exp 7343 20 female R 1 1 9 moralOther moralOther match m m 1 0.8357 
07-Jun-2018_13:42:56 Exp 7343 20 female R 1 1 10 immoralOther immoralSelf mismatch n NA -1 1.0841 
07-Jun-2018_13:42:59 Exp 7343 20 female R 1 1 11 immoralSelf moralSelf mismatch n m 0 0.8557 
07-Jun-2018_13:43:01 Exp 7343 20 female R 1 1 12 moralSelf immoralSelf mismatch n m 0 1.0817 
07-Jun-2018_13:43:04 Exp 7343 20 female R 1 1 13 immoralOther immoralOther match m m 1 0.8602 
07-Jun-2018_13:43:06 Exp 7343 20 female R 1 1 14 moralOther moralSelf mismatch n n 1 0.7741 
07-Jun-2018_13:43:09 Exp 7343 20 female R 1 1 15 moralSelf moralOther mismatch n m 0 0.7464 
07-Jun-2018_13:43:11 Exp 7343 20 female R 1 1 16 immoralOther immoralOther match m m 1 0.8742 
07-Jun-2018_13:43:14 Exp 7343 20 female R 1 1 17 moralOther moralSelf mismatch n n 1 0.8483 
07-Jun-2018_13:43:16 Exp 7343 20 female R 1 1 18 moralSelf immoralOther mismatch n n 1 0.8381 
07-Jun-2018_13:43:18 Exp 7343 20 female R 1 1 19 immoralSelf immoralOther mismatch n n 1 0.7116 
07-Jun-2018_13:43:21 Exp 7343 20 female R 1 1 20 moralSelf moralSelf match m m 1 0.6746 
07-Jun-2018_13:43:23 Exp 7343 20 female R 1 1 21 immoralOther immoralSelf mismatch n m 0 0.8647 
07-Jun-2018_13:43:25 Exp 7343 20 female R 1 1 22 moralSelf moralSelf match m m 1 0.5227 
07-Jun-2018_13:43:28 Exp 7343 20 female R 1 1 23 moralOther moralOther match m n 0 0.7059 
07-Jun-2018_13:43:30 Exp 7343 20 female R 1 1 24 immoralOther immoralSelf mismatch n m 0 0.5568 
07-Jun-2018_13:43:32 Exp 7343 20 female R 1 2 1 immoralOther immoralOther match m m 1 0.6807 
07-Jun-2018_13:43:35 Exp 7343 20 female R 1 2 2 moralOther immoralOther mismatch n n 1 0.8111 
07-Jun-2018_13:43:37 Exp 7343 20 female R 1 2 3 moralSelf moralSelf match m m 1 0.5722 
07-Jun-2018_13:43:39 Exp 7343 20 female R 1 2 4 moralOther immoralSelf mismatch n m 0 0.5962 
07-Jun-2018_13:43:41 Exp 7343 20 female R 1 2 5 moralOther moralOther match m n 0 0.4928 
07-Jun-2018_13:43:43 Exp 7343 20 female R 1 2 6 immoralSelf immoralSelf match m m 1 0.3075 
07-Jun-2018_13:43:45 Exp 7343 20 female R 1 2 7 immoralOther immoralSelf mismatch n m 0 0.6864 
07-Jun-2018_13:43:48 Exp 7343 20 female R 1 2 8 immoralSelf immoralSelf match m n 0 0.6968 
07-Jun-2018_13:43:50 Exp 7343 20 female R 1 2 9 immoralSelf moralOther mismatch n n 1 0.8235 
07-Jun-2018_13:43:52 Exp 7343 20 female R 1 2 10 moralSelf moralSelf match m m 1 0.6528 
07-Jun-2018_13:43:55 Exp 7343 20 female R 1 2 11 immoralSelf moralOther mismatch n n 1 0.7226 
07-Jun-2018_13:43:57 Exp 7343 20 female R 1 2 12 immoralOther immoralOther match m m 1 0.6977 
07-Jun-2018_13:44:00 Exp 7343 20 female R 1 2 13 moralSelf immoralSelf mismatch n m 0 0.7284 
07-Jun-2018_13:44:02 Exp 7343 20 female R 1 2 14 immoralSelf immoralSelf match m m 1 0.6838 
07-Jun-2018_13:44:04 Exp 7343 20 female R 1 2 15 moralOther immoralSelf mismatch n n 1 0.6622 
07-Jun-2018_13:44:07 Exp 7343 20 female R 1 2 16 moralSelf immoralSelf mismatch n n 1 0.8722 
07-Jun-2018_13:44:09 Exp 7343 20 female R 1 2 17 immoralOther moralOther mismatch n m 0 0.7424 
07-Jun-2018_13:44:11 Exp 7343 20 female R 1 2 18 moralSelf moralSelf match m m 1 0.5741 
07-Jun-2018_13:44:14 Exp 7343 20 female R 1 2 19 moralSelf immoralOther mismatch n n 1 0.7944 
07-Jun-2018_13:44:16 Exp 7343 20 female R 1 2 20 moralOther moralOther match m m 1 0.7709 
07-Jun-2018_13:44:18 Exp 7343 20 female R 1 2 21 immoralSelf moralOther mismatch n n 1 0.7950 
07-Jun-2018_13:44:21 Exp 7343 20 female R 1 2 22 immoralOther immoralOther match m m 1 0.8116 
07-Jun-2018_13:44:24 Exp 7343 20 female R 1 2 23 immoralOther immoralSelf mismatch n n 1 1.0207 
07-Jun-2018_13:44:26 Exp 7343 20 female R 1 2 24 moralOther moralOther match m m 1 0.8019 
07-Jun-2018_13:44:29 Exp 7343 20 female R 1 3 1 moralOther moralOther match m n 0 1.0627 
07-Jun-2018_13:44:31 Exp 7343 20 female R 1 3 2 moralOther immoralSelf mismatch n n 1 0.8488 
07-Jun-2018_13:44:33 Exp 7343 20 female R 1 3 3 moralSelf moralSelf match m m 1 0.6145 
07-Jun-2018_13:44:36 Exp 7343 20 female R 1 3 4 immoralSelf immoralSelf match m m 1 0.9355 
07-Jun-2018_13:44:38 Exp 7343 20 female R 1 3 5 immoralSelf immoralSelf match m m 1 0.7630 
07-Jun-2018_13:44:41 Exp 7343 20 female R 1 3 6 immoralOther immoralSelf mismatch n n 1 0.7151 
07-Jun-2018_13:44:43 Exp 7343 20 female R 1 3 7 moralOther immoralSelf mismatch n n 1 0.8902 
07-Jun-2018_13:44:46 Exp 7343 20 female R 1 3 8 moralSelf immoralSelf mismatch n NA -1 1.0841 
07-Jun-2018_13:44:49 Exp 7343 20 female R 1 3 9 immoralOther moralSelf mismatch n n 1 1.0711 
07-Jun-2018_13:44:51 Exp 7343 20 female R 1 3 10 moralOther moralOther match m m 1 0.7494 
07-Jun-2018_13:44:54 Exp 7343 20 female R 1 3 11 immoralSelf moralSelf mismatch n m 0 0.8850 
07-Jun-2018_13:44:56 Exp 7343 20 female R 1 3 12 moralSelf immoralSelf mismatch n m 0 0.6874 
07-Jun-2018_13:44:58 Exp 7343 20 female R 1 3 13 immoralOther immoralSelf mismatch n n 1 0.7618 
07-Jun-2018_13:45:01 Exp 7343 20 female R 1 3 14 moralSelf moralSelf match m m 1 0.5939 
07-Jun-2018_13:45:03 Exp 7343 20 female R 1 3 15 moralOther moralSelf mismatch n n 1 0.7466 
07-Jun-2018_13:45:05 Exp 7343 20 female R 1 3 16 moralSelf moralSelf match m m 1 0.9062 
07-Jun-2018_13:45:08 Exp 7343 20 female R 1 3 17 immoralOther immoralOther match m n 0 0.6532 
07-Jun-2018_13:45:10 Exp 7343 20 female R 1 3 18 moralSelf immoralOther mismatch n n 1 0.6669 
07-Jun-2018_13:45:12 Exp 7343 20 female R 1 3 19 immoralSelf immoralSelf match m m 1 0.6448 
07-Jun-2018_13:45:15 Exp 7343 20 female R 1 3 20 moralOther moralOther match m n 0 0.7946 
07-Jun-2018_13:45:17 Exp 7343 20 female R 1 3 21 immoralOther immoralOther match m m 1 0.6111 
07-Jun-2018_13:45:19 Exp 7343 20 female R 1 3 22 immoralSelf moralSelf mismatch n n 1 0.7882 
07-Jun-2018_13:45:22 Exp 7343 20 female R 1 3 23 immoralOther immoralOther match m m 1 0.8848 
07-Jun-2018_13:45:24 Exp 7343 20 female R 1 3 24 immoralSelf immoralOther mismatch n n 1 0.7032 
07-Jun-2018_13:46:02 Exp 7343 20 female R 1 4 1 immoralOther immoralOther match m m 1 0.7358 
07-Jun-2018_13:46:04 Exp 7343 20 female R 1 4 2 moralOther immoralSelf mismatch n n 1 0.9152 
07-Jun-2018_13:46:07 Exp 7343 20 female R 1 4 3 immoralSelf immoralSelf match m m 1 0.7703 
07-Jun-2018_13:46:09 Exp 7343 20 female R 1 4 4 immoralOther immoralSelf mismatch n n 1 0.8664 
07-Jun-2018_13:46:12 Exp 7343 20 female R 1 4 5 moralOther immoralOther mismatch n n 1 0.8364 
07-Jun-2018_13:46:14 Exp 7343 20 female R 1 4 6 moralOther moralOther match m m 1 0.9019 
07-Jun-2018_13:46:16 Exp 7343 20 female R 1 4 7 immoralOther immoralOther match m m 1 0.7490 
07-Jun-2018_13:46:19 Exp 7343 20 female R 1 4 8 moralSelf moralOther mismatch n m 0 0.6764 
07-Jun-2018_13:46:21 Exp 7343 20 female R 1 4 9 immoralSelf immoralOther mismatch n m 0 0.7865 
07-Jun-2018_13:46:23 Exp 7343 20 female R 1 4 10 immoralSelf moralSelf mismatch n m 0 0.5551 
07-Jun-2018_13:46:26 Exp 7343 20 female R 1 4 11 moralSelf moralOther mismatch n m 0 0.5510 
07-Jun-2018_13:46:28 Exp 7343 20 female R 1 4 12 moralSelf moralSelf match m m 1 0.8668 
07-Jun-2018_13:46:31 Exp 7343 20 female R 1 4 13 moralSelf immoralSelf mismatch n n 1 0.7968 
07-Jun-2018_13:46:33 Exp 7343 20 female R 1 4 14 immoralOther moralSelf mismatch n m 0 0.8214 
07-Jun-2018_13:46:35 Exp 7343 20 female R 1 4 15 moralSelf moralSelf match m n 0 0.5467 
07-Jun-2018_13:46:38 Exp 7343 20 female R 1 4 16 immoralSelf immoralSelf match m m 1 0.7382 
07-Jun-2018_13:46:40 Exp 7343 20 female R 1 4 17 immoralOther immoralOther match m m 1 0.6419 
07-Jun-2018_13:46:42 Exp 7343 20 female R 1 4 18 immoralSelf immoralOther mismatch n m 0 0.6994 
07-Jun-2018_13:46:44 Exp 7343 20 female R 1 4 19 immoralOther moralOther mismatch n m 0 0.7220 
07-Jun-2018_13:46:47 Exp 7343 20 female R 1 4 20 moralOther moralOther match m m 1 0.7692 
07-Jun-2018_13:46:49 Exp 7343 20 female R 1 4 21 immoralSelf immoralSelf match m n 0 0.6653 
07-Jun-2018_13:46:52 Exp 7343 20 female R 1 4 22 moralOther moralOther match m m 1 0.8034 
07-Jun-2018_13:46:54 Exp 7343 20 female R 1 4 23 moralOther immoralOther mismatch n m 0 0.6161 
07-Jun-2018_13:46:56 Exp 7343 20 female R 1 4 24 moralSelf moralSelf match m m 1 0.6572 
07-Jun-2018_13:46:58 Exp 7343 20 female R 1 5 1 moralSelf moralSelf match m m 1 0.5871 
07-Jun-2018_13:47:01 Exp 7343 20 female R 1 5 2 moralOther immoralSelf mismatch n n 1 0.7957 
07-Jun-2018_13:47:03 Exp 7343 20 female R 1 5 3 immoralSelf immoralSelf match m m 1 0.7242 
07-Jun-2018_13:47:06 Exp 7343 20 female R 1 5 4 moralOther immoralOther mismatch n m 0 0.8034 
07-Jun-2018_13:47:08 Exp 7343 20 female R 1 5 5 immoralOther immoralSelf mismatch n m 0 0.6963 
07-Jun-2018_13:47:10 Exp 7343 20 female R 1 5 6 moralSelf immoralOther mismatch n n 1 0.8310 
07-Jun-2018_13:47:13 Exp 7343 20 female R 1 5 7 immoralOther immoralOther match m n 0 0.8442 
07-Jun-2018_13:47:15 Exp 7343 20 female R 1 5 8 moralOther moralOther match m m 1 0.8660 
07-Jun-2018_13:47:18 Exp 7343 20 female R 1 5 9 immoralOther moralSelf mismatch n m 0 0.7879 
07-Jun-2018_13:47:20 Exp 7343 20 female R 1 5 10 moralOther immoralSelf mismatch n m 0 0.9245 
07-Jun-2018_13:47:23 Exp 7343 20 female R 1 5 11 moralSelf moralSelf match m m 1 0.6836 
07-Jun-2018_13:47:25 Exp 7343 20 female R 1 5 12 immoralOther immoralOther match m m 1 0.9741 
07-Jun-2018_13:47:28 Exp 7343 20 female R 1 5 13 immoralSelf moralOther mismatch n n 1 0.9544 
07-Jun-2018_13:47:30 Exp 7343 20 female R 1 5 14 immoralSelf immoralSelf match m m 1 0.8944 
07-Jun-2018_13:47:33 Exp 7343 20 female R 1 5 15 moralSelf immoralSelf mismatch n n 1 0.8450 
07-Jun-2018_13:47:35 Exp 7343 20 female R 1 5 16 moralOther moralOther match m m 1 0.8108 
07-Jun-2018_13:47:38 Exp 7343 20 female R 1 5 17 moralOther moralOther match m m 1 0.6678 
07-Jun-2018_13:47:40 Exp 7343 20 female R 1 5 18 immoralSelf immoralSelf match m m 1 0.9140 
07-Jun-2018_13:47:43 Exp 7343 20 female R 1 5 19 immoralSelf moralOther mismatch n n 1 0.9330 
07-Jun-2018_13:47:45 Exp 7343 20 female R 1 5 20 moralSelf moralSelf match m m 1 0.7363 
07-Jun-2018_13:47:48 Exp 7343 20 female R 1 5 21 immoralSelf immoralOther mismatch n n 1 0.8118 
07-Jun-2018_13:47:50 Exp 7343 20 female R 1 5 22 immoralOther moralOther mismatch n n 1 0.9008 
07-Jun-2018_13:47:53 Exp 7343 20 female R 1 5 23 immoralOther immoralOther match m m 1 0.8515 
07-Jun-2018_13:47:55 Exp 7343 20 female R 1 5 24 moralSelf immoralSelf mismatch n n 1 0.9292 
07-Jun-2018_13:48:01 Exp 7343 20 female R 2 1 1 moralSelf moralOther mismatch n NA -1 1.0841 
07-Jun-2018_13:48:03 Exp 7343 20 female R 2 1 2 moralOther moralOther match m m 1 0.5517 
07-Jun-2018_13:48:05 Exp 7343 20 female R 2 1 3 immoralOther immoralOther match m m 1 0.6436 
07-Jun-2018_13:48:08 Exp 7343 20 female R 2 1 4 moralOther immoralOther mismatch n m 0 0.6771 
07-Jun-2018_13:48:10 Exp 7343 20 female R 2 1 5 moralOther moralOther match m m 1 0.7393 
07-Jun-2018_13:48:12 Exp 7343 20 female R 2 1 6 immoralSelf immoralSelf match m n 0 0.8430 
07-Jun-2018_13:48:15 Exp 7343 20 female R 2 1 7 moralOther moralSelf mismatch n NA -1 1.0841 
07-Jun-2018_13:48:17 Exp 7343 20 female R 2 1 8 immoralSelf immoralOther mismatch n m 0 0.5909 
07-Jun-2018_13:48:19 Exp 7343 20 female R 2 1 9 immoralSelf immoralSelf match m n 0 0.2075 
07-Jun-2018_13:48:21 Exp 7343 20 female R 2 1 10 moralSelf moralSelf match m m 1 0.5803 
07-Jun-2018_13:48:24 Exp 7343 20 female R 2 1 11 immoralSelf immoralSelf match m m 1 0.7846 
07-Jun-2018_13:48:26 Exp 7343 20 female R 2 1 12 moralOther moralOther match m m 1 0.8529 
07-Jun-2018_13:48:29 Exp 7343 20 female R 2 1 13 moralSelf moralOther mismatch n n 1 0.7387 
07-Jun-2018_13:48:31 Exp 7343 20 female R 2 1 14 immoralOther moralSelf mismatch n n 1 0.9063 
07-Jun-2018_13:48:34 Exp 7343 20 female R 2 1 15 immoralOther moralSelf mismatch n n 1 0.6692 
07-Jun-2018_13:48:36 Exp 7343 20 female R 2 1 16 immoralOther moralOther mismatch n n 1 0.7554 
07-Jun-2018_13:48:38 Exp 7343 20 female R 2 1 17 moralSelf moralSelf match m m 1 0.6153 
07-Jun-2018_13:48:41 Exp 7343 20 female R 2 1 18 moralSelf moralOther mismatch n n 1 0.9203 
07-Jun-2018_13:48:43 Exp 7343 20 female R 2 1 19 immoralSelf moralSelf mismatch n m 0 0.8955 
07-Jun-2018_13:48:46 Exp 7343 20 female R 2 1 20 immoralSelf moralSelf mismatch n m 0 0.7342 
07-Jun-2018_13:48:48 Exp 7343 20 female R 2 1 21 moralSelf moralSelf match m m 1 0.7296 
07-Jun-2018_13:48:50 Exp 7343 20 female R 2 1 22 moralOther immoralOther mismatch n n 1 0.8050 
07-Jun-2018_13:48:53 Exp 7343 20 female R 2 1 23 immoralOther immoralOther match m n 0 0.6978 
07-Jun-2018_13:48:55 Exp 7343 20 female R 2 1 24 immoralOther immoralOther match m m 1 0.6565 
07-Jun-2018_13:48:58 Exp 7343 20 female R 2 2 1 immoralSelf immoralSelf match m m 1 0.8664 
07-Jun-2018_13:49:00 Exp 7343 20 female R 2 2 2 immoralOther immoralOther match m n 0 0.7324 
07-Jun-2018_13:49:02 Exp 7343 20 female R 2 2 3 immoralOther immoralOther match m m 1 0.6958 
07-Jun-2018_13:49:05 Exp 7343 20 female R 2 2 4 immoralOther immoralSelf mismatch n n 1 0.8865 
07-Jun-2018_13:49:07 Exp 7343 20 female R 2 2 5 moralOther moralOther match m m 1 0.9289 
07-Jun-2018_13:49:10 Exp 7343 20 female R 2 2 6 immoralOther moralOther mismatch n n 1 0.8523 
07-Jun-2018_13:49:12 Exp 7343 20 female R 2 2 7 immoralSelf moralSelf mismatch n n 1 0.8821 
07-Jun-2018_13:49:15 Exp 7343 20 female R 2 2 8 moralOther immoralSelf mismatch n m 0 0.8844 
07-Jun-2018_13:49:17 Exp 7343 20 female R 2 2 9 moralOther moralSelf mismatch n n 1 0.9910 
07-Jun-2018_13:49:20 Exp 7343 20 female R 2 2 10 immoralSelf moralOther mismatch n n 1 0.7516 
07-Jun-2018_13:49:23 Exp 7343 20 female R 2 2 11 moralSelf immoralOther mismatch n NA -1 1.0841 
07-Jun-2018_13:49:25 Exp 7343 20 female R 2 2 12 immoralSelf immoralSelf match m m 1 0.6779 
07-Jun-2018_13:49:27 Exp 7343 20 female R 2 2 13 immoralOther moralOther mismatch n n 1 0.4921 
07-Jun-2018_13:49:29 Exp 7343 20 female R 2 2 14 moralSelf moralSelf match m m 1 0.5628 
07-Jun-2018_13:49:32 Exp 7343 20 female R 2 2 15 moralSelf moralSelf match m n 0 0.8110 
07-Jun-2018_13:49:34 Exp 7343 20 female R 2 2 16 moralOther moralOther match m m 1 0.7640 
07-Jun-2018_13:49:36 Exp 7343 20 female R 2 2 17 moralSelf immoralOther mismatch n n 1 0.6760 
07-Jun-2018_13:49:39 Exp 7343 20 female R 2 2 18 moralOther immoralSelf mismatch n n 1 0.7223 
07-Jun-2018_13:49:41 Exp 7343 20 female R 2 2 19 immoralSelf immoralSelf match m m 1 0.9134 
07-Jun-2018_13:49:44 Exp 7343 20 female R 2 2 20 moralSelf moralSelf match m m 1 0.6283 
07-Jun-2018_13:49:46 Exp 7343 20 female R 2 2 21 immoralSelf moralOther mismatch n n 1 0.8177 
07-Jun-2018_13:49:48 Exp 7343 20 female R 2 2 22 moralOther moralOther match m n 0 0.7946 
07-Jun-2018_13:49:51 Exp 7343 20 female R 2 2 23 immoralOther immoralOther match m m 1 0.5952 
07-Jun-2018_13:49:53 Exp 7343 20 female R 2 2 24 moralSelf moralOther mismatch n m 0 0.6358 
07-Jun-2018_13:49:55 Exp 7343 20 female R 2 3 1 immoralSelf immoralSelf match m m 1 0.7413 
07-Jun-2018_13:49:58 Exp 7343 20 female R 2 3 2 immoralOther immoralSelf mismatch n n 1 0.7489 
07-Jun-2018_13:50:00 Exp 7343 20 female R 2 3 3 moralSelf moralSelf match m m 1 0.7086 
07-Jun-2018_13:50:02 Exp 7343 20 female R 2 3 4 immoralSelf immoralSelf match m m 1 0.5915 
07-Jun-2018_13:50:04 Exp 7343 20 female R 2 3 5 moralSelf moralSelf match m m 1 0.5920 
07-Jun-2018_13:50:07 Exp 7343 20 female R 2 3 6 immoralOther moralSelf mismatch n n 1 0.8566 
07-Jun-2018_13:50:09 Exp 7343 20 female R 2 3 7 immoralSelf immoralSelf match m m 1 0.7147 
07-Jun-2018_13:50:12 Exp 7343 20 female R 2 3 8 moralSelf immoralOther mismatch n m 0 0.6097 
07-Jun-2018_13:50:14 Exp 7343 20 female R 2 3 9 moralOther immoralOther mismatch n m 0 0.7548 
07-Jun-2018_13:50:16 Exp 7343 20 female R 2 3 10 immoralSelf moralOther mismatch n n 1 0.8467 
07-Jun-2018_13:50:19 Exp 7343 20 female R 2 3 11 moralOther moralOther match m n 0 0.9244 
07-Jun-2018_13:50:21 Exp 7343 20 female R 2 3 12 moralOther moralOther match m m 1 0.7636 
07-Jun-2018_13:50:24 Exp 7343 20 female R 2 3 13 moralOther immoralOther mismatch n n 1 0.9797 
07-Jun-2018_13:50:27 Exp 7343 20 female R 2 3 14 immoralSelf immoralOther mismatch n NA -1 1.0841 
07-Jun-2018_13:50:29 Exp 7343 20 female R 2 3 15 moralSelf moralSelf match m m 1 0.6425 
07-Jun-2018_13:50:31 Exp 7343 20 female R 2 3 16 moralSelf immoralOther mismatch n m 0 0.7400 
07-Jun-2018_13:50:34 Exp 7343 20 female R 2 3 17 immoralOther immoralOther match m m 1 0.6997 
07-Jun-2018_13:50:36 Exp 7343 20 female R 2 3 18 immoralSelf moralOther mismatch n m 0 0.6103 
07-Jun-2018_13:50:38 Exp 7343 20 female R 2 3 19 moralOther moralOther match m m 1 0.8673 
07-Jun-2018_13:50:41 Exp 7343 20 female R 2 3 20 moralOther immoralOther mismatch n n 1 0.6294 
07-Jun-2018_13:50:43 Exp 7343 20 female R 2 3 21 immoralOther moralOther mismatch n m 0 0.7305 
07-Jun-2018_13:50:45 Exp 7343 20 female R 2 3 22 immoralOther immoralOther match m m 1 0.6302 
07-Jun-2018_13:50:47 Exp 7343 20 female R 2 3 23 immoralOther immoralOther match m m 1 0.5072 
07-Jun-2018_13:50:50 Exp 7343 20 female R 2 3 24 moralSelf moralOther mismatch n m 0 0.6222 
07-Jun-2018_13:51:18 Exp 7343 20 female R 2 4 1 moralSelf moralSelf match m m 1 0.5118 
07-Jun-2018_13:51:20 Exp 7343 20 female R 2 4 2 immoralSelf immoralSelf match m m 1 0.5867 
07-Jun-2018_13:51:22 Exp 7343 20 female R 2 4 3 immoralOther immoralOther match m m 1 0.7394 
07-Jun-2018_13:51:25 Exp 7343 20 female R 2 4 4 immoralSelf moralSelf mismatch n n 1 0.5150 
07-Jun-2018_13:51:27 Exp 7343 20 female R 2 4 5 moralSelf moralSelf match m m 1 0.6821 
07-Jun-2018_13:51:29 Exp 7343 20 female R 2 4 6 moralOther immoralSelf mismatch n n 1 0.8285 
07-Jun-2018_13:51:32 Exp 7343 20 female R 2 4 7 moralOther immoralOther mismatch n m 0 0.9938 
07-Jun-2018_13:51:34 Exp 7343 20 female R 2 4 8 immoralOther moralOther mismatch n n 1 0.9144 
07-Jun-2018_13:51:37 Exp 7343 20 female R 2 4 9 moralOther moralOther match m m 1 0.9092 
07-Jun-2018_13:51:39 Exp 7343 20 female R 2 4 10 immoralSelf moralOther mismatch n n 1 0.7523 
07-Jun-2018_13:51:42 Exp 7343 20 female R 2 4 11 immoralOther immoralOther match m m 1 0.6200 
07-Jun-2018_13:51:44 Exp 7343 20 female R 2 4 12 moralSelf immoralOther mismatch n m 0 0.7651 
07-Jun-2018_13:51:46 Exp 7343 20 female R 2 4 13 immoralOther immoralOther match m m 1 0.7172 
07-Jun-2018_13:51:49 Exp 7343 20 female R 2 4 14 moralOther moralSelf mismatch n n 1 0.9484 
07-Jun-2018_13:51:51 Exp 7343 20 female R 2 4 15 immoralSelf immoralSelf match m m 1 0.6520 
07-Jun-2018_13:51:54 Exp 7343 20 female R 2 4 16 moralSelf moralOther mismatch n m 0 0.6658 
07-Jun-2018_13:51:56 Exp 7343 20 female R 2 4 17 immoralSelf immoralSelf match m m 1 0.7077 
07-Jun-2018_13:51:58 Exp 7343 20 female R 2 4 18 moralOther moralOther match m m 1 0.7587 
07-Jun-2018_13:52:01 Exp 7343 20 female R 2 4 19 immoralOther moralOther mismatch n m 0 0.8266 
07-Jun-2018_13:52:03 Exp 7343 20 female R 2 4 20 moralSelf moralSelf match m m 1 0.7839 
07-Jun-2018_13:52:05 Exp 7343 20 female R 2 4 21 immoralSelf moralOther mismatch n n 1 0.6361 
07-Jun-2018_13:52:08 Exp 7343 20 female R 2 4 22 moralOther moralOther match m m 1 0.7416 
07-Jun-2018_13:52:10 Exp 7343 20 female R 2 4 23 immoralOther moralOther mismatch n n 1 0.9654 
07-Jun-2018_13:52:13 Exp 7343 20 female R 2 4 24 moralSelf immoralOther mismatch n m 0 0.7974 
07-Jun-2018_13:52:15 Exp 7343 20 female R 2 5 1 moralSelf moralSelf match m m 1 0.7382 
07-Jun-2018_13:52:17 Exp 7343 20 female R 2 5 2 moralOther immoralSelf mismatch n n 1 0.6578 
07-Jun-2018_13:52:20 Exp 7343 20 female R 2 5 3 immoralOther moralSelf mismatch n n 1 0.9878 
07-Jun-2018_13:52:22 Exp 7343 20 female R 2 5 4 moralSelf moralSelf match m m 1 0.6044 
07-Jun-2018_13:52:25 Exp 7343 20 female R 2 5 5 moralOther moralSelf mismatch n n 1 0.7611 
07-Jun-2018_13:52:27 Exp 7343 20 female R 2 5 6 moralSelf moralSelf match m m 1 0.6691 
07-Jun-2018_13:52:30 Exp 7343 20 female R 2 5 7 moralOther immoralSelf mismatch n n 1 0.9313 
07-Jun-2018_13:52:32 Exp 7343 20 female R 2 5 8 moralOther moralOther match m n 0 1.0226 
07-Jun-2018_13:52:35 Exp 7343 20 female R 2 5 9 immoralSelf immoralSelf match m NA -1 1.0841 
07-Jun-2018_13:52:38 Exp 7343 20 female R 2 5 10 immoralSelf moralOther mismatch n n 1 1.0064 
07-Jun-2018_13:52:40 Exp 7343 20 female R 2 5 11 immoralOther moralOther mismatch n n 1 0.9632 
07-Jun-2018_13:52:43 Exp 7343 20 female R 2 5 12 immoralSelf moralSelf mismatch n n 1 0.7712 
07-Jun-2018_13:52:45 Exp 7343 20 female R 2 5 13 moralSelf immoralSelf mismatch n m 0 0.7314 
07-Jun-2018_13:52:47 Exp 7343 20 female R 2 5 14 moralOther moralOther match m n 0 0.6629 
07-Jun-2018_13:52:49 Exp 7343 20 female R 2 5 15 immoralSelf immoralOther mismatch n n 1 0.4008 
07-Jun-2018_13:52:52 Exp 7343 20 female R 2 5 16 moralSelf immoralSelf mismatch n m 0 0.6856 
07-Jun-2018_13:52:54 Exp 7343 20 female R 2 5 17 immoralSelf immoralSelf match m n 0 0.6240 
07-Jun-2018_13:52:56 Exp 7343 20 female R 2 5 18 immoralOther immoralOther match m m 1 0.7173 
07-Jun-2018_13:52:59 Exp 7343 20 female R 2 5 19 moralSelf immoralSelf mismatch n n 1 0.6926 
07-Jun-2018_13:53:01 Exp 7343 20 female R 2 5 20 immoralOther immoralSelf mismatch n n 1 0.5952 
07-Jun-2018_13:53:03 Exp 7343 20 female R 2 5 21 immoralSelf immoralSelf match m m 1 0.8518 
07-Jun-2018_13:53:06 Exp 7343 20 female R 2 5 22 immoralOther immoralOther match m n 0 0.6255 
07-Jun-2018_13:53:08 Exp 7343 20 female R 2 5 23 moralOther moralOther match m n 0 0.7188 
07-Jun-2018_13:53:10 Exp 7343 20 female R 2 5 24 immoralOther immoralOther match m m 1 0.6780 
07-Jun-2018_13:53:16 Exp 7343 20 female R 3 1 1 immoralOther immoralOther match m m 1 0.6607 
07-Jun-2018_13:53:18 Exp 7343 20 female R 3 1 2 moralOther moralOther match m m 1 0.6786 
07-Jun-2018_13:53:20 Exp 7343 20 female R 3 1 3 moralOther moralSelf mismatch n n 1 0.7969 
07-Jun-2018_13:53:23 Exp 7343 20 female R 3 1 4 immoralOther moralOther mismatch n n 1 0.8054 
07-Jun-2018_13:53:25 Exp 7343 20 female R 3 1 5 immoralOther moralSelf mismatch n m 0 0.8903 
07-Jun-2018_13:53:28 Exp 7343 20 female R 3 1 6 moralOther immoralSelf mismatch n m 0 0.9407 
07-Jun-2018_13:53:30 Exp 7343 20 female R 3 1 7 moralOther moralSelf mismatch n n 1 1.0524 
07-Jun-2018_13:53:33 Exp 7343 20 female R 3 1 8 moralSelf immoralOther mismatch n n 1 0.7621 
07-Jun-2018_13:53:35 Exp 7343 20 female R 3 1 9 moralOther moralOther match m n 0 0.7623 
07-Jun-2018_13:53:38 Exp 7343 20 female R 3 1 10 immoralSelf immoralSelf match m m 1 0.7544 
07-Jun-2018_13:53:40 Exp 7343 20 female R 3 1 11 moralSelf immoralOther mismatch n n 1 0.7662 
07-Jun-2018_13:53:42 Exp 7343 20 female R 3 1 12 immoralOther immoralOther match m m 1 0.7583 
07-Jun-2018_13:53:45 Exp 7343 20 female R 3 1 13 immoralSelf moralSelf mismatch n n 1 0.8102 
07-Jun-2018_13:53:47 Exp 7343 20 female R 3 1 14 immoralOther moralSelf mismatch n n 1 0.7792 
07-Jun-2018_13:53:50 Exp 7343 20 female R 3 1 15 moralOther moralOther match m m 1 0.8556 
07-Jun-2018_13:53:52 Exp 7343 20 female R 3 1 16 moralSelf immoralOther mismatch n n 1 0.8454 
07-Jun-2018_13:53:55 Exp 7343 20 female R 3 1 17 moralSelf moralSelf match m m 1 0.6510 
07-Jun-2018_13:53:57 Exp 7343 20 female R 3 1 18 immoralOther immoralOther match m m 1 0.7448 
07-Jun-2018_13:53:59 Exp 7343 20 female R 3 1 19 immoralSelf moralOther mismatch n n 1 0.7524 
07-Jun-2018_13:54:02 Exp 7343 20 female R 3 1 20 immoralSelf immoralSelf match m n 0 0.8123 
07-Jun-2018_13:54:04 Exp 7343 20 female R 3 1 21 immoralSelf immoralSelf match m m 1 0.6534 
07-Jun-2018_13:54:06 Exp 7343 20 female R 3 1 22 moralSelf moralSelf match m m 1 0.7710 
07-Jun-2018_13:54:09 Exp 7343 20 female R 3 1 23 immoralSelf moralOther mismatch n n 1 0.6831 
07-Jun-2018_13:54:11 Exp 7343 20 female R 3 1 24 moralSelf moralSelf match m m 1 0.6456 
07-Jun-2018_13:54:14 Exp 7343 20 female R 3 2 1 immoralSelf immoralSelf match m m 1 0.9953 
07-Jun-2018_13:54:16 Exp 7343 20 female R 3 2 2 moralOther moralSelf mismatch n n 1 0.6759 
07-Jun-2018_13:54:18 Exp 7343 20 female R 3 2 3 immoralSelf moralSelf mismatch n n 1 0.7621 
07-Jun-2018_13:54:21 Exp 7343 20 female R 3 2 4 moralSelf moralOther mismatch n m 0 0.7782 
07-Jun-2018_13:54:23 Exp 7343 20 female R 3 2 5 moralOther immoralOther mismatch n m 0 0.8146 
07-Jun-2018_13:54:25 Exp 7343 20 female R 3 2 6 immoralOther immoralOther match m m 1 0.6476 
07-Jun-2018_13:54:28 Exp 7343 20 female R 3 2 7 moralSelf immoralOther mismatch n n 1 0.8374 
07-Jun-2018_13:54:30 Exp 7343 20 female R 3 2 8 moralOther immoralSelf mismatch n n 1 0.7829 
07-Jun-2018_13:54:33 Exp 7343 20 female R 3 2 9 moralSelf moralSelf match m m 1 0.6993 
07-Jun-2018_13:54:35 Exp 7343 20 female R 3 2 10 immoralOther immoralSelf mismatch n m 0 0.7380 
07-Jun-2018_13:54:37 Exp 7343 20 female R 3 2 11 immoralSelf moralOther mismatch n n 1 0.7574 
07-Jun-2018_13:54:40 Exp 7343 20 female R 3 2 12 moralOther moralOther match m n 0 0.7213 
07-Jun-2018_13:54:42 Exp 7343 20 female R 3 2 13 immoralOther moralSelf mismatch n n 1 0.9684 
07-Jun-2018_13:54:45 Exp 7343 20 female R 3 2 14 moralSelf moralSelf match m m 1 0.6164 
07-Jun-2018_13:54:47 Exp 7343 20 female R 3 2 15 immoralOther immoralOther match m m 1 0.7134 
07-Jun-2018_13:54:49 Exp 7343 20 female R 3 2 16 moralOther moralOther match m m 1 0.7324 
07-Jun-2018_13:54:52 Exp 7343 20 female R 3 2 17 moralOther moralOther match m m 1 0.6398 
07-Jun-2018_13:54:54 Exp 7343 20 female R 3 2 18 immoralOther immoralSelf mismatch n m 0 0.6893 
07-Jun-2018_13:54:56 Exp 7343 20 female R 3 2 19 immoralSelf immoralSelf match m m 1 0.5877 
07-Jun-2018_13:54:58 Exp 7343 20 female R 3 2 20 immoralOther immoralOther match m n 0 0.6843 
07-Jun-2018_13:55:01 Exp 7343 20 female R 3 2 21 moralSelf moralOther mismatch n m 0 0.4708 
07-Jun-2018_13:55:03 Exp 7343 20 female R 3 2 22 immoralSelf moralSelf mismatch n m 0 0.6529 
07-Jun-2018_13:55:05 Exp 7343 20 female R 3 2 23 immoralSelf immoralSelf match m n 0 0.8827 
07-Jun-2018_13:55:08 Exp 7343 20 female R 3 2 24 moralSelf moralSelf match m m 1 0.6451 
07-Jun-2018_13:55:10 Exp 7343 20 female R 3 3 1 immoralSelf immoralSelf match m m 1 0.6749 
07-Jun-2018_13:55:12 Exp 7343 20 female R 3 3 2 moralOther immoralOther mismatch n m 0 0.7691 
07-Jun-2018_13:55:15 Exp 7343 20 female R 3 3 3 immoralOther moralSelf mismatch n n 1 0.7852 
07-Jun-2018_13:55:17 Exp 7343 20 female R 3 3 4 moralOther moralOther match m n 0 0.9096 
07-Jun-2018_13:55:20 Exp 7343 20 female R 3 3 5 immoralOther moralSelf mismatch n m 0 0.7205 
07-Jun-2018_13:55:22 Exp 7343 20 female R 3 3 6 immoralOther immoralOther match m n 0 0.7436 
07-Jun-2018_13:55:24 Exp 7343 20 female R 3 3 7 immoralSelf immoralOther mismatch n m 0 0.5512 
07-Jun-2018_13:55:26 Exp 7343 20 female R 3 3 8 moralSelf moralSelf match m n 0 0.3391 
07-Jun-2018_13:55:28 Exp 7343 20 female R 3 3 9 moralSelf immoralSelf mismatch n n 1 0.4427 
07-Jun-2018_13:55:30 Exp 7343 20 female R 3 3 10 moralSelf moralSelf match m m 1 0.5082 
07-Jun-2018_13:55:32 Exp 7343 20 female R 3 3 11 moralOther moralOther match m n 0 0.3191 
07-Jun-2018_13:55:34 Exp 7343 20 female R 3 3 12 immoralOther moralOther mismatch n m 0 0.3503 
07-Jun-2018_13:55:36 Exp 7343 20 female R 3 3 13 immoralSelf immoralSelf match m n 0 0.4501 
07-Jun-2018_13:55:38 Exp 7343 20 female R 3 3 14 moralSelf moralSelf match m m 1 0.4078 
07-Jun-2018_13:55:41 Exp 7343 20 female R 3 3 15 moralOther immoralOther mismatch n m 0 0.6366 
07-Jun-2018_13:55:43 Exp 7343 20 female R 3 3 16 immoralSelf moralSelf mismatch n m 0 0.5101 
07-Jun-2018_13:55:45 Exp 7343 20 female R 3 3 17 moralOther moralOther match m m 1 0.8970 
07-Jun-2018_13:55:48 Exp 7343 20 female R 3 3 18 immoralSelf immoralSelf match m n 0 0.9597 
07-Jun-2018_13:55:50 Exp 7343 20 female R 3 3 19 immoralOther immoralOther match m m 1 0.6916 
07-Jun-2018_13:55:53 Exp 7343 20 female R 3 3 20 moralOther immoralSelf mismatch n m 0 0.7303 
07-Jun-2018_13:55:55 Exp 7343 20 female R 3 3 21 moralSelf moralOther mismatch n m 0 0.5097 
07-Jun-2018_13:55:57 Exp 7343 20 female R 3 3 22 moralSelf immoralOther mismatch n m 0 0.5926 
07-Jun-2018_13:56:00 Exp 7343 20 female R 3 3 23 immoralSelf moralSelf mismatch n n 1 0.8252 
07-Jun-2018_13:56:02 Exp 7343 20 female R 3 3 24 immoralOther immoralOther match m m 1 0.6865 
07-Jun-2018_13:56:39 Exp 7343 20 female R 3 4 1 moralSelf moralSelf match m n 0 0.6560 
07-Jun-2018_13:56:42 Exp 7343 20 female R 3 4 2 immoralOther moralOther mismatch n n 1 0.9300 
07-Jun-2018_13:56:44 Exp 7343 20 female R 3 4 3 immoralSelf moralSelf mismatch n n 1 0.7093 
07-Jun-2018_13:56:47 Exp 7343 20 female R 3 4 4 moralOther moralOther match m m 1 0.8403 
07-Jun-2018_13:56:49 Exp 7343 20 female R 3 4 5 moralSelf moralSelf match m m 1 0.6658 
07-Jun-2018_13:56:51 Exp 7343 20 female R 3 4 6 immoralSelf immoralSelf match m m 1 0.7238 
07-Jun-2018_13:56:54 Exp 7343 20 female R 3 4 7 moralSelf moralOther mismatch n m 0 0.6589 
07-Jun-2018_13:56:56 Exp 7343 20 female R 3 4 8 immoralSelf moralSelf mismatch n m 0 0.7569 
07-Jun-2018_13:56:58 Exp 7343 20 female R 3 4 9 immoralOther moralOther mismatch n n 1 0.8569 
07-Jun-2018_13:57:01 Exp 7343 20 female R 3 4 10 immoralOther immoralOther match m m 1 0.7147 
07-Jun-2018_13:57:03 Exp 7343 20 female R 3 4 11 immoralSelf immoralSelf match m m 1 0.8500 
07-Jun-2018_13:57:06 Exp 7343 20 female R 3 4 12 immoralOther immoralOther match m m 1 0.8398 
07-Jun-2018_13:57:08 Exp 7343 20 female R 3 4 13 immoralOther immoralOther match m m 1 0.5852 
07-Jun-2018_13:57:10 Exp 7343 20 female R 3 4 14 moralOther moralOther match m m 1 0.8456 
07-Jun-2018_13:57:13 Exp 7343 20 female R 3 4 15 moralOther immoralSelf mismatch n n 1 0.9713 
07-Jun-2018_13:57:15 Exp 7343 20 female R 3 4 16 moralSelf moralSelf match m m 1 0.6515 
07-Jun-2018_13:57:18 Exp 7343 20 female R 3 4 17 moralOther immoralOther mismatch n m 0 0.8252 
07-Jun-2018_13:57:20 Exp 7343 20 female R 3 4 18 moralOther moralOther match m m 1 0.7264 
07-Jun-2018_13:57:22 Exp 7343 20 female R 3 4 19 immoralSelf immoralSelf match m m 1 0.6658 
07-Jun-2018_13:57:25 Exp 7343 20 female R 3 4 20 moralOther immoralSelf mismatch n n 1 0.8278 
07-Jun-2018_13:57:28 Exp 7343 20 female R 3 4 21 moralSelf immoralOther mismatch n n 1 0.9930 
07-Jun-2018_13:57:30 Exp 7343 20 female R 3 4 22 immoralOther immoralSelf mismatch n n 1 0.9056 
07-Jun-2018_13:57:32 Exp 7343 20 female R 3 4 23 immoralSelf moralOther mismatch n n 1 0.7485 
07-Jun-2018_13:57:35 Exp 7343 20 female R 3 4 24 moralSelf immoralOther mismatch n m 0 0.7402 
07-Jun-2018_13:57:37 Exp 7343 20 female R 3 5 1 moralOther moralSelf mismatch n m 0 0.8918 
07-Jun-2018_13:57:40 Exp 7343 20 female R 3 5 2 immoralSelf moralSelf mismatch n n 1 0.7546 
07-Jun-2018_13:57:42 Exp 7343 20 female R 3 5 3 immoralSelf immoralSelf match m m 1 0.7024 
07-Jun-2018_13:57:45 Exp 7343 20 female R 3 5 4 moralOther immoralOther mismatch n n 1 0.9811 
07-Jun-2018_13:57:47 Exp 7343 20 female R 3 5 5 moralOther moralOther match m m 1 1.0095 
07-Jun-2018_13:57:50 Exp 7343 20 female R 3 5 6 moralOther moralOther match m m 1 0.5545 
07-Jun-2018_13:57:52 Exp 7343 20 female R 3 5 7 immoralOther immoralOther match m m 1 0.5504 
07-Jun-2018_13:57:54 Exp 7343 20 female R 3 5 8 immoralOther moralSelf mismatch n n 1 0.7542 
07-Jun-2018_13:57:56 Exp 7343 20 female R 3 5 9 moralSelf immoralOther mismatch n n 1 0.7821 
07-Jun-2018_13:57:59 Exp 7343 20 female R 3 5 10 immoralSelf immoralOther mismatch n n 1 0.7464 
07-Jun-2018_13:58:01 Exp 7343 20 female R 3 5 11 moralOther moralOther match m n 0 0.6340 
07-Jun-2018_13:58:04 Exp 7343 20 female R 3 5 12 moralSelf moralSelf match m n 0 0.8036 
07-Jun-2018_13:58:06 Exp 7343 20 female R 3 5 13 immoralSelf moralSelf mismatch n n 1 0.7043 
07-Jun-2018_13:58:08 Exp 7343 20 female R 3 5 14 moralSelf moralOther mismatch n m 0 0.7712 
07-Jun-2018_13:58:11 Exp 7343 20 female R 3 5 15 immoralOther immoralOther match m m 1 0.7954 
07-Jun-2018_13:58:13 Exp 7343 20 female R 3 5 16 moralSelf immoralSelf mismatch n n 1 0.8839 
07-Jun-2018_13:58:16 Exp 7343 20 female R 3 5 17 immoralSelf immoralSelf match m m 1 0.7744 
07-Jun-2018_13:58:18 Exp 7343 20 female R 3 5 18 immoralSelf immoralSelf match m m 1 0.5707 
07-Jun-2018_13:58:20 Exp 7343 20 female R 3 5 19 moralOther immoralOther mismatch n m 0 0.8909 
07-Jun-2018_13:58:23 Exp 7343 20 female R 3 5 20 immoralOther immoralOther match m m 1 0.5733 
07-Jun-2018_13:58:25 Exp 7343 20 female R 3 5 21 moralSelf moralSelf match m m 1 0.7973 
07-Jun-2018_13:58:28 Exp 7343 20 female R 3 5 22 immoralOther moralOther mismatch n m 0 1.0261 
07-Jun-2018_13:58:30 Exp 7343 20 female R 3 5 23 moralSelf moralSelf match m m 1 0.6474 
07-Jun-2018_13:58:32 Exp 7343 20 female R 3 5 24 immoralOther moralSelf mismatch n n 1 0.9012 
Date Prac Sub Age Sex Hand Block Bin Trial Shape Label Match CorrResp Resp ACC RT
07-Jun-2018_14:04:05 Exp 7343 20 female R 1 1 1 immoralSelf immoralSelf match m m 1 0.6129 
07-Jun-2018_14:04:07 Exp 7343 20 female R 1 1 2 immoralOther immoralOther match m n 0 0.7260 
07-Jun-2018_14:04:10 Exp 7343 20 female R 1 1 3 immoralOther immoralSelf mismatch n n 1 0.9213 
07-Jun-2018_14:04:12 Exp 7343 20 female R 1 1 4 immoralSelf immoralOther mismatch n m 0 0.8245 
07-Jun-2018_14:04:15 Exp 7343 20 female R 1 1 5 moralOther immoralOther mismatch n m 0 0.7338 
07-Jun-2018_14:04:17 Exp 7343 20 female R 1 1 6 moralOther moralOther match m m 1 1.0172 
07-Jun-2018_14:04:20 Exp 7343 20 female R 1 1 7 moralOther immoralOther mismatch n NA -1 1.0841 
07-Jun-2018_14:04:23 Exp 7343 20 female R 1 1 8 moralSelf moralOther mismatch n m 0 1.0127 
07-Jun-2018_14:04:25 Exp 7343 20 female R 1 1 9 moralSelf moralSelf match m m 1 0.6776 
07-Jun-2018_14:04:28 Exp 7343 20 female R 1 1 10 moralSelf immoralOther mismatch n n 1 0.7960 
07-Jun-2018_14:04:30 Exp 7343 20 female R 1 1 11 immoralSelf moralOther mismatch n n 1 0.8126 
07-Jun-2018_14:04:32 Exp 7343 20 female R 1 1 12 immoralOther immoralOther match m m 1 0.8376 
07-Jun-2018_14:04:35 Exp 7343 20 female R 1 1 13 immoralOther immoralOther match m m 1 0.4712 
07-Jun-2018_14:04:37 Exp 7343 20 female R 1 1 14 moralOther immoralSelf mismatch n n 1 0.9174 
07-Jun-2018_14:04:40 Exp 7343 20 female R 1 1 15 moralOther moralOther match m n 0 0.9484 
07-Jun-2018_14:04:42 Exp 7343 20 female R 1 1 16 moralSelf immoralSelf mismatch n n 1 1.0681 
07-Jun-2018_14:04:45 Exp 7343 20 female R 1 1 17 moralSelf moralSelf match m m 1 0.7624 
07-Jun-2018_14:04:47 Exp 7343 20 female R 1 1 18 moralOther moralOther match m n 0 0.8504 
07-Jun-2018_14:04:50 Exp 7343 20 female R 1 1 19 immoralSelf moralSelf mismatch n n 1 0.8642 
07-Jun-2018_14:04:52 Exp 7343 20 female R 1 1 20 immoralOther moralSelf mismatch n n 1 0.8901 
07-Jun-2018_14:04:55 Exp 7343 20 female R 1 1 21 immoralOther immoralSelf mismatch n n 1 0.9167 
07-Jun-2018_14:04:57 Exp 7343 20 female R 1 1 22 immoralSelf immoralSelf match m m 1 0.9318 
07-Jun-2018_14:05:00 Exp 7343 20 female R 1 1 23 immoralSelf immoralSelf match m m 1 0.6472 
07-Jun-2018_14:05:02 Exp 7343 20 female R 1 1 24 moralSelf moralSelf match m m 1 0.7409 
07-Jun-2018_14:05:05 Exp 7343 20 female R 1 2 1 immoralSelf immoralSelf match m m 1 0.7886 
07-Jun-2018_14:05:07 Exp 7343 20 female R 1 2 2 immoralOther immoralOther match m n 0 0.6851 
07-Jun-2018_14:05:09 Exp 7343 20 female R 1 2 3 moralOther moralOther match m m 1 0.7116 
07-Jun-2018_14:05:12 Exp 7343 20 female R 1 2 4 moralOther immoralOther mismatch n n 1 0.8186 
07-Jun-2018_14:05:14 Exp 7343 20 female R 1 2 5 moralSelf moralOther mismatch n m 0 0.7636 
07-Jun-2018_14:05:16 Exp 7343 20 female R 1 2 6 immoralOther moralOther mismatch n m 0 0.7716 
07-Jun-2018_14:05:19 Exp 7343 20 female R 1 2 7 moralSelf moralSelf match m m 1 0.6917 
07-Jun-2018_14:05:21 Exp 7343 20 female R 1 2 8 immoralSelf immoralSelf match m m 1 0.6505 
07-Jun-2018_14:05:23 Exp 7343 20 female R 1 2 9 moralSelf moralSelf match m m 1 0.6561 
07-Jun-2018_14:05:26 Exp 7343 20 female R 1 2 10 moralSelf immoralSelf mismatch n m 0 0.8581 
07-Jun-2018_14:05:28 Exp 7343 20 female R 1 2 11 immoralSelf moralSelf mismatch n n 1 0.7882 
07-Jun-2018_14:05:31 Exp 7343 20 female R 1 2 12 immoralOther immoralSelf mismatch n m 0 0.7967 
07-Jun-2018_14:05:33 Exp 7343 20 female R 1 2 13 immoralSelf moralSelf mismatch n n 1 0.8373 
07-Jun-2018_14:05:36 Exp 7343 20 female R 1 2 14 immoralSelf immoralSelf match m m 1 0.8948 
07-Jun-2018_14:05:38 Exp 7343 20 female R 1 2 15 immoralOther immoralOther match m m 1 0.7094 
07-Jun-2018_14:05:41 Exp 7343 20 female R 1 2 16 moralOther immoralSelf mismatch n n 1 1.0484 
07-Jun-2018_14:05:43 Exp 7343 20 female R 1 2 17 moralOther immoralSelf mismatch n n 1 0.7182 
07-Jun-2018_14:05:45 Exp 7343 20 female R 1 2 18 moralSelf moralSelf match m m 1 0.6853 
07-Jun-2018_14:05:48 Exp 7343 20 female R 1 2 19 immoralSelf immoralOther mismatch n m 0 0.9599 
07-Jun-2018_14:05:50 Exp 7343 20 female R 1 2 20 immoralOther moralOther mismatch n n 1 0.8597 
07-Jun-2018_14:05:53 Exp 7343 20 female R 1 2 21 moralOther moralOther match m m 1 0.7657 
07-Jun-2018_14:05:55 Exp 7343 20 female R 1 2 22 moralSelf moralOther mismatch n n 1 0.9258 
07-Jun-2018_14:05:58 Exp 7343 20 female R 1 2 23 immoralOther immoralOther match m m 1 0.8369 
07-Jun-2018_14:06:00 Exp 7343 20 female R 1 2 24 moralOther moralOther match m m 1 0.9905 
Date Prac Sub Age Sex Hand Block Bin Trial Shape Label Match CorrResp Resp ACC RT
07-Jun-2018_14:12:05 Exp 7343 20 female R 1 1 1 moralOther moralSelf mismatch n n 1 1.0493 
07-Jun-2018_14:12:07 Exp 7343 20 female R 1 1 2 immoralSelf immoralSelf match m m 1 0.7111 
07-Jun-2018_14:12:10 Exp 7343 20 female R 1 1 3 moralSelf immoralOther mismatch n n 1 0.9141 
07-Jun-2018_14:12:12 Exp 7343 20 female R 1 1 4 immoralOther moralSelf mismatch n n 1 0.8770 
07-Jun-2018_14:12:15 Exp 7343 20 female R 1 1 5 moralOther immoralSelf mismatch n n 1 0.9552 
07-Jun-2018_14:12:17 Exp 7343 20 female R 1 1 6 immoralOther immoralOther match m NA -1 1.0841 
07-Jun-2018_14:12:20 Exp 7343 20 female R 1 1 7 immoralSelf immoralSelf match m m 1 0.6256 
07-Jun-2018_14:12:22 Exp 7343 20 female R 1 1 8 moralOther moralOther match m m 1 0.8228 
07-Jun-2018_14:12:25 Exp 7343 20 female R 1 1 9 moralSelf immoralOther mismatch n n 1 0.8441 
07-Jun-2018_14:12:27 Exp 7343 20 female R 1 1 10 moralSelf moralSelf match m m 1 0.6019 
07-Jun-2018_14:12:29 Exp 7343 20 female R 1 1 11 immoralOther immoralOther match m m 1 0.8946 
07-Jun-2018_14:12:32 Exp 7343 20 female R 1 1 12 immoralOther immoralSelf mismatch n n 1 1.0453 
07-Jun-2018_14:12:35 Exp 7343 20 female R 1 1 13 moralOther moralOther match m m 1 0.8511 
07-Jun-2018_14:12:37 Exp 7343 20 female R 1 1 14 moralOther moralOther match m m 1 0.7769 
07-Jun-2018_14:12:39 Exp 7343 20 female R 1 1 15 moralSelf moralSelf match m m 1 0.5892 
07-Jun-2018_14:12:42 Exp 7343 20 female R 1 1 16 immoralSelf moralOther mismatch n n 1 0.7098 
07-Jun-2018_14:12:44 Exp 7343 20 female R 1 1 17 immoralSelf immoralOther mismatch n n 1 1.0167 
07-Jun-2018_14:12:46 Exp 7343 20 female R 1 1 18 immoralOther immoralOther match m m 1 0.6657 
07-Jun-2018_14:12:49 Exp 7343 20 female R 1 1 19 moralSelf immoralOther mismatch n n 1 0.7957 
07-Jun-2018_14:12:51 Exp 7343 20 female R 1 1 20 moralSelf moralSelf match m m 1 0.6363 
07-Jun-2018_14:12:54 Exp 7343 20 female R 1 1 21 moralOther moralSelf mismatch n n 1 0.8058 
07-Jun-2018_14:12:56 Exp 7343 20 female R 1 1 22 immoralOther moralSelf mismatch n n 1 0.7705 
07-Jun-2018_14:12:58 Exp 7343 20 female R 1 1 23 immoralSelf immoralSelf match m m 1 0.7946 
07-Jun-2018_14:13:01 Exp 7343 20 female R 1 1 24 immoralSelf immoralOther mismatch n n 1 0.7713 
07-Jun-2018_14:13:03 Exp 7343 20 female R 1 2 1 moralSelf moralOther mismatch n n 1 0.8913 
07-Jun-2018_14:13:06 Exp 7343 20 female R 1 2 2 moralOther immoralSelf mismatch n n 1 1.0661 
07-Jun-2018_14:13:08 Exp 7343 20 female R 1 2 3 immoralSelf immoralSelf match m m 1 0.8040 
07-Jun-2018_14:13:11 Exp 7343 20 female R 1 2 4 moralSelf moralSelf match m m 1 0.5848 
07-Jun-2018_14:13:13 Exp 7343 20 female R 1 2 5 immoralSelf moralOther mismatch n m 0 0.8851 
07-Jun-2018_14:13:16 Exp 7343 20 female R 1 2 6 moralSelf immoralSelf mismatch n n 1 1.0076 
07-Jun-2018_14:13:18 Exp 7343 20 female R 1 2 7 moralOther moralOther match m m 1 0.8524 
07-Jun-2018_14:13:21 Exp 7343 20 female R 1 2 8 moralSelf moralSelf match m NA -1 1.0841 
07-Jun-2018_14:13:23 Exp 7343 20 female R 1 2 9 immoralOther immoralOther match m m 1 0.8127 
07-Jun-2018_14:13:26 Exp 7343 20 female R 1 2 10 immoralSelf immoralOther mismatch n n 1 0.9657 
07-Jun-2018_14:13:28 Exp 7343 20 female R 1 2 11 immoralOther immoralOther match m m 1 0.7258 
07-Jun-2018_14:13:31 Exp 7343 20 female R 1 2 12 immoralOther moralSelf mismatch n n 1 0.7649 
07-Jun-2018_14:13:33 Exp 7343 20 female R 1 2 13 immoralSelf immoralSelf match m m 1 0.8051 
07-Jun-2018_14:13:36 Exp 7343 20 female R 1 2 14 immoralOther moralOther mismatch n n 1 0.7699 
07-Jun-2018_14:13:38 Exp 7343 20 female R 1 2 15 moralSelf moralSelf match m m 1 0.6180 
07-Jun-2018_14:13:40 Exp 7343 20 female R 1 2 16 immoralSelf immoralSelf match m m 1 0.6990 
07-Jun-2018_14:13:43 Exp 7343 20 female R 1 2 17 moralSelf immoralSelf mismatch n n 1 0.7697 
07-Jun-2018_14:13:45 Exp 7343 20 female R 1 2 18 moralOther immoralOther mismatch n m 0 0.8098 
07-Jun-2018_14:13:48 Exp 7343 20 female R 1 2 19 immoralOther immoralSelf mismatch n m 0 0.7868 
07-Jun-2018_14:13:50 Exp 7343 20 female R 1 2 20 moralOther moralOther match m m 1 0.6914 
07-Jun-2018_14:13:52 Exp 7343 20 female R 1 2 21 moralOther immoralSelf mismatch n n 1 0.9622 
07-Jun-2018_14:13:55 Exp 7343 20 female R 1 2 22 moralOther moralOther match m m 1 0.9143 
07-Jun-2018_14:13:57 Exp 7343 20 female R 1 2 23 immoralSelf moralOther mismatch n n 1 0.8051 
07-Jun-2018_14:14:00 Exp 7343 20 female R 1 2 24 immoralOther immoralOther match m m 1 0.8259 
Date Prac Sub Age Sex Hand Block Bin Trial Shape Label Match CorrResp Resp ACC RT
07-Jun-2018_14:18:17 Exp 7343 20 female R 1 1 1 moralOther immoralOther mismatch n n 1 0.9617 
07-Jun-2018_14:18:20 Exp 7343 20 female R 1 1 2 moralSelf moralSelf match m m 1 0.5940 
07-Jun-2018_14:18:22 Exp 7343 20 female R 1 1 3 moralOther immoralSelf mismatch n n 1 0.9625 
07-Jun-2018_14:18:25 Exp 7343 20 female R 1 1 4 immoralOther immoralOther match m m 1 0.7307 
07-Jun-2018_14:18:27 Exp 7343 20 female R 1 1 5 immoralSelf immoralOther mismatch n m 0 0.8461 
07-Jun-2018_14:18:29 Exp 7343 20 female R 1 1 6 immoralSelf immoralSelf match m m 1 0.6598 
07-Jun-2018_14:18:32 Exp 7343 20 female R 1 1 7 immoralOther moralOther mismatch n n 1 0.8857 
07-Jun-2018_14:18:34 Exp 7343 20 female R 1 1 8 immoralSelf immoralOther mismatch n n 1 0.8322 
07-Jun-2018_14:18:37 Exp 7343 20 female R 1 1 9 immoralOther immoralOther match m m 1 0.9895 
07-Jun-2018_14:18:39 Exp 7343 20 female R 1 1 10 moralOther moralOther match m m 1 0.7420 
07-Jun-2018_14:18:42 Exp 7343 20 female R 1 1 11 immoralSelf immoralOther mismatch n n 1 0.6537 
07-Jun-2018_14:18:44 Exp 7343 20 female R 1 1 12 immoralOther moralOther mismatch n n 1 0.6834 
07-Jun-2018_14:18:46 Exp 7343 20 female R 1 1 13 moralSelf immoralSelf mismatch n m 0 0.7258 
07-Jun-2018_14:18:49 Exp 7343 20 female R 1 1 14 moralSelf immoralSelf mismatch n n 1 0.9650 
07-Jun-2018_14:18:52 Exp 7343 20 female R 1 1 15 immoralSelf immoralSelf match m m 1 0.9732 
07-Jun-2018_14:18:54 Exp 7343 20 female R 1 1 16 moralOther immoralSelf mismatch n n 1 0.9972 
07-Jun-2018_14:18:57 Exp 7343 20 female R 1 1 17 immoralSelf immoralSelf match m m 1 0.8341 
07-Jun-2018_14:18:59 Exp 7343 20 female R 1 1 18 immoralOther immoralOther match m m 1 0.6996 
07-Jun-2018_14:19:01 Exp 7343 20 female R 1 1 19 moralOther moralOther match m m 1 0.6023 
07-Jun-2018_14:19:03 Exp 7343 20 female R 1 1 20 moralOther moralOther match m m 1 0.5911 
07-Jun-2018_14:19:06 Exp 7343 20 female R 1 1 21 immoralOther moralOther mismatch n n 1 0.9116 
07-Jun-2018_14:19:08 Exp 7343 20 female R 1 1 22 moralSelf immoralOther mismatch n n 1 0.7626 
07-Jun-2018_14:19:11 Exp 7343 20 female R 1 1 23 moralSelf moralSelf match m m 1 1.0107 
07-Jun-2018_14:19:13 Exp 7343 20 female R 1 1 24 moralSelf moralSelf match m m 1 0.5958 
07-Jun-2018_14:19:16 Exp 7343 20 female R 1 2 1 moralOther moralSelf mismatch n n 1 0.8363 
07-Jun-2018_14:19:18 Exp 7343 20 female R 1 2 2 immoralOther immoralOther match m m 1 0.7818 
07-Jun-2018_14:19:21 Exp 7343 20 female R 1 2 3 moralSelf moralOther mismatch n m 0 0.7301 
07-Jun-2018_14:19:23 Exp 7343 20 female R 1 2 4 immoralSelf immoralOther mismatch n n 1 0.9335 
07-Jun-2018_14:19:26 Exp 7343 20 female R 1 2 5 immoralSelf immoralSelf match m m 1 0.8170 
07-Jun-2018_14:19:28 Exp 7343 20 female R 1 2 6 moralSelf moralOther mismatch n m 0 0.6259 
07-Jun-2018_14:19:30 Exp 7343 20 female R 1 2 7 immoralOther moralSelf mismatch n n 1 0.8472 
07-Jun-2018_14:19:33 Exp 7343 20 female R 1 2 8 immoralSelf immoralSelf match m m 1 0.7170 
07-Jun-2018_14:19:35 Exp 7343 20 female R 1 2 9 moralSelf moralSelf match m m 1 0.6361 
07-Jun-2018_14:19:37 Exp 7343 20 female R 1 2 10 moralSelf immoralSelf mismatch n n 1 0.9496 
07-Jun-2018_14:19:40 Exp 7343 20 female R 1 2 11 immoralOther immoralOther match m m 1 0.7653 
07-Jun-2018_14:19:42 Exp 7343 20 female R 1 2 12 immoralSelf moralOther mismatch n n 1 0.8534 
07-Jun-2018_14:19:45 Exp 7343 20 female R 1 2 13 moralOther moralOther match m m 1 0.8592 
07-Jun-2018_14:19:47 Exp 7343 20 female R 1 2 14 immoralOther immoralOther match m m 1 0.7411 
07-Jun-2018_14:19:50 Exp 7343 20 female R 1 2 15 moralOther moralOther match m m 1 0.9247 
07-Jun-2018_14:19:52 Exp 7343 20 female R 1 2 16 immoralSelf moralOther mismatch n n 1 0.7159 
07-Jun-2018_14:19:54 Exp 7343 20 female R 1 2 17 moralSelf moralSelf match m m 1 0.6431 
07-Jun-2018_14:19:57 Exp 7343 20 female R 1 2 18 moralOther moralSelf mismatch n n 1 1.0046 
07-Jun-2018_14:20:00 Exp 7343 20 female R 1 2 19 immoralOther moralSelf mismatch n m 0 1.0495 
07-Jun-2018_14:20:02 Exp 7343 20 female R 1 2 20 immoralSelf immoralSelf match m m 1 0.7672 
07-Jun-2018_14:20:05 Exp 7343 20 female R 1 2 21 moralOther immoralSelf mismatch n n 1 1.0153 
07-Jun-2018_14:20:07 Exp 7343 20 female R 1 2 22 immoralOther moralOther mismatch n n 1 0.9122 
07-Jun-2018_14:20:10 Exp 7343 20 female R 1 2 23 moralSelf moralSelf match m m 1 0.7153 
07-Jun-2018_14:20:12 Exp 7343 20 female R 1 2 24 moralOther moralOther match m m 1 0.8504 
Date Prac Sub Age Sex Hand Block Bin Trial Shape Label Match CorrResp Resp ACC RT
07-Jun-2018_14:24:38 Exp 7343 20 female R 1 1 1 immoralSelf immoralSelf match m m 1 0.9014 
07-Jun-2018_14:24:41 Exp 7343 20 female R 1 1 2 immoralOther moralSelf mismatch n n 1 0.7482 
07-Jun-2018_14:24:43 Exp 7343 20 female R 1 1 3 immoralOther moralOther mismatch n NA -1 1.0841 
07-Jun-2018_14:24:46 Exp 7343 20 female R 1 1 4 immoralOther moralOther mismatch n n 1 0.8702 
07-Jun-2018_14:24:48 Exp 7343 20 female R 1 1 5 moralOther moralSelf mismatch n n 1 0.7565 
07-Jun-2018_14:24:51 Exp 7343 20 female R 1 1 6 immoralOther immoralOther match m m 1 0.7924 
07-Jun-2018_14:24:53 Exp 7343 20 female R 1 1 7 moralOther immoralSelf mismatch n m 0 0.8169 
07-Jun-2018_14:24:55 Exp 7343 20 female R 1 1 8 moralSelf moralSelf match m m 1 0.5859 
07-Jun-2018_14:24:58 Exp 7343 20 female R 1 1 9 immoralOther immoralOther match m m 1 0.7225 
07-Jun-2018_14:25:00 Exp 7343 20 female R 1 1 10 immoralSelf immoralSelf match m m 1 0.5697 
07-Jun-2018_14:25:02 Exp 7343 20 female R 1 1 11 moralSelf immoralSelf mismatch n n 1 0.7136 
07-Jun-2018_14:25:05 Exp 7343 20 female R 1 1 12 immoralSelf moralSelf mismatch n n 1 0.7727 
07-Jun-2018_14:25:07 Exp 7343 20 female R 1 1 13 immoralSelf immoralOther mismatch n n 1 0.7407 
07-Jun-2018_14:25:09 Exp 7343 20 female R 1 1 14 immoralSelf immoralSelf match m m 1 0.6285 
07-Jun-2018_14:25:12 Exp 7343 20 female R 1 1 15 moralSelf immoralSelf mismatch n n 1 0.7296 
07-Jun-2018_14:25:14 Exp 7343 20 female R 1 1 16 moralOther immoralOther mismatch n n 1 0.8371 
07-Jun-2018_14:25:16 Exp 7343 20 female R 1 1 17 immoralSelf immoralOther mismatch n n 1 0.6466 
07-Jun-2018_14:25:19 Exp 7343 20 female R 1 1 18 moralSelf moralSelf match m m 1 0.7083 
07-Jun-2018_14:25:21 Exp 7343 20 female R 1 1 19 immoralOther immoralOther match m m 1 0.6312 
07-Jun-2018_14:25:23 Exp 7343 20 female R 1 1 20 moralOther moralOther match m m 1 0.3565 
07-Jun-2018_14:25:25 Exp 7343 20 female R 1 1 21 moralOther moralOther match m m 1 0.4564 
07-Jun-2018_14:25:27 Exp 7343 20 female R 1 1 22 moralSelf moralSelf match m m 1 0.6423 
07-Jun-2018_14:25:30 Exp 7343 20 female R 1 1 23 moralSelf immoralSelf mismatch n n 1 0.7478 
07-Jun-2018_14:25:32 Exp 7343 20 female R 1 1 24 moralOther moralOther match m m 1 1.0755 
07-Jun-2018_14:25:34 Exp 7343 20 female R 1 2 1 moralOther moralOther match m m 1 0.4417 
07-Jun-2018_14:25:37 Exp 7343 20 female R 1 2 2 moralSelf immoralOther mismatch n n 1 0.6592 
07-Jun-2018_14:25:39 Exp 7343 20 female R 1 2 3 immoralSelf immoralSelf match m m 1 0.7731 
07-Jun-2018_14:25:42 Exp 7343 20 female R 1 2 4 moralOther moralOther match m m 1 0.8373 
07-Jun-2018_14:25:44 Exp 7343 20 female R 1 2 5 moralOther immoralSelf mismatch n n 1 0.7988 
07-Jun-2018_14:25:47 Exp 7343 20 female R 1 2 6 immoralOther immoralOther match m m 1 0.8836 
07-Jun-2018_14:25:49 Exp 7343 20 female R 1 2 7 immoralOther immoralSelf mismatch n n 1 0.7581 
07-Jun-2018_14:25:51 Exp 7343 20 female R 1 2 8 immoralSelf immoralSelf match m m 1 0.7059 
07-Jun-2018_14:25:54 Exp 7343 20 female R 1 2 9 immoralSelf moralOther mismatch n n 1 0.6688 
07-Jun-2018_14:25:56 Exp 7343 20 female R 1 2 10 immoralSelf immoralOther mismatch n m 0 0.4911 
07-Jun-2018_14:25:58 Exp 7343 20 female R 1 2 11 moralSelf immoralSelf mismatch n n 1 0.8375 
07-Jun-2018_14:26:00 Exp 7343 20 female R 1 2 12 moralSelf moralSelf match m m 1 0.6230 
07-Jun-2018_14:26:03 Exp 7343 20 female R 1 2 13 moralSelf moralSelf match m m 1 0.6203 
07-Jun-2018_14:26:05 Exp 7343 20 female R 1 2 14 immoralOther immoralSelf mismatch n n 1 0.9813 
07-Jun-2018_14:26:08 Exp 7343 20 female R 1 2 15 immoralOther immoralOther match m m 1 0.6896 
07-Jun-2018_14:26:10 Exp 7343 20 female R 1 2 16 immoralOther immoralOther match m m 1 0.4922 
07-Jun-2018_14:26:12 Exp 7343 20 female R 1 2 17 moralSelf moralOther mismatch n m 0 0.6668 
07-Jun-2018_14:26:14 Exp 7343 20 female R 1 2 18 immoralSelf immoralSelf match m m 1 0.7008 
07-Jun-2018_14:26:17 Exp 7343 20 female R 1 2 19 moralOther moralOther match m NA -1 1.0841 
07-Jun-2018_14:26:19 Exp 7343 20 female R 1 2 20 moralOther moralSelf mismatch n m 0 0.5019 
07-Jun-2018_14:26:22 Exp 7343 20 female R 1 2 21 immoralOther immoralSelf mismatch n n 1 0.9646 
07-Jun-2018_14:26:24 Exp 7343 20 female R 1 2 22 moralOther immoralOther mismatch n m 0 0.6767 
07-Jun-2018_14:26:27 Exp 7343 20 female R 1 2 23 moralSelf moralSelf match m m 1 0.9949 
07-Jun-2018_14:26:29 Exp 7343 20 female R 1 2 24 immoralSelf moralSelf mismatch n n 1 0.6675 
Date Prac Sub Age Sex Hand Block Bin Trial Shape Label Match CorrResp Resp ACC RT
07-Jun-2018_14:31:18 Exp 7343 20 female R 1 1 1 moralSelf moralSelf match m m 1 0.8220 
07-Jun-2018_14:31:21 Exp 7343 20 female R 1 1 2 immoralSelf immoralSelf match m m 1 0.7314 
07-Jun-2018_14:31:23 Exp 7343 20 female R 1 1 3 immoralSelf moralOther mismatch n n 1 0.7268 
07-Jun-2018_14:31:25 Exp 7343 20 female R 1 1 4 immoralSelf immoralSelf match m m 1 0.8582 
07-Jun-2018_14:31:28 Exp 7343 20 female R 1 1 5 moralSelf immoralOther mismatch n n 1 0.8762 
07-Jun-2018_14:31:30 Exp 7343 20 female R 1 1 6 moralSelf moralSelf match m m 1 0.6424 
07-Jun-2018_14:31:33 Exp 7343 20 female R 1 1 7 immoralOther immoralOther match m m 1 0.8119 
07-Jun-2018_14:31:35 Exp 7343 20 female R 1 1 8 moralOther moralSelf mismatch n n 1 0.9730 
07-Jun-2018_14:31:38 Exp 7343 20 female R 1 1 9 moralOther moralOther match m m 1 0.6770 
07-Jun-2018_14:31:40 Exp 7343 20 female R 1 1 10 moralOther moralOther match m m 1 0.5952 
07-Jun-2018_14:31:42 Exp 7343 20 female R 1 1 11 immoralOther immoralOther match m m 1 0.6038 
07-Jun-2018_14:31:45 Exp 7343 20 female R 1 1 12 moralOther moralSelf mismatch n n 1 0.8566 
07-Jun-2018_14:31:47 Exp 7343 20 female R 1 1 13 moralSelf immoralSelf mismatch n n 1 1.0506 
07-Jun-2018_14:31:50 Exp 7343 20 female R 1 1 14 moralSelf moralSelf match m m 1 0.6964 
07-Jun-2018_14:31:52 Exp 7343 20 female R 1 1 15 immoralSelf immoralSelf match m m 1 0.7510 
07-Jun-2018_14:31:54 Exp 7343 20 female R 1 1 16 moralSelf immoralOther mismatch n n 1 0.8189 
07-Jun-2018_14:31:57 Exp 7343 20 female R 1 1 17 immoralOther immoralSelf mismatch n n 1 0.9159 
07-Jun-2018_14:32:00 Exp 7343 20 female R 1 1 18 immoralSelf moralSelf mismatch n n 1 0.8991 
07-Jun-2018_14:32:02 Exp 7343 20 female R 1 1 19 immoralOther immoralOther match m m 1 0.7459 
07-Jun-2018_14:32:04 Exp 7343 20 female R 1 1 20 immoralOther immoralSelf mismatch n n 1 0.8654 
07-Jun-2018_14:32:07 Exp 7343 20 female R 1 1 21 immoralSelf moralOther mismatch n n 1 0.8354 
07-Jun-2018_14:32:09 Exp 7343 20 female R 1 1 22 moralOther moralOther match m m 1 0.7170 
07-Jun-2018_14:32:12 Exp 7343 20 female R 1 1 23 moralOther immoralSelf mismatch n n 1 0.7321 
07-Jun-2018_14:32:14 Exp 7343 20 female R 1 1 24 immoralOther moralOther mismatch n n 1 0.7115 
07-Jun-2018_14:32:16 Exp 7343 20 female R 1 2 1 immoralOther immoralSelf mismatch n n 1 0.8665 
07-Jun-2018_14:32:19 Exp 7343 20 female R 1 2 2 immoralSelf immoralOther mismatch n n 1 1.0684 
07-Jun-2018_14:32:22 Exp 7343 20 female R 1 2 3 immoralSelf moralOther mismatch n n 1 0.7706 
07-Jun-2018_14:32:24 Exp 7343 20 female R 1 2 4 moralSelf moralSelf match m m 1 0.6667 
07-Jun-2018_14:32:26 Exp 7343 20 female R 1 2 5 immoralOther immoralSelf mismatch n n 1 0.6528 
07-Jun-2018_14:32:28 Exp 7343 20 female R 1 2 6 immoralOther immoralOther match m m 1 0.7705 
07-Jun-2018_14:32:31 Exp 7343 20 female R 1 2 7 moralSelf immoralSelf mismatch n n 1 0.7066 
07-Jun-2018_14:32:33 Exp 7343 20 female R 1 2 8 moralOther moralOther match m m 1 0.6775 
07-Jun-2018_14:32:35 Exp 7343 20 female R 1 2 9 immoralOther immoralOther match m m 1 0.6197 
07-Jun-2018_14:32:38 Exp 7343 20 female R 1 2 10 moralSelf moralOther mismatch n m 0 0.6128 
07-Jun-2018_14:32:40 Exp 7343 20 female R 1 2 11 immoralSelf immoralSelf match m m 1 0.7417 
07-Jun-2018_14:32:43 Exp 7343 20 female R 1 2 12 immoralSelf immoralSelf match m m 1 0.9254 
07-Jun-2018_14:32:45 Exp 7343 20 female R 1 2 13 moralOther immoralOther mismatch n m 0 0.7325 
07-Jun-2018_14:32:47 Exp 7343 20 female R 1 2 14 moralOther immoralSelf mismatch n n 1 0.7280 
07-Jun-2018_14:32:50 Exp 7343 20 female R 1 2 15 moralSelf immoralOther mismatch n n 1 0.7073 
07-Jun-2018_14:32:52 Exp 7343 20 female R 1 2 16 immoralOther immoralOther match m m 1 0.8303 
07-Jun-2018_14:32:54 Exp 7343 20 female R 1 2 17 moralSelf moralSelf match m m 1 0.6595 
07-Jun-2018_14:32:57 Exp 7343 20 female R 1 2 18 moralOther immoralOther mismatch n n 1 0.8535 
07-Jun-2018_14:32:59 Exp 7343 20 female R 1 2 19 moralOther moralOther match m m 1 0.7233 
07-Jun-2018_14:33:02 Exp 7343 20 female R 1 2 20 immoralSelf moralSelf mismatch n n 1 0.8105 
07-Jun-2018_14:33:04 Exp 7343 20 female R 1 2 21 immoralOther moralSelf mismatch n n 1 0.7635 
07-Jun-2018_14:33:07 Exp 7343 20 female R 1 2 22 moralOther moralOther match m m 1 0.9316 
07-Jun-2018_14:33:09 Exp 7343 20 female R 1 2 23 immoralSelf immoralSelf match m n 0 0.6950 
07-Jun-2018_14:33:11 Exp 7343 20 female R 1 2 24 moralSelf moralSelf match m m 1 0.6136 
