Date Sub Age Sex Hand Block Bin Trial Task Shape corrResp Resp ACC RT
02-May-2018_14:41:57 7303 28 male R 1 1 1 moral immoralOther Y NA -1 1.0411 
02-May-2018_14:42:00 7303 28 male R 1 1 2 moral moralSelf U u 1 0.9437 
02-May-2018_14:42:02 7303 28 male R 1 1 3 moral immoralSelf Y NA -1 1.0411 
02-May-2018_14:42:04 7303 28 male R 1 1 4 moral moralSelf U u 1 0.8422 
02-May-2018_14:42:06 7303 28 male R 1 1 5 moral moralOther U u 1 0.7972 
02-May-2018_14:42:08 7303 28 male R 1 1 6 moral moralSelf U u 1 0.5963 
02-May-2018_14:42:10 7303 28 male R 1 1 7 moral immoralSelf Y y 1 0.9446 
02-May-2018_14:42:12 7303 28 male R 1 1 8 moral moralOther U u 1 0.7385 
02-May-2018_14:42:14 7303 28 male R 1 1 9 moral immoralSelf Y y 1 0.7180 
02-May-2018_14:42:16 7303 28 male R 1 1 10 moral immoralOther Y y 1 0.8249 
02-May-2018_14:42:18 7303 28 male R 1 1 11 moral immoralSelf Y u 0 0.9106 
02-May-2018_14:42:20 7303 28 male R 1 1 12 moral moralSelf U u 1 0.6613 
02-May-2018_14:42:22 7303 28 male R 1 1 13 moral immoralOther Y y 1 0.6839 
02-May-2018_14:42:24 7303 28 male R 1 1 14 moral immoralSelf Y u 0 0.8078 
02-May-2018_14:42:26 7303 28 male R 1 1 15 moral moralOther U u 1 0.6446 
02-May-2018_14:42:27 7303 28 male R 1 1 16 moral moralOther U u 1 0.6005 
02-May-2018_14:42:29 7303 28 male R 1 1 17 moral immoralOther Y y 1 0.6272 
02-May-2018_14:42:31 7303 28 male R 1 1 18 moral immoralOther Y y 1 0.6833 
02-May-2018_14:42:33 7303 28 male R 1 1 19 moral moralOther U u 1 0.6576 
02-May-2018_14:42:35 7303 28 male R 1 1 20 moral immoralSelf Y y 1 0.8840 
02-May-2018_14:42:37 7303 28 male R 1 1 21 moral immoralOther Y y 1 0.7146 
02-May-2018_14:42:38 7303 28 male R 1 1 22 moral moralSelf U u 1 0.6117 
02-May-2018_14:42:40 7303 28 male R 1 1 23 moral moralOther U u 1 0.6757 
02-May-2018_14:42:42 7303 28 male R 1 1 24 moral moralSelf U u 1 0.5107 
02-May-2018_14:42:43 7303 28 male R 1 2 1 moral immoralSelf Y y 1 0.5541 
02-May-2018_14:42:45 7303 28 male R 1 2 2 moral moralOther U u 1 0.6529 
02-May-2018_14:42:47 7303 28 male R 1 2 3 moral immoralOther Y y 1 0.6365 
02-May-2018_14:42:49 7303 28 male R 1 2 4 moral immoralSelf Y y 1 0.7307 
02-May-2018_14:42:51 7303 28 male R 1 2 5 moral immoralSelf Y y 1 0.5294 
02-May-2018_14:42:53 7303 28 male R 1 2 6 moral moralSelf U u 1 0.5605 
02-May-2018_14:42:55 7303 28 male R 1 2 7 moral immoralOther Y y 1 0.7455 
02-May-2018_14:42:57 7303 28 male R 1 2 8 moral moralSelf U u 1 0.5475 
02-May-2018_14:42:59 7303 28 male R 1 2 9 moral immoralSelf Y y 1 0.8135 
02-May-2018_14:43:01 7303 28 male R 1 2 10 moral moralOther U u 1 0.7570 
02-May-2018_14:43:02 7303 28 male R 1 2 11 moral moralOther U u 1 0.7924 
02-May-2018_14:43:04 7303 28 male R 1 2 12 moral immoralOther Y y 1 0.6616 
02-May-2018_14:43:06 7303 28 male R 1 2 13 moral immoralSelf Y u 0 0.5531 
02-May-2018_14:43:08 7303 28 male R 1 2 14 moral immoralOther Y u 0 0.8520 
02-May-2018_14:43:10 7303 28 male R 1 2 15 moral moralOther U y 0 0.5943 
02-May-2018_14:43:12 7303 28 male R 1 2 16 moral moralOther U u 1 0.6037 
02-May-2018_14:43:14 7303 28 male R 1 2 17 moral moralSelf U NA -1 1.0411 
02-May-2018_14:43:15 7303 28 male R 1 2 18 moral moralSelf U u 1 0.6118 
02-May-2018_14:43:17 7303 28 male R 1 2 19 moral immoralOther Y y 1 0.5704 
02-May-2018_14:43:19 7303 28 male R 1 2 20 moral moralSelf U u 1 0.5484 
02-May-2018_14:43:21 7303 28 male R 1 2 21 moral immoralSelf Y y 1 0.7057 
02-May-2018_14:43:23 7303 28 male R 1 2 22 moral moralSelf U u 1 0.7133 
02-May-2018_14:43:25 7303 28 male R 1 2 23 moral moralOther U u 1 0.7915 
02-May-2018_14:43:26 7303 28 male R 1 2 24 moral immoralOther Y y 1 0.5902 
02-May-2018_14:43:33 7303 28 male R 1 3 1 moral moralOther U u 1 0.5071 
02-May-2018_14:43:34 7303 28 male R 1 3 2 moral immoralSelf Y y 1 0.5948 
02-May-2018_14:43:36 7303 28 male R 1 3 3 moral immoralOther Y y 1 0.6274 
02-May-2018_14:43:38 7303 28 male R 1 3 4 moral immoralSelf Y u 0 0.6329 
02-May-2018_14:43:40 7303 28 male R 1 3 5 moral immoralSelf Y u 0 0.4252 
02-May-2018_14:43:41 7303 28 male R 1 3 6 moral moralOther U u 1 0.4642 
02-May-2018_14:43:43 7303 28 male R 1 3 7 moral moralOther U u 1 0.4506 
02-May-2018_14:43:45 7303 28 male R 1 3 8 moral immoralSelf Y u 0 0.4836 
02-May-2018_14:43:47 7303 28 male R 1 3 9 moral moralOther U u 1 0.5322 
02-May-2018_14:43:49 7303 28 male R 1 3 10 moral immoralOther Y y 1 0.6504 
02-May-2018_14:43:50 7303 28 male R 1 3 11 moral moralSelf U u 1 0.5296 
02-May-2018_14:43:52 7303 28 male R 1 3 12 moral moralSelf U u 1 0.5310 
02-May-2018_14:43:54 7303 28 male R 1 3 13 moral moralSelf U u 1 0.4939 
02-May-2018_14:43:56 7303 28 male R 1 3 14 moral immoralSelf Y u 0 0.4403 
02-May-2018_14:43:58 7303 28 male R 1 3 15 moral immoralOther Y y 1 0.6964 
02-May-2018_14:43:59 7303 28 male R 1 3 16 moral moralOther U u 1 0.6089 
02-May-2018_14:44:01 7303 28 male R 1 3 17 moral immoralOther Y y 1 0.6523 
02-May-2018_14:44:03 7303 28 male R 1 3 18 moral moralSelf U u 1 0.5865 
02-May-2018_14:44:05 7303 28 male R 1 3 19 moral moralOther U u 1 0.5447 
02-May-2018_14:44:07 7303 28 male R 1 3 20 moral immoralOther Y y 1 0.6031 
02-May-2018_14:44:09 7303 28 male R 1 3 21 moral moralSelf U u 1 0.5750 
02-May-2018_14:44:11 7303 28 male R 1 3 22 moral immoralSelf Y y 1 0.7708 
02-May-2018_14:44:12 7303 28 male R 1 3 23 moral moralSelf U u 1 0.6029 
02-May-2018_14:44:15 7303 28 male R 1 3 24 moral immoralOther Y u 0 0.8909 
02-May-2018_14:44:17 7303 28 male R 1 4 1 moral moralSelf U u 1 0.5725 
02-May-2018_14:44:19 7303 28 male R 1 4 2 moral immoralSelf Y u 0 0.6954 
02-May-2018_14:44:20 7303 28 male R 1 4 3 moral immoralOther Y y 1 0.7072 
02-May-2018_14:44:22 7303 28 male R 1 4 4 moral moralOther U u 1 0.6282 
02-May-2018_14:44:24 7303 28 male R 1 4 5 moral immoralSelf Y NA -1 1.0411 
02-May-2018_14:44:26 7303 28 male R 1 4 6 moral moralSelf U u 1 0.6741 
02-May-2018_14:44:28 7303 28 male R 1 4 7 moral moralOther U u 1 0.6666 
02-May-2018_14:44:30 7303 28 male R 1 4 8 moral immoralSelf Y u 0 0.6996 
02-May-2018_14:44:31 7303 28 male R 1 4 9 moral moralSelf U u 1 0.5524 
02-May-2018_14:44:33 7303 28 male R 1 4 10 moral immoralOther Y y 1 0.5053 
02-May-2018_14:44:35 7303 28 male R 1 4 11 moral moralOther U u 1 0.7007 
02-May-2018_14:44:37 7303 28 male R 1 4 12 moral immoralSelf Y u 0 0.9327 
02-May-2018_14:44:39 7303 28 male R 1 4 13 moral immoralOther Y y 1 0.5339 
02-May-2018_14:44:40 7303 28 male R 1 4 14 moral moralOther U u 1 0.6446 
02-May-2018_14:44:42 7303 28 male R 1 4 15 moral immoralOther Y y 1 0.6338 
02-May-2018_14:44:44 7303 28 male R 1 4 16 moral moralOther U u 1 0.5971 
02-May-2018_14:44:46 7303 28 male R 1 4 17 moral moralOther U u 1 0.7718 
02-May-2018_14:44:48 7303 28 male R 1 4 18 moral immoralOther Y y 1 0.6350 
02-May-2018_14:44:50 7303 28 male R 1 4 19 moral moralSelf U u 1 0.5809 
02-May-2018_14:44:52 7303 28 male R 1 4 20 moral moralSelf U u 1 0.8968 
02-May-2018_14:44:54 7303 28 male R 1 4 21 moral immoralOther Y y 1 0.7726 
02-May-2018_14:44:56 7303 28 male R 1 4 22 moral immoralSelf Y y 1 0.6545 
02-May-2018_14:44:57 7303 28 male R 1 4 23 moral immoralSelf Y y 1 0.4584 
02-May-2018_14:44:59 7303 28 male R 1 4 24 moral moralSelf U u 1 0.5276 
02-May-2018_14:46:11 7303 28 male R 1 5 1 moral immoralOther Y y 1 0.4816 
02-May-2018_14:46:13 7303 28 male R 1 5 2 moral moralOther U u 1 0.6201 
02-May-2018_14:46:15 7303 28 male R 1 5 3 moral moralSelf U u 1 0.4913 
02-May-2018_14:46:17 7303 28 male R 1 5 4 moral immoralOther Y y 1 0.5326 
02-May-2018_14:46:18 7303 28 male R 1 5 5 moral moralSelf U u 1 0.5475 
02-May-2018_14:46:20 7303 28 male R 1 5 6 moral immoralOther Y y 1 0.5588 
02-May-2018_14:46:22 7303 28 male R 1 5 7 moral moralSelf U u 1 0.4991 
02-May-2018_14:46:23 7303 28 male R 1 5 8 moral immoralSelf Y y 1 0.6366 
02-May-2018_14:46:25 7303 28 male R 1 5 9 moral moralOther U u 1 0.5777 
02-May-2018_14:46:27 7303 28 male R 1 5 10 moral moralSelf U u 1 0.5173 
02-May-2018_14:46:29 7303 28 male R 1 5 11 moral moralOther U u 1 0.5163 
02-May-2018_14:46:31 7303 28 male R 1 5 12 moral immoralSelf Y y 1 0.6016 
02-May-2018_14:46:32 7303 28 male R 1 5 13 moral immoralOther Y y 1 0.7536 
02-May-2018_14:46:34 7303 28 male R 1 5 14 moral moralSelf U u 1 0.5094 
02-May-2018_14:46:36 7303 28 male R 1 5 15 moral moralOther U u 1 0.5068 
02-May-2018_14:46:38 7303 28 male R 1 5 16 moral immoralSelf Y y 1 0.5639 
02-May-2018_14:46:39 7303 28 male R 1 5 17 moral immoralOther Y y 1 0.5713 
02-May-2018_14:46:41 7303 28 male R 1 5 18 moral immoralSelf Y y 1 0.5314 
02-May-2018_14:46:43 7303 28 male R 1 5 19 moral moralOther U u 1 0.6077 
02-May-2018_14:46:45 7303 28 male R 1 5 20 moral immoralSelf Y NA -1 1.0411 
02-May-2018_14:46:47 7303 28 male R 1 5 21 moral immoralSelf Y y 1 0.6925 
02-May-2018_14:46:49 7303 28 male R 1 5 22 moral moralSelf U u 1 0.4822 
02-May-2018_14:46:50 7303 28 male R 1 5 23 moral immoralOther Y y 1 0.5403 
02-May-2018_14:46:52 7303 28 male R 1 5 24 moral moralOther U u 1 0.5954 
Date Sub Age Sex Hand Block Bin Trial Task Shape corrResp Resp ACC RT
02-May-2018_14:49:11 7303 28 male R 2 1 1 self immoralOther H h 1 0.7554 
02-May-2018_14:49:13 7303 28 male R 2 1 2 self immoralOther H h 1 0.7306 
02-May-2018_14:49:15 7303 28 male R 2 1 3 self moralSelf J j 1 0.9471 
02-May-2018_14:49:16 7303 28 male R 2 1 4 self immoralSelf J j 1 0.6144 
02-May-2018_14:49:18 7303 28 male R 2 1 5 self moralOther H h 1 0.7050 
02-May-2018_14:49:20 7303 28 male R 2 1 6 self moralSelf J j 1 0.4955 
02-May-2018_14:49:22 7303 28 male R 2 1 7 self immoralSelf J h 0 0.6515 
02-May-2018_14:49:24 7303 28 male R 2 1 8 self moralOther H h 1 0.9071 
02-May-2018_14:49:25 7303 28 male R 2 1 9 self moralSelf J j 1 0.6012 
02-May-2018_14:49:27 7303 28 male R 2 1 10 self immoralOther H h 1 0.7604 
02-May-2018_14:49:29 7303 28 male R 2 1 11 self moralOther H h 1 0.6838 
02-May-2018_14:49:31 7303 28 male R 2 1 12 self immoralOther H h 1 0.5869 
02-May-2018_14:49:32 7303 28 male R 2 1 13 self moralOther H h 1 0.8317 
02-May-2018_14:49:34 7303 28 male R 2 1 14 self immoralOther H h 1 0.6012 
02-May-2018_14:49:36 7303 28 male R 2 1 15 self moralSelf J j 1 0.6215 
02-May-2018_14:49:38 7303 28 male R 2 1 16 self immoralOther H h 1 0.6823 
02-May-2018_14:49:40 7303 28 male R 2 1 17 self moralOther H h 1 0.6320 
02-May-2018_14:49:42 7303 28 male R 2 1 18 self immoralSelf J h 0 0.6593 
02-May-2018_14:49:44 7303 28 male R 2 1 19 self moralOther H h 1 0.7146 
02-May-2018_14:49:45 7303 28 male R 2 1 20 self immoralSelf J j 1 0.5814 
02-May-2018_14:49:47 7303 28 male R 2 1 21 self immoralSelf J j 1 0.4991 
02-May-2018_14:49:49 7303 28 male R 2 1 22 self moralSelf J j 1 0.5896 
02-May-2018_14:49:50 7303 28 male R 2 1 23 self moralSelf J j 1 0.5440 
02-May-2018_14:49:52 7303 28 male R 2 1 24 self immoralSelf J j 1 0.6128 
02-May-2018_14:49:54 7303 28 male R 2 2 1 self moralSelf J j 1 0.5267 
02-May-2018_14:49:56 7303 28 male R 2 2 2 self moralOther H h 1 0.4571 
02-May-2018_14:49:57 7303 28 male R 2 2 3 self moralOther H h 1 0.5009 
02-May-2018_14:49:59 7303 28 male R 2 2 4 self immoralOther H h 1 0.5776 
02-May-2018_14:50:01 7303 28 male R 2 2 5 self immoralOther H h 1 0.4828 
02-May-2018_14:50:03 7303 28 male R 2 2 6 self immoralSelf J j 1 0.5995 
02-May-2018_14:50:05 7303 28 male R 2 2 7 self moralOther H j 0 0.9558 
02-May-2018_14:50:07 7303 28 male R 2 2 8 self immoralOther H h 1 0.7504 
02-May-2018_14:50:08 7303 28 male R 2 2 9 self moralSelf J j 1 0.6765 
02-May-2018_14:50:10 7303 28 male R 2 2 10 self immoralSelf J j 1 0.5905 
02-May-2018_14:50:12 7303 28 male R 2 2 11 self moralOther H j 0 0.7797 
02-May-2018_14:50:14 7303 28 male R 2 2 12 self moralSelf J j 1 0.5571 
02-May-2018_14:50:16 7303 28 male R 2 2 13 self moralSelf J j 1 0.8095 
02-May-2018_14:50:18 7303 28 male R 2 2 14 self immoralSelf J j 1 0.7837 
02-May-2018_14:50:20 7303 28 male R 2 2 15 self immoralOther H h 1 0.5536 
02-May-2018_14:50:22 7303 28 male R 2 2 16 self moralSelf J h 0 0.7773 
02-May-2018_14:50:23 7303 28 male R 2 2 17 self moralOther H h 1 0.6768 
02-May-2018_14:50:25 7303 28 male R 2 2 18 self immoralSelf J j 1 0.6216 
02-May-2018_14:50:27 7303 28 male R 2 2 19 self immoralOther H h 1 0.5747 
02-May-2018_14:50:29 7303 28 male R 2 2 20 self immoralSelf J j 1 0.5677 
02-May-2018_14:50:31 7303 28 male R 2 2 21 self moralSelf J j 1 0.5235 
02-May-2018_14:50:32 7303 28 male R 2 2 22 self immoralSelf J j 1 0.6421 
02-May-2018_14:50:34 7303 28 male R 2 2 23 self moralOther H j 0 0.8235 
02-May-2018_14:50:36 7303 28 male R 2 2 24 self immoralOther H NA -1 1.0412 
02-May-2018_14:50:42 7303 28 male R 2 3 1 self moralOther H j 0 0.8007 
02-May-2018_14:50:44 7303 28 male R 2 3 2 self immoralSelf J j 1 0.7381 
02-May-2018_14:50:45 7303 28 male R 2 3 3 self immoralOther H h 1 0.6432 
02-May-2018_14:50:47 7303 28 male R 2 3 4 self moralSelf J j 1 0.5529 
02-May-2018_14:50:49 7303 28 male R 2 3 5 self moralOther H h 1 0.6123 
02-May-2018_14:50:51 7303 28 male R 2 3 6 self moralSelf J j 1 0.7733 
02-May-2018_14:50:53 7303 28 male R 2 3 7 self immoralOther H h 1 0.5856 
02-May-2018_14:50:54 7303 28 male R 2 3 8 self immoralOther H h 1 0.4577 
02-May-2018_14:50:56 7303 28 male R 2 3 9 self moralOther H h 1 0.7585 
02-May-2018_14:50:58 7303 28 male R 2 3 10 self immoralSelf J j 1 0.6027 
02-May-2018_14:51:00 7303 28 male R 2 3 11 self moralSelf J j 1 0.5501 
02-May-2018_14:51:02 7303 28 male R 2 3 12 self moralSelf J j 1 0.4730 
02-May-2018_14:51:03 7303 28 male R 2 3 13 self immoralOther H h 1 0.6402 
02-May-2018_14:51:05 7303 28 male R 2 3 14 self moralOther H h 1 0.5827 
02-May-2018_14:51:07 7303 28 male R 2 3 15 self moralSelf J j 1 0.6153 
02-May-2018_14:51:09 7303 28 male R 2 3 16 self immoralOther H h 1 0.6442 
02-May-2018_14:51:11 7303 28 male R 2 3 17 self immoralSelf J j 1 0.5840 
02-May-2018_14:51:12 7303 28 male R 2 3 18 self immoralSelf J j 1 0.4061 
02-May-2018_14:51:14 7303 28 male R 2 3 19 self moralOther H h 1 0.7667 
02-May-2018_14:51:16 7303 28 male R 2 3 20 self immoralSelf J j 1 0.5697 
02-May-2018_14:51:18 7303 28 male R 2 3 21 self moralSelf J j 1 0.4629 
02-May-2018_14:51:19 7303 28 male R 2 3 22 self immoralOther H j 0 0.7359 
02-May-2018_14:51:21 7303 28 male R 2 3 23 self immoralSelf J h 0 0.8978 
02-May-2018_14:51:23 7303 28 male R 2 3 24 self moralOther H h 1 0.6937 
02-May-2018_14:51:25 7303 28 male R 2 4 1 self immoralOther H h 1 0.7399 
02-May-2018_14:51:27 7303 28 male R 2 4 2 self immoralSelf J j 1 0.6873 
02-May-2018_14:51:29 7303 28 male R 2 4 3 self moralSelf J j 1 0.4944 
02-May-2018_14:51:31 7303 28 male R 2 4 4 self moralSelf J j 1 0.6912 
02-May-2018_14:51:32 7303 28 male R 2 4 5 self moralSelf J j 1 0.4777 
02-May-2018_14:51:34 7303 28 male R 2 4 6 self immoralSelf J j 1 0.5342 
02-May-2018_14:51:36 7303 28 male R 2 4 7 self immoralOther H h 1 0.5634 
02-May-2018_14:51:38 7303 28 male R 2 4 8 self immoralOther H h 1 0.5937 
02-May-2018_14:51:39 7303 28 male R 2 4 9 self moralOther H h 1 0.6788 
02-May-2018_14:51:41 7303 28 male R 2 4 10 self immoralSelf J j 1 0.5970 
02-May-2018_14:51:43 7303 28 male R 2 4 11 self moralOther H h 1 0.5670 
02-May-2018_14:51:45 7303 28 male R 2 4 12 self immoralOther H h 1 0.6503 
02-May-2018_14:51:46 7303 28 male R 2 4 13 self moralOther H h 1 0.5647 
02-May-2018_14:51:48 7303 28 male R 2 4 14 self immoralOther H h 1 0.5486 
02-May-2018_14:51:49 7303 28 male R 2 4 15 self moralOther H h 1 0.5314 
02-May-2018_14:51:51 7303 28 male R 2 4 16 self immoralOther H h 1 0.4821 
02-May-2018_14:51:53 7303 28 male R 2 4 17 self immoralSelf J j 1 0.5712 
02-May-2018_14:51:55 7303 28 male R 2 4 18 self immoralSelf J j 1 0.5704 
02-May-2018_14:51:56 7303 28 male R 2 4 19 self moralSelf J j 1 0.6100 
02-May-2018_14:51:58 7303 28 male R 2 4 20 self immoralSelf J j 1 0.3811 
02-May-2018_14:51:59 7303 28 male R 2 4 21 self moralOther H j 0 0.4039 
02-May-2018_14:52:01 7303 28 male R 2 4 22 self moralSelf J h 0 0.4825 
02-May-2018_14:52:03 7303 28 male R 2 4 23 self moralOther H h 1 0.6074 
02-May-2018_14:52:05 7303 28 male R 2 4 24 self moralSelf J j 1 0.4819 
02-May-2018_14:52:09 7303 28 male R 2 5 1 self immoralOther H h 1 0.8231 
02-May-2018_14:52:11 7303 28 male R 2 5 2 self immoralOther H h 1 0.4110 
02-May-2018_14:52:13 7303 28 male R 2 5 3 self moralOther H h 1 0.5838 
02-May-2018_14:52:14 7303 28 male R 2 5 4 self moralSelf J j 1 0.4751 
02-May-2018_14:52:16 7303 28 male R 2 5 5 self immoralSelf J j 1 0.4851 
02-May-2018_14:52:17 7303 28 male R 2 5 6 self immoralSelf J j 1 0.4936 
02-May-2018_14:52:19 7303 28 male R 2 5 7 self immoralSelf J j 1 0.4617 
02-May-2018_14:52:21 7303 28 male R 2 5 8 self moralSelf J j 1 0.8420 
02-May-2018_14:52:23 7303 28 male R 2 5 9 self moralSelf J j 1 0.3508 
02-May-2018_14:52:24 7303 28 male R 2 5 10 self moralSelf J j 1 0.3923 
02-May-2018_14:52:26 7303 28 male R 2 5 11 self moralSelf J j 1 0.3123 
02-May-2018_14:52:27 7303 28 male R 2 5 12 self immoralOther H h 1 0.5829 
02-May-2018_14:52:29 7303 28 male R 2 5 13 self moralSelf J j 1 0.6300 
02-May-2018_14:52:31 7303 28 male R 2 5 14 self immoralOther H h 1 0.7224 
02-May-2018_14:52:33 7303 28 male R 2 5 15 self immoralSelf J h 0 0.6294 
02-May-2018_14:52:35 7303 28 male R 2 5 16 self immoralSelf J j 1 0.4369 
02-May-2018_14:52:37 7303 28 male R 2 5 17 self moralOther H h 1 0.8299 
02-May-2018_14:52:39 7303 28 male R 2 5 18 self moralOther H h 1 0.8079 
02-May-2018_14:52:41 7303 28 male R 2 5 19 self moralOther H h 1 0.4546 
02-May-2018_14:52:43 7303 28 male R 2 5 20 self immoralSelf J j 1 0.4636 
02-May-2018_14:52:44 7303 28 male R 2 5 21 self immoralOther H h 1 0.6481 
02-May-2018_14:52:46 7303 28 male R 2 5 22 self moralOther H j 0 0.7061 
02-May-2018_14:52:48 7303 28 male R 2 5 23 self immoralOther H h 1 0.7109 
02-May-2018_14:52:50 7303 28 male R 2 5 24 self moralOther H h 1 0.5228 
Date Sub Age Sex Hand Block Bin Trial Task Shape corrResp Resp ACC RT
02-May-2018_14:54:52 7303 28 male R 3 1 1 moral immoralOther Y y 1 0.6108 
02-May-2018_14:54:54 7303 28 male R 3 1 2 moral immoralSelf Y y 1 0.8388 
02-May-2018_14:54:56 7303 28 male R 3 1 3 moral moralSelf U u 1 0.6202 
02-May-2018_14:54:58 7303 28 male R 3 1 4 moral moralSelf U u 1 0.5370 
02-May-2018_14:54:59 7303 28 male R 3 1 5 moral immoralOther Y y 1 0.5266 
02-May-2018_14:55:01 7303 28 male R 3 1 6 moral moralOther U u 1 0.8124 
02-May-2018_14:55:03 7303 28 male R 3 1 7 moral moralSelf U u 1 0.6082 
02-May-2018_14:55:05 7303 28 male R 3 1 8 moral immoralSelf Y y 1 0.7510 
02-May-2018_14:55:06 7303 28 male R 3 1 9 moral immoralSelf Y y 1 0.4132 
02-May-2018_14:55:08 7303 28 male R 3 1 10 moral immoralSelf Y y 1 0.4396 
02-May-2018_14:55:10 7303 28 male R 3 1 11 moral moralOther U u 1 0.7125 
02-May-2018_14:55:11 7303 28 male R 3 1 12 moral moralSelf U u 1 0.5507 
02-May-2018_14:55:13 7303 28 male R 3 1 13 moral moralSelf U u 1 0.5705 
02-May-2018_14:55:15 7303 28 male R 3 1 14 moral moralSelf U u 1 0.7231 
02-May-2018_14:55:17 7303 28 male R 3 1 15 moral immoralOther Y y 1 0.6714 
02-May-2018_14:55:18 7303 28 male R 3 1 16 moral immoralOther Y y 1 0.4794 
02-May-2018_14:55:20 7303 28 male R 3 1 17 moral immoralOther Y y 1 0.4598 
02-May-2018_14:55:22 7303 28 male R 3 1 18 moral immoralSelf Y u 0 0.5517 
02-May-2018_14:55:23 7303 28 male R 3 1 19 moral moralOther U u 1 0.5395 
02-May-2018_14:55:25 7303 28 male R 3 1 20 moral moralOther U u 1 0.5545 
02-May-2018_14:55:26 7303 28 male R 3 1 21 moral moralOther U u 1 0.3462 
02-May-2018_14:55:28 7303 28 male R 3 1 22 moral immoralSelf Y y 1 0.5645 
02-May-2018_14:55:30 7303 28 male R 3 1 23 moral moralOther U u 1 0.5218 
02-May-2018_14:55:31 7303 28 male R 3 1 24 moral immoralOther Y y 1 0.5425 
02-May-2018_14:55:33 7303 28 male R 3 2 1 moral immoralOther Y y 1 0.4103 
02-May-2018_14:55:35 7303 28 male R 3 2 2 moral moralOther U u 1 0.4915 
02-May-2018_14:55:37 7303 28 male R 3 2 3 moral immoralOther Y y 1 0.5447 
02-May-2018_14:55:38 7303 28 male R 3 2 4 moral moralSelf U u 1 0.4440 
02-May-2018_14:55:40 7303 28 male R 3 2 5 moral moralSelf U u 1 0.3811 
02-May-2018_14:55:41 7303 28 male R 3 2 6 moral immoralSelf Y y 1 0.6234 
02-May-2018_14:55:43 7303 28 male R 3 2 7 moral immoralSelf Y y 1 0.4546 
02-May-2018_14:55:45 7303 28 male R 3 2 8 moral moralOther U u 1 0.4796 
02-May-2018_14:55:46 7303 28 male R 3 2 9 moral immoralSelf Y y 1 0.5300 
02-May-2018_14:55:48 7303 28 male R 3 2 10 moral moralOther U u 1 0.6214 
02-May-2018_14:55:50 7303 28 male R 3 2 11 moral moralSelf U u 1 0.8797 
02-May-2018_14:55:52 7303 28 male R 3 2 12 moral immoralOther Y y 1 0.5491 
02-May-2018_14:55:54 7303 28 male R 3 2 13 moral immoralSelf Y u 0 0.5501 
02-May-2018_14:55:55 7303 28 male R 3 2 14 moral immoralSelf Y y 1 0.4354 
02-May-2018_14:55:57 7303 28 male R 3 2 15 moral moralSelf U u 1 0.5041 
02-May-2018_14:55:59 7303 28 male R 3 2 16 moral immoralOther Y y 1 0.6482 
02-May-2018_14:56:00 7303 28 male R 3 2 17 moral immoralOther Y y 1 0.5401 
02-May-2018_14:56:02 7303 28 male R 3 2 18 moral immoralOther Y y 1 0.5073 
02-May-2018_14:56:04 7303 28 male R 3 2 19 moral moralSelf U u 1 0.5417 
02-May-2018_14:56:06 7303 28 male R 3 2 20 moral moralOther U u 1 0.4481 
02-May-2018_14:56:07 7303 28 male R 3 2 21 moral moralOther U u 1 0.4311 
02-May-2018_14:56:09 7303 28 male R 3 2 22 moral moralOther U u 1 0.4637 
02-May-2018_14:56:11 7303 28 male R 3 2 23 moral moralSelf U y 0 0.4271 
02-May-2018_14:56:13 7303 28 male R 3 2 24 moral immoralSelf Y y 1 0.5565 
02-May-2018_14:56:17 7303 28 male R 3 3 1 moral immoralSelf Y y 1 0.8447 
02-May-2018_14:56:18 7303 28 male R 3 3 2 moral moralOther U y 0 0.4127 
02-May-2018_14:56:20 7303 28 male R 3 3 3 moral immoralOther Y y 1 0.5658 
02-May-2018_14:56:21 7303 28 male R 3 3 4 moral moralSelf U u 1 0.4718 
02-May-2018_14:56:23 7303 28 male R 3 3 5 moral moralSelf U u 1 0.4031 
02-May-2018_14:56:25 7303 28 male R 3 3 6 moral immoralOther Y y 1 0.5721 
02-May-2018_14:56:26 7303 28 male R 3 3 7 moral moralOther U u 1 0.5275 
02-May-2018_14:56:28 7303 28 male R 3 3 8 moral immoralOther Y y 1 0.5115 
02-May-2018_14:56:30 7303 28 male R 3 3 9 moral moralSelf U u 1 0.5300 
02-May-2018_14:56:32 7303 28 male R 3 3 10 moral immoralSelf Y u 0 0.5757 
02-May-2018_14:56:34 7303 28 male R 3 3 11 moral immoralOther Y y 1 0.7273 
02-May-2018_14:56:35 7303 28 male R 3 3 12 moral immoralOther Y y 1 0.4685 
02-May-2018_14:56:37 7303 28 male R 3 3 13 moral moralOther U u 1 0.5788 
02-May-2018_14:56:39 7303 28 male R 3 3 14 moral immoralSelf Y y 1 0.4570 
02-May-2018_14:56:41 7303 28 male R 3 3 15 moral moralSelf U u 1 0.5271 
02-May-2018_14:56:43 7303 28 male R 3 3 16 moral moralOther U u 1 0.6858 
02-May-2018_14:56:45 7303 28 male R 3 3 17 moral immoralSelf Y y 1 0.5819 
02-May-2018_14:56:47 7303 28 male R 3 3 18 moral moralOther U u 1 0.6963 
02-May-2018_14:56:49 7303 28 male R 3 3 19 moral moralSelf U u 1 0.6385 
02-May-2018_14:56:50 7303 28 male R 3 3 20 moral moralSelf U u 1 0.6099 
02-May-2018_14:56:52 7303 28 male R 3 3 21 moral immoralSelf Y u 0 0.4801 
02-May-2018_14:56:54 7303 28 male R 3 3 22 moral immoralSelf Y u 0 0.7827 
02-May-2018_14:56:55 7303 28 male R 3 3 23 moral immoralOther Y y 1 0.5080 
02-May-2018_14:56:57 7303 28 male R 3 3 24 moral moralOther U u 1 0.5226 
02-May-2018_14:56:59 7303 28 male R 3 4 1 moral immoralOther Y y 1 0.4479 
02-May-2018_14:57:01 7303 28 male R 3 4 2 moral immoralOther Y y 1 0.5571 
02-May-2018_14:57:03 7303 28 male R 3 4 3 moral moralOther U u 1 0.5045 
02-May-2018_14:57:04 7303 28 male R 3 4 4 moral immoralSelf Y u 0 0.5818 
02-May-2018_14:57:06 7303 28 male R 3 4 5 moral immoralOther Y y 1 0.5748 
02-May-2018_14:57:08 7303 28 male R 3 4 6 moral immoralSelf Y y 1 0.3833 
02-May-2018_14:57:10 7303 28 male R 3 4 7 moral moralSelf U u 1 0.4874 
02-May-2018_14:57:11 7303 28 male R 3 4 8 moral moralOther U u 1 0.5214 
02-May-2018_14:57:13 7303 28 male R 3 4 9 moral moralOther U u 1 0.5153 
02-May-2018_14:57:14 7303 28 male R 3 4 10 moral moralOther U u 1 0.4613 
02-May-2018_14:57:16 7303 28 male R 3 4 11 moral moralOther U u 1 0.4062 
02-May-2018_14:57:18 7303 28 male R 3 4 12 moral moralSelf U u 1 0.4457 
02-May-2018_14:57:20 7303 28 male R 3 4 13 moral moralOther U u 1 0.4665 
02-May-2018_14:57:21 7303 28 male R 3 4 14 moral moralSelf U u 1 0.3993 
02-May-2018_14:57:23 7303 28 male R 3 4 15 moral immoralOther Y y 1 0.6145 
02-May-2018_14:57:25 7303 28 male R 3 4 16 moral immoralSelf Y u 0 0.6052 
02-May-2018_14:57:26 7303 28 male R 3 4 17 moral moralSelf U u 1 0.5573 
02-May-2018_14:57:28 7303 28 male R 3 4 18 moral immoralSelf Y u 0 0.5691 
02-May-2018_14:57:30 7303 28 male R 3 4 19 moral immoralOther Y y 1 0.5855 
02-May-2018_14:57:32 7303 28 male R 3 4 20 moral immoralOther Y y 1 0.4766 
02-May-2018_14:57:33 7303 28 male R 3 4 21 moral moralSelf U u 1 0.5011 
02-May-2018_14:57:35 7303 28 male R 3 4 22 moral immoralSelf Y y 1 0.5834 
02-May-2018_14:57:36 7303 28 male R 3 4 23 moral immoralSelf Y y 1 0.4208 
02-May-2018_14:57:38 7303 28 male R 3 4 24 moral moralSelf U u 1 0.4449 
02-May-2018_14:57:42 7303 28 male R 3 5 1 moral immoralOther Y y 1 0.6345 
02-May-2018_14:57:44 7303 28 male R 3 5 2 moral moralOther U u 1 0.5190 
02-May-2018_14:57:46 7303 28 male R 3 5 3 moral moralSelf U u 1 0.5858 
02-May-2018_14:57:47 7303 28 male R 3 5 4 moral moralOther U u 1 0.4909 
02-May-2018_14:57:49 7303 28 male R 3 5 5 moral immoralSelf Y y 1 0.5563 
02-May-2018_14:57:50 7303 28 male R 3 5 6 moral immoralOther Y y 1 0.6184 
02-May-2018_14:57:52 7303 28 male R 3 5 7 moral moralSelf U u 1 0.4435 
02-May-2018_14:57:54 7303 28 male R 3 5 8 moral immoralOther Y y 1 0.4845 
02-May-2018_14:57:56 7303 28 male R 3 5 9 moral immoralOther Y y 1 0.4464 
02-May-2018_14:57:58 7303 28 male R 3 5 10 moral moralSelf U u 1 0.4856 
02-May-2018_14:57:59 7303 28 male R 3 5 11 moral immoralSelf Y y 1 0.4725 
02-May-2018_14:58:01 7303 28 male R 3 5 12 moral immoralSelf Y y 1 0.4617 
02-May-2018_14:58:02 7303 28 male R 3 5 13 moral immoralSelf Y y 1 0.3921 
02-May-2018_14:58:04 7303 28 male R 3 5 14 moral moralSelf U u 1 0.5362 
02-May-2018_14:58:06 7303 28 male R 3 5 15 moral moralOther U u 1 0.8229 
02-May-2018_14:58:08 7303 28 male R 3 5 16 moral moralOther U u 1 0.4243 
02-May-2018_14:58:09 7303 28 male R 3 5 17 moral immoralOther Y y 1 0.4706 
02-May-2018_14:58:11 7303 28 male R 3 5 18 moral moralOther U u 1 0.4839 
02-May-2018_14:58:13 7303 28 male R 3 5 19 moral immoralSelf Y y 1 0.7169 
02-May-2018_14:58:15 7303 28 male R 3 5 20 moral immoralSelf Y y 1 0.4307 
02-May-2018_14:58:16 7303 28 male R 3 5 21 moral moralSelf U u 1 0.6333 
02-May-2018_14:58:18 7303 28 male R 3 5 22 moral immoralOther Y y 1 0.5029 
02-May-2018_14:58:20 7303 28 male R 3 5 23 moral moralOther U u 1 0.8889 
02-May-2018_14:58:21 7303 28 male R 3 5 24 moral moralSelf U y 0 0.6042 
Date Sub Age Sex Hand Block Bin Trial Task Shape corrResp Resp ACC RT
02-May-2018_15:00:21 7303 28 male R 4 1 1 self moralOther H h 1 0.6482 
02-May-2018_15:00:23 7303 28 male R 4 1 2 self moralSelf J j 1 0.6555 
02-May-2018_15:00:25 7303 28 male R 4 1 3 self immoralOther H h 1 0.6997 
02-May-2018_15:00:27 7303 28 male R 4 1 4 self immoralSelf J j 1 0.8508 
02-May-2018_15:00:29 7303 28 male R 4 1 5 self immoralSelf J j 1 0.5644 
02-May-2018_15:00:30 7303 28 male R 4 1 6 self immoralOther H h 1 0.5277 
02-May-2018_15:00:32 7303 28 male R 4 1 7 self moralOther H h 1 0.6055 
02-May-2018_15:00:34 7303 28 male R 4 1 8 self immoralOther H h 1 1.0046 
02-May-2018_15:00:36 7303 28 male R 4 1 9 self moralOther H h 1 0.5195 
02-May-2018_15:00:37 7303 28 male R 4 1 10 self immoralSelf J j 1 0.5313 
02-May-2018_15:00:39 7303 28 male R 4 1 11 self moralOther H h 1 0.6307 
02-May-2018_15:00:41 7303 28 male R 4 1 12 self immoralOther H h 1 0.5711 
02-May-2018_15:00:43 7303 28 male R 4 1 13 self immoralSelf J j 1 0.5890 
02-May-2018_15:00:44 7303 28 male R 4 1 14 self moralSelf J j 1 0.6295 
02-May-2018_15:00:46 7303 28 male R 4 1 15 self moralSelf J j 1 0.5133 
02-May-2018_15:00:47 7303 28 male R 4 1 16 self moralSelf J j 1 0.4908 
02-May-2018_15:00:49 7303 28 male R 4 1 17 self immoralOther H h 1 0.6288 
02-May-2018_15:00:51 7303 28 male R 4 1 18 self immoralOther H h 1 0.4359 
02-May-2018_15:00:53 7303 28 male R 4 1 19 self moralOther H h 1 0.9681 
02-May-2018_15:00:54 7303 28 male R 4 1 20 self immoralSelf J j 1 0.6365 
02-May-2018_15:00:56 7303 28 male R 4 1 21 self moralSelf J j 1 0.9062 
02-May-2018_15:00:58 7303 28 male R 4 1 22 self moralSelf J j 1 0.5640 
02-May-2018_15:01:00 7303 28 male R 4 1 23 self immoralSelf J j 1 0.6428 
02-May-2018_15:01:02 7303 28 male R 4 1 24 self moralOther H h 1 0.5573 
02-May-2018_15:01:04 7303 28 male R 4 2 1 self moralOther H h 1 0.5824 
02-May-2018_15:01:06 7303 28 male R 4 2 2 self immoralOther H h 1 0.8342 
02-May-2018_15:01:07 7303 28 male R 4 2 3 self immoralOther H h 1 0.5161 
02-May-2018_15:01:09 7303 28 male R 4 2 4 self moralSelf J j 1 0.5958 
02-May-2018_15:01:11 7303 28 male R 4 2 5 self immoralSelf J j 1 0.5675 
02-May-2018_15:01:13 7303 28 male R 4 2 6 self immoralOther H h 1 0.7102 
02-May-2018_15:01:15 7303 28 male R 4 2 7 self moralSelf J h 0 0.5461 
02-May-2018_15:01:16 7303 28 male R 4 2 8 self moralOther H h 1 0.6614 
02-May-2018_15:01:18 7303 28 male R 4 2 9 self immoralOther H h 1 0.6714 
02-May-2018_15:01:20 7303 28 male R 4 2 10 self moralOther H h 1 0.5298 
02-May-2018_15:01:22 7303 28 male R 4 2 11 self moralOther H h 1 0.4950 
02-May-2018_15:01:24 7303 28 male R 4 2 12 self immoralOther H h 1 0.6645 
02-May-2018_15:01:26 7303 28 male R 4 2 13 self moralOther H h 1 0.6430 
02-May-2018_15:01:27 7303 28 male R 4 2 14 self immoralOther H h 1 0.5423 
02-May-2018_15:01:29 7303 28 male R 4 2 15 self immoralSelf J j 1 0.4981 
02-May-2018_15:01:30 7303 28 male R 4 2 16 self immoralSelf J j 1 0.5688 
02-May-2018_15:01:32 7303 28 male R 4 2 17 self immoralSelf J j 1 0.5520 
02-May-2018_15:01:34 7303 28 male R 4 2 18 self moralOther H h 1 0.7067 
02-May-2018_15:01:36 7303 28 male R 4 2 19 self moralSelf J j 1 0.4401 
02-May-2018_15:01:38 7303 28 male R 4 2 20 self immoralSelf J h 0 0.5046 
02-May-2018_15:01:39 7303 28 male R 4 2 21 self moralSelf J j 1 0.6463 
02-May-2018_15:01:41 7303 28 male R 4 2 22 self immoralSelf J j 1 0.4568 
02-May-2018_15:01:43 7303 28 male R 4 2 23 self moralSelf J j 1 0.5232 
02-May-2018_15:01:45 7303 28 male R 4 2 24 self moralSelf J j 1 0.4254 
02-May-2018_15:01:50 7303 28 male R 4 3 1 self immoralOther H h 1 0.6996 
02-May-2018_15:01:52 7303 28 male R 4 3 2 self immoralOther H h 1 0.4041 
02-May-2018_15:01:54 7303 28 male R 4 3 3 self moralSelf J j 1 0.5200 
02-May-2018_15:01:56 7303 28 male R 4 3 4 self immoralOther H h 1 0.7223 
02-May-2018_15:01:57 7303 28 male R 4 3 5 self moralOther H h 1 0.4165 
02-May-2018_15:01:59 7303 28 male R 4 3 6 self moralSelf J j 1 0.5634 
02-May-2018_15:02:00 7303 28 male R 4 3 7 self immoralSelf J j 1 0.5231 
02-May-2018_15:02:02 7303 28 male R 4 3 8 self immoralOther H h 1 0.5259 
02-May-2018_15:02:04 7303 28 male R 4 3 9 self moralOther H h 1 0.7090 
02-May-2018_15:02:06 7303 28 male R 4 3 10 self immoralOther H h 1 0.4799 
02-May-2018_15:02:08 7303 28 male R 4 3 11 self moralOther H h 1 0.6574 
02-May-2018_15:02:09 7303 28 male R 4 3 12 self moralSelf J j 1 0.5672 
02-May-2018_15:02:11 7303 28 male R 4 3 13 self immoralOther H h 1 0.7781 
02-May-2018_15:02:13 7303 28 male R 4 3 14 self moralOther H h 1 0.5833 
02-May-2018_15:02:15 7303 28 male R 4 3 15 self moralSelf J j 1 0.5697 
02-May-2018_15:02:16 7303 28 male R 4 3 16 self moralOther H h 1 0.5881 
02-May-2018_15:02:18 7303 28 male R 4 3 17 self moralSelf J h 0 0.6536 
02-May-2018_15:02:20 7303 28 male R 4 3 18 self immoralSelf J j 1 0.6773 
02-May-2018_15:02:22 7303 28 male R 4 3 19 self immoralSelf J j 1 0.5088 
02-May-2018_15:02:23 7303 28 male R 4 3 20 self immoralSelf J j 1 0.3626 
02-May-2018_15:02:25 7303 28 male R 4 3 21 self immoralSelf J j 1 0.3696 
02-May-2018_15:02:27 7303 28 male R 4 3 22 self moralOther H h 1 0.6874 
02-May-2018_15:02:28 7303 28 male R 4 3 23 self immoralSelf J j 1 0.5073 
02-May-2018_15:02:30 7303 28 male R 4 3 24 self moralSelf J j 1 0.5253 
02-May-2018_15:02:32 7303 28 male R 4 4 1 self immoralSelf J j 1 0.5662 
02-May-2018_15:02:34 7303 28 male R 4 4 2 self moralOther H j 0 0.5875 
02-May-2018_15:02:36 7303 28 male R 4 4 3 self immoralOther H h 1 0.7824 
02-May-2018_15:02:38 7303 28 male R 4 4 4 self moralOther H h 1 0.4322 
02-May-2018_15:02:39 7303 28 male R 4 4 5 self immoralSelf J j 1 0.5256 
02-May-2018_15:02:41 7303 28 male R 4 4 6 self moralSelf J j 1 0.5346 
02-May-2018_15:02:42 7303 28 male R 4 4 7 self immoralOther H h 1 0.5003 
02-May-2018_15:02:44 7303 28 male R 4 4 8 self moralOther H h 1 0.4905 
02-May-2018_15:02:46 7303 28 male R 4 4 9 self immoralOther H h 1 0.5620 
02-May-2018_15:02:48 7303 28 male R 4 4 10 self moralSelf J j 1 0.5151 
02-May-2018_15:02:49 7303 28 male R 4 4 11 self moralSelf J j 1 0.4531 
02-May-2018_15:02:51 7303 28 male R 4 4 12 self immoralSelf J j 1 0.4673 
02-May-2018_15:02:52 7303 28 male R 4 4 13 self immoralSelf J j 1 0.4382 
02-May-2018_15:02:54 7303 28 male R 4 4 14 self moralOther H h 1 0.6415 
02-May-2018_15:02:56 7303 28 male R 4 4 15 self immoralOther H h 1 0.7959 
02-May-2018_15:02:58 7303 28 male R 4 4 16 self immoralOther H h 1 0.4878 
02-May-2018_15:02:59 7303 28 male R 4 4 17 self moralSelf J j 1 0.5608 
02-May-2018_15:03:01 7303 28 male R 4 4 18 self moralSelf J j 1 0.4794 
02-May-2018_15:03:02 7303 28 male R 4 4 19 self immoralOther H h 1 0.5283 
02-May-2018_15:03:04 7303 28 male R 4 4 20 self immoralSelf J j 1 0.5459 
02-May-2018_15:03:06 7303 28 male R 4 4 21 self moralSelf J j 1 0.4989 
02-May-2018_15:03:08 7303 28 male R 4 4 22 self moralOther H h 1 0.5465 
02-May-2018_15:03:09 7303 28 male R 4 4 23 self immoralSelf J j 1 0.6742 
02-May-2018_15:03:11 7303 28 male R 4 4 24 self moralOther H h 1 0.5411 
02-May-2018_15:03:16 7303 28 male R 4 5 1 self moralSelf J NA -1 1.0411 
02-May-2018_15:03:17 7303 28 male R 4 5 2 self immoralOther H h 1 0.5144 
02-May-2018_15:03:19 7303 28 male R 4 5 3 self moralOther H h 1 0.5809 
02-May-2018_15:03:21 7303 28 male R 4 5 4 self immoralSelf J h 0 0.5198 
02-May-2018_15:03:23 7303 28 male R 4 5 5 self moralOther H h 1 0.6229 
02-May-2018_15:03:24 7303 28 male R 4 5 6 self immoralSelf J h 0 0.4442 
02-May-2018_15:03:26 7303 28 male R 4 5 7 self immoralSelf J j 1 0.4052 
02-May-2018_15:03:27 7303 28 male R 4 5 8 self immoralOther H h 1 0.5934 
02-May-2018_15:03:29 7303 28 male R 4 5 9 self moralSelf J j 1 0.5798 
02-May-2018_15:03:31 7303 28 male R 4 5 10 self moralSelf J j 1 0.6699 
02-May-2018_15:03:33 7303 28 male R 4 5 11 self moralOther H h 1 0.6017 
02-May-2018_15:03:35 7303 28 male R 4 5 12 self immoralSelf J NA -1 1.0411 
02-May-2018_15:03:37 7303 28 male R 4 5 13 self moralSelf J j 1 0.6846 
02-May-2018_15:03:38 7303 28 male R 4 5 14 self immoralSelf J j 1 0.7788 
02-May-2018_15:03:40 7303 28 male R 4 5 15 self immoralSelf J j 1 0.4349 
02-May-2018_15:03:42 7303 28 male R 4 5 16 self moralSelf J h 0 0.6976 
02-May-2018_15:03:44 7303 28 male R 4 5 17 self immoralOther H h 1 0.5954 
02-May-2018_15:03:46 7303 28 male R 4 5 18 self immoralOther H h 1 0.6446 
02-May-2018_15:03:48 7303 28 male R 4 5 19 self moralOther H h 1 0.4014 
02-May-2018_15:03:50 7303 28 male R 4 5 20 self moralOther H j 0 0.7195 
02-May-2018_15:03:51 7303 28 male R 4 5 21 self immoralOther H h 1 0.5855 
02-May-2018_15:03:53 7303 28 male R 4 5 22 self moralOther H h 1 0.4647 
02-May-2018_15:03:55 7303 28 male R 4 5 23 self moralSelf J j 1 0.6544 
02-May-2018_15:03:57 7303 28 male R 4 5 24 self immoralOther H h 1 0.9293 
Date Sub Age Sex Hand Block Bin Trial Task Shape corrResp Resp ACC RT
02-May-2018_15:06:12 7303 28 male R 5 1 1 moral moralOther U y 0 0.7023 
02-May-2018_15:06:14 7303 28 male R 5 1 2 moral moralSelf U u 1 0.7411 
02-May-2018_15:06:16 7303 28 male R 5 1 3 moral moralOther U u 1 0.6988 
02-May-2018_15:06:18 7303 28 male R 5 1 4 moral immoralSelf Y y 1 0.7403 
02-May-2018_15:06:20 7303 28 male R 5 1 5 moral moralOther U u 1 0.7060 
02-May-2018_15:06:21 7303 28 male R 5 1 6 moral immoralOther Y y 1 0.5437 
02-May-2018_15:06:23 7303 28 male R 5 1 7 moral moralSelf U u 1 0.6201 
02-May-2018_15:06:25 7303 28 male R 5 1 8 moral immoralSelf Y u 0 0.5984 
02-May-2018_15:06:27 7303 28 male R 5 1 9 moral moralOther U u 1 1.0159 
02-May-2018_15:06:29 7303 28 male R 5 1 10 moral immoralOther Y y 1 0.9204 
02-May-2018_15:06:30 7303 28 male R 5 1 11 moral immoralOther Y y 1 0.5455 
02-May-2018_15:06:32 7303 28 male R 5 1 12 moral moralSelf U u 1 0.5861 
02-May-2018_15:06:34 7303 28 male R 5 1 13 moral immoralSelf Y y 1 0.5626 
02-May-2018_15:06:36 7303 28 male R 5 1 14 moral moralOther U u 1 0.9630 
02-May-2018_15:06:38 7303 28 male R 5 1 15 moral immoralSelf Y y 1 0.8856 
02-May-2018_15:06:40 7303 28 male R 5 1 16 moral immoralOther Y y 1 0.8584 
02-May-2018_15:06:42 7303 28 male R 5 1 17 moral immoralOther Y y 1 0.5201 
02-May-2018_15:06:43 7303 28 male R 5 1 18 moral moralSelf U u 1 0.6670 
02-May-2018_15:06:45 7303 28 male R 5 1 19 moral moralSelf U u 1 0.4732 
02-May-2018_15:06:47 7303 28 male R 5 1 20 moral immoralSelf Y y 1 0.5961 
02-May-2018_15:06:49 7303 28 male R 5 1 21 moral immoralSelf Y y 1 0.4682 
02-May-2018_15:06:51 7303 28 male R 5 1 22 moral moralSelf U u 1 0.6458 
02-May-2018_15:06:53 7303 28 male R 5 1 23 moral moralOther U y 0 0.9403 
02-May-2018_15:06:55 7303 28 male R 5 1 24 moral immoralOther Y y 1 0.6806 
02-May-2018_15:06:57 7303 28 male R 5 2 1 moral immoralSelf Y y 1 0.7307 
02-May-2018_15:06:59 7303 28 male R 5 2 2 moral moralOther U u 1 0.9171 
02-May-2018_15:07:01 7303 28 male R 5 2 3 moral moralSelf U u 1 0.7976 
02-May-2018_15:07:03 7303 28 male R 5 2 4 moral immoralSelf Y y 1 0.5860 
02-May-2018_15:07:05 7303 28 male R 5 2 5 moral immoralOther Y y 1 0.8100 
02-May-2018_15:07:08 7303 28 male R 5 2 6 moral moralOther U u 1 0.8972 
02-May-2018_15:07:09 7303 28 male R 5 2 7 moral moralSelf U u 1 0.5674 
02-May-2018_15:07:12 7303 28 male R 5 2 8 moral immoralOther Y NA -1 1.0411 
02-May-2018_15:07:14 7303 28 male R 5 2 9 moral immoralOther Y u 0 0.7751 
02-May-2018_15:07:16 7303 28 male R 5 2 10 moral moralSelf U u 1 0.7540 
02-May-2018_15:07:18 7303 28 male R 5 2 11 moral immoralSelf Y y 1 0.8609 
02-May-2018_15:07:19 7303 28 male R 5 2 12 moral moralOther U u 1 0.6769 
02-May-2018_15:07:21 7303 28 male R 5 2 13 moral moralOther U u 1 0.5947 
02-May-2018_15:07:23 7303 28 male R 5 2 14 moral moralSelf U u 1 0.7138 
02-May-2018_15:07:25 7303 28 male R 5 2 15 moral moralOther U u 1 0.8400 
02-May-2018_15:07:27 7303 28 male R 5 2 16 moral moralSelf U u 1 0.9521 
02-May-2018_15:07:29 7303 28 male R 5 2 17 moral immoralSelf Y y 1 0.7565 
02-May-2018_15:07:30 7303 28 male R 5 2 18 moral immoralSelf Y y 1 0.4592 
02-May-2018_15:07:33 7303 28 male R 5 2 19 moral immoralOther Y NA -1 1.0411 
02-May-2018_15:07:35 7303 28 male R 5 2 20 moral immoralOther Y NA -1 1.0411 
02-May-2018_15:07:37 7303 28 male R 5 2 21 moral immoralSelf Y u 0 0.9741 
02-May-2018_15:07:39 7303 28 male R 5 2 22 moral moralOther U u 1 0.5341 
02-May-2018_15:07:41 7303 28 male R 5 2 23 moral immoralOther Y NA -1 1.0411 
02-May-2018_15:07:43 7303 28 male R 5 2 24 moral moralSelf U y 0 0.9076 
02-May-2018_15:07:47 7303 28 male R 5 3 1 moral immoralSelf Y y 1 0.8884 
02-May-2018_15:07:49 7303 28 male R 5 3 2 moral immoralOther Y y 1 0.6416 
02-May-2018_15:07:51 7303 28 male R 5 3 3 moral moralOther U u 1 0.9445 
02-May-2018_15:07:53 7303 28 male R 5 3 4 moral moralSelf U u 1 0.9372 
02-May-2018_15:07:55 7303 28 male R 5 3 5 moral immoralSelf Y y 1 0.7183 
02-May-2018_15:07:57 7303 28 male R 5 3 6 moral moralSelf U u 1 0.6527 
02-May-2018_15:07:59 7303 28 male R 5 3 7 moral moralOther U y 0 0.7412 
02-May-2018_15:08:01 7303 28 male R 5 3 8 moral moralOther U u 1 0.5545 
02-May-2018_15:08:03 7303 28 male R 5 3 9 moral immoralOther Y y 1 0.7169 
02-May-2018_15:08:04 7303 28 male R 5 3 10 moral immoralOther Y y 1 0.4247 
02-May-2018_15:08:06 7303 28 male R 5 3 11 moral moralOther U u 1 0.4757 
02-May-2018_15:08:08 7303 28 male R 5 3 12 moral immoralSelf Y y 1 0.7204 
02-May-2018_15:08:10 7303 28 male R 5 3 13 moral moralOther U u 1 0.6217 
02-May-2018_15:08:11 7303 28 male R 5 3 14 moral immoralSelf Y y 1 0.6231 
02-May-2018_15:08:13 7303 28 male R 5 3 15 moral immoralSelf Y y 1 0.5164 
02-May-2018_15:08:15 7303 28 male R 5 3 16 moral moralSelf U u 1 0.4661 
02-May-2018_15:08:17 7303 28 male R 5 3 17 moral immoralOther Y y 1 0.5349 
02-May-2018_15:08:19 7303 28 male R 5 3 18 moral immoralOther Y u 0 0.6935 
02-May-2018_15:08:21 7303 28 male R 5 3 19 moral moralSelf U y 0 0.6423 
02-May-2018_15:08:23 7303 28 male R 5 3 20 moral immoralSelf Y u 0 0.6048 
02-May-2018_15:08:25 7303 28 male R 5 3 21 moral moralOther U u 1 0.8830 
02-May-2018_15:08:27 7303 28 male R 5 3 22 moral immoralOther Y u 0 0.6962 
02-May-2018_15:08:28 7303 28 male R 5 3 23 moral moralSelf U u 1 0.6855 
02-May-2018_15:08:30 7303 28 male R 5 3 24 moral moralSelf U u 1 0.9891 
02-May-2018_15:08:32 7303 28 male R 5 4 1 moral immoralSelf Y y 1 0.6475 
02-May-2018_15:08:34 7303 28 male R 5 4 2 moral moralSelf U u 1 0.7022 
02-May-2018_15:08:36 7303 28 male R 5 4 3 moral moralSelf U u 1 0.5003 
02-May-2018_15:08:38 7303 28 male R 5 4 4 moral moralSelf U u 1 0.4393 
02-May-2018_15:08:40 7303 28 male R 5 4 5 moral immoralSelf Y y 1 0.6154 
02-May-2018_15:08:41 7303 28 male R 5 4 6 moral immoralSelf Y y 1 0.4729 
02-May-2018_15:08:43 7303 28 male R 5 4 7 moral moralOther U y 0 0.7256 
02-May-2018_15:08:45 7303 28 male R 5 4 8 moral moralSelf U u 1 0.9234 
02-May-2018_15:08:47 7303 28 male R 5 4 9 moral immoralSelf Y y 1 0.6857 
02-May-2018_15:08:49 7303 28 male R 5 4 10 moral immoralSelf Y y 1 0.5668 
02-May-2018_15:08:51 7303 28 male R 5 4 11 moral moralOther U u 1 0.8239 
02-May-2018_15:08:53 7303 28 male R 5 4 12 moral moralOther U u 1 0.6940 
02-May-2018_15:08:55 7303 28 male R 5 4 13 moral immoralOther Y y 1 0.7294 
02-May-2018_15:08:56 7303 28 male R 5 4 14 moral immoralOther Y y 1 0.6292 
02-May-2018_15:08:58 7303 28 male R 5 4 15 moral immoralSelf Y u 0 0.6618 
02-May-2018_15:09:00 7303 28 male R 5 4 16 moral moralOther U u 1 0.8370 
02-May-2018_15:09:02 7303 28 male R 5 4 17 moral moralOther U u 1 0.7495 
02-May-2018_15:09:04 7303 28 male R 5 4 18 moral moralOther U u 1 0.5279 
02-May-2018_15:09:06 7303 28 male R 5 4 19 moral moralSelf U u 1 0.6301 
02-May-2018_15:09:08 7303 28 male R 5 4 20 moral immoralOther Y y 1 0.5826 
02-May-2018_15:09:09 7303 28 male R 5 4 21 moral immoralOther Y y 1 0.5249 
02-May-2018_15:09:11 7303 28 male R 5 4 22 moral moralSelf U y 0 0.8349 
02-May-2018_15:09:13 7303 28 male R 5 4 23 moral immoralOther Y y 1 0.5927 
02-May-2018_15:09:15 7303 28 male R 5 4 24 moral immoralOther Y y 1 0.6059 
02-May-2018_15:09:20 7303 28 male R 5 5 1 moral immoralSelf Y y 1 0.9878 
02-May-2018_15:09:22 7303 28 male R 5 5 2 moral moralSelf U u 1 0.7790 
02-May-2018_15:09:24 7303 28 male R 5 5 3 moral immoralOther Y y 1 0.6938 
02-May-2018_15:09:26 7303 28 male R 5 5 4 moral moralSelf U u 1 0.5523 
02-May-2018_15:09:27 7303 28 male R 5 5 5 moral immoralOther Y y 1 0.5712 
02-May-2018_15:09:29 7303 28 male R 5 5 6 moral immoralSelf Y y 1 0.6428 
02-May-2018_15:09:31 7303 28 male R 5 5 7 moral moralSelf U y 0 0.5464 
02-May-2018_15:09:33 7303 28 male R 5 5 8 moral immoralSelf Y y 1 0.7352 
02-May-2018_15:09:34 7303 28 male R 5 5 9 moral moralOther U u 1 0.7038 
02-May-2018_15:09:36 7303 28 male R 5 5 10 moral immoralSelf Y y 1 0.6888 
02-May-2018_15:09:38 7303 28 male R 5 5 11 moral immoralSelf Y y 1 0.7048 
02-May-2018_15:09:40 7303 28 male R 5 5 12 moral immoralSelf Y y 1 0.5788 
02-May-2018_15:09:42 7303 28 male R 5 5 13 moral moralOther U u 1 0.9064 
02-May-2018_15:09:44 7303 28 male R 5 5 14 moral moralSelf U u 1 0.5399 
02-May-2018_15:09:46 7303 28 male R 5 5 15 moral immoralOther Y y 1 0.5983 
02-May-2018_15:09:48 7303 28 male R 5 5 16 moral moralOther U u 1 0.7960 
02-May-2018_15:09:50 7303 28 male R 5 5 17 moral moralSelf U u 1 0.5962 
02-May-2018_15:09:52 7303 28 male R 5 5 18 moral immoralOther Y y 1 0.6004 
02-May-2018_15:09:53 7303 28 male R 5 5 19 moral immoralOther Y y 1 0.4444 
02-May-2018_15:09:55 7303 28 male R 5 5 20 moral moralOther U u 1 0.6698 
02-May-2018_15:09:57 7303 28 male R 5 5 21 moral moralSelf U u 1 0.7024 
02-May-2018_15:09:59 7303 28 male R 5 5 22 moral immoralOther Y y 1 0.5871 
02-May-2018_15:10:00 7303 28 male R 5 5 23 moral moralOther U u 1 0.6357 
02-May-2018_15:10:02 7303 28 male R 5 5 24 moral moralOther U y 0 0.6969 
Date Sub Age Sex Hand Block Bin Trial Task Shape corrResp Resp ACC RT
02-May-2018_15:12:03 7303 28 male R 6 1 1 moral moralSelf U y 0 0.6770 
02-May-2018_15:12:04 7303 28 male R 6 1 2 moral immoralSelf Y y 1 0.6648 
02-May-2018_15:12:07 7303 28 male R 6 1 3 moral moralOther U y 0 0.7760 
02-May-2018_15:12:09 7303 28 male R 6 1 4 moral immoralSelf Y y 1 0.5841 
02-May-2018_15:12:10 7303 28 male R 6 1 5 moral immoralOther Y y 1 0.5616 
02-May-2018_15:12:12 7303 28 male R 6 1 6 moral moralSelf U u 1 0.8717 
02-May-2018_15:12:14 7303 28 male R 6 1 7 moral moralOther U u 1 0.9367 
02-May-2018_15:12:16 7303 28 male R 6 1 8 moral moralSelf U u 1 0.6173 
02-May-2018_15:12:18 7303 28 male R 6 1 9 moral moralOther U u 1 0.6785 
02-May-2018_15:12:19 7303 28 male R 6 1 10 moral moralOther U u 1 0.3794 
02-May-2018_15:12:21 7303 28 male R 6 1 11 moral immoralOther Y y 1 0.6147 
02-May-2018_15:12:23 7303 28 male R 6 1 12 moral moralSelf U u 1 0.6995 
02-May-2018_15:12:25 7303 28 male R 6 1 13 moral immoralOther Y y 1 0.6770 
02-May-2018_15:12:26 7303 28 male R 6 1 14 moral immoralSelf Y y 1 0.7533 
02-May-2018_15:12:28 7303 28 male R 6 1 15 moral immoralOther Y y 1 0.9514 
02-May-2018_15:12:31 7303 28 male R 6 1 16 moral immoralOther Y y 1 0.8226 
02-May-2018_15:12:33 7303 28 male R 6 1 17 moral moralOther U u 1 0.7987 
02-May-2018_15:12:34 7303 28 male R 6 1 18 moral immoralSelf Y y 1 0.5781 
02-May-2018_15:12:36 7303 28 male R 6 1 19 moral moralSelf U y 0 0.7339 
02-May-2018_15:12:38 7303 28 male R 6 1 20 moral immoralOther Y y 1 0.7881 
02-May-2018_15:12:40 7303 28 male R 6 1 21 moral immoralSelf Y NA -1 1.0411 
02-May-2018_15:12:42 7303 28 male R 6 1 22 moral moralSelf U u 1 0.8076 
02-May-2018_15:12:44 7303 28 male R 6 1 23 moral immoralSelf Y y 1 0.7611 
02-May-2018_15:12:46 7303 28 male R 6 1 24 moral moralOther U u 1 0.6656 
02-May-2018_15:12:48 7303 28 male R 6 2 1 moral moralSelf U u 1 0.7674 
02-May-2018_15:12:50 7303 28 male R 6 2 2 moral immoralOther Y y 1 0.9698 
02-May-2018_15:12:52 7303 28 male R 6 2 3 moral moralOther U u 1 0.5934 
02-May-2018_15:12:54 7303 28 male R 6 2 4 moral immoralOther Y y 1 0.4994 
02-May-2018_15:12:56 7303 28 male R 6 2 5 moral immoralSelf Y y 1 0.7093 
02-May-2018_15:12:57 7303 28 male R 6 2 6 moral moralOther U u 1 0.5834 
02-May-2018_15:12:59 7303 28 male R 6 2 7 moral immoralSelf Y y 1 0.4959 
02-May-2018_15:13:01 7303 28 male R 6 2 8 moral immoralSelf Y y 1 0.5029 
02-May-2018_15:13:03 7303 28 male R 6 2 9 moral moralSelf U y 0 0.8032 
02-May-2018_15:13:05 7303 28 male R 6 2 10 moral moralOther U u 1 0.4918 
02-May-2018_15:13:06 7303 28 male R 6 2 11 moral moralSelf U u 1 0.5079 
02-May-2018_15:13:08 7303 28 male R 6 2 12 moral moralSelf U u 1 0.4161 
02-May-2018_15:13:10 7303 28 male R 6 2 13 moral immoralSelf Y y 1 0.6563 
02-May-2018_15:13:11 7303 28 male R 6 2 14 moral moralOther U u 1 0.6380 
02-May-2018_15:13:13 7303 28 male R 6 2 15 moral immoralSelf Y y 1 0.7139 
02-May-2018_15:13:15 7303 28 male R 6 2 16 moral moralOther U u 1 0.6580 
02-May-2018_15:13:17 7303 28 male R 6 2 17 moral moralOther U u 1 0.7883 
02-May-2018_15:13:19 7303 28 male R 6 2 18 moral immoralOther Y y 1 0.4797 
02-May-2018_15:13:20 7303 28 male R 6 2 19 moral immoralOther Y y 1 0.5165 
02-May-2018_15:13:22 7303 28 male R 6 2 20 moral moralSelf U u 1 0.5678 
02-May-2018_15:13:24 7303 28 male R 6 2 21 moral immoralOther Y y 1 0.5072 
02-May-2018_15:13:25 7303 28 male R 6 2 22 moral immoralOther Y y 1 0.4645 
02-May-2018_15:13:27 7303 28 male R 6 2 23 moral immoralSelf Y u 0 0.5229 
02-May-2018_15:13:29 7303 28 male R 6 2 24 moral moralSelf U u 1 0.5361 
02-May-2018_15:13:32 7303 28 male R 6 3 1 moral moralSelf U u 1 0.6982 
02-May-2018_15:13:34 7303 28 male R 6 3 2 moral immoralSelf Y y 1 0.7180 
02-May-2018_15:13:36 7303 28 male R 6 3 3 moral immoralSelf Y y 1 0.5026 
02-May-2018_15:13:38 7303 28 male R 6 3 4 moral immoralOther Y y 1 0.5059 
02-May-2018_15:13:40 7303 28 male R 6 3 5 moral moralOther U u 1 0.6603 
02-May-2018_15:13:41 7303 28 male R 6 3 6 moral moralSelf U u 1 0.5179 
02-May-2018_15:13:43 7303 28 male R 6 3 7 moral moralOther U y 0 0.6643 
02-May-2018_15:13:45 7303 28 male R 6 3 8 moral moralSelf U u 1 0.6506 
02-May-2018_15:13:47 7303 28 male R 6 3 9 moral moralOther U u 1 0.5240 
02-May-2018_15:13:49 7303 28 male R 6 3 10 moral immoralSelf Y y 1 0.5304 
02-May-2018_15:13:50 7303 28 male R 6 3 11 moral immoralSelf Y y 1 0.3606 
02-May-2018_15:13:52 7303 28 male R 6 3 12 moral immoralOther Y y 1 0.6712 
02-May-2018_15:13:54 7303 28 male R 6 3 13 moral moralSelf U u 1 0.5837 
02-May-2018_15:13:55 7303 28 male R 6 3 14 moral moralOther U u 1 0.6210 
02-May-2018_15:13:57 7303 28 male R 6 3 15 moral immoralOther Y y 1 0.5209 
02-May-2018_15:13:59 7303 28 male R 6 3 16 moral immoralOther Y y 1 0.6094 
02-May-2018_15:14:01 7303 28 male R 6 3 17 moral moralOther U u 1 0.5017 
02-May-2018_15:14:02 7303 28 male R 6 3 18 moral moralSelf U u 1 0.4457 
02-May-2018_15:14:04 7303 28 male R 6 3 19 moral immoralOther Y y 1 0.4694 
02-May-2018_15:14:05 7303 28 male R 6 3 20 moral immoralSelf Y y 1 0.5423 
02-May-2018_15:14:08 7303 28 male R 6 3 21 moral immoralOther Y y 1 0.7560 
02-May-2018_15:14:09 7303 28 male R 6 3 22 moral moralOther U u 1 0.4982 
02-May-2018_15:14:11 7303 28 male R 6 3 23 moral moralSelf U u 1 0.4617 
02-May-2018_15:14:12 7303 28 male R 6 3 24 moral immoralSelf Y y 1 0.4640 
02-May-2018_15:14:14 7303 28 male R 6 4 1 moral immoralSelf Y y 1 0.4848 
02-May-2018_15:14:16 7303 28 male R 6 4 2 moral moralOther U u 1 0.4948 
02-May-2018_15:14:17 7303 28 male R 6 4 3 moral immoralOther Y y 1 0.4535 
02-May-2018_15:14:19 7303 28 male R 6 4 4 moral immoralOther Y y 1 0.4761 
02-May-2018_15:14:21 7303 28 male R 6 4 5 moral moralSelf U u 1 0.4921 
02-May-2018_15:14:23 7303 28 male R 6 4 6 moral immoralSelf Y y 1 0.4447 
02-May-2018_15:14:24 7303 28 male R 6 4 7 moral moralOther U y 0 0.4721 
02-May-2018_15:14:26 7303 28 male R 6 4 8 moral moralSelf U u 1 0.8237 
02-May-2018_15:14:28 7303 28 male R 6 4 9 moral immoralSelf Y y 1 0.5433 
02-May-2018_15:14:30 7303 28 male R 6 4 10 moral moralSelf U u 1 0.5278 
02-May-2018_15:14:31 7303 28 male R 6 4 11 moral moralSelf U u 1 0.3670 
02-May-2018_15:14:33 7303 28 male R 6 4 12 moral moralOther U u 1 0.6304 
02-May-2018_15:14:35 7303 28 male R 6 4 13 moral moralSelf U u 1 0.5229 
02-May-2018_15:14:36 7303 28 male R 6 4 14 moral moralOther U u 1 0.5210 
02-May-2018_15:14:38 7303 28 male R 6 4 15 moral immoralSelf Y y 1 0.5950 
02-May-2018_15:14:40 7303 28 male R 6 4 16 moral moralOther U u 1 0.5578 
02-May-2018_15:14:42 7303 28 male R 6 4 17 moral immoralOther Y y 1 0.4318 
02-May-2018_15:14:43 7303 28 male R 6 4 18 moral immoralSelf Y y 1 0.5289 
02-May-2018_15:14:45 7303 28 male R 6 4 19 moral immoralOther Y y 1 0.6126 
02-May-2018_15:14:47 7303 28 male R 6 4 20 moral immoralSelf Y y 1 0.6080 
02-May-2018_15:14:48 7303 28 male R 6 4 21 moral immoralOther Y y 1 0.4769 
02-May-2018_15:14:50 7303 28 male R 6 4 22 moral immoralOther Y y 1 0.3687 
02-May-2018_15:14:51 7303 28 male R 6 4 23 moral moralOther U u 1 0.5279 
02-May-2018_15:14:53 7303 28 male R 6 4 24 moral moralSelf U u 1 0.5052 
02-May-2018_15:14:57 7303 28 male R 6 5 1 moral moralOther U u 1 0.7505 
02-May-2018_15:14:59 7303 28 male R 6 5 2 moral moralOther U u 1 0.4781 
02-May-2018_15:15:01 7303 28 male R 6 5 3 moral immoralOther Y y 1 0.5513 
02-May-2018_15:15:02 7303 28 male R 6 5 4 moral immoralOther Y y 1 0.4432 
02-May-2018_15:15:04 7303 28 male R 6 5 5 moral immoralSelf Y y 1 0.5430 
02-May-2018_15:15:06 7303 28 male R 6 5 6 moral moralOther U u 1 0.7288 
02-May-2018_15:15:07 7303 28 male R 6 5 7 moral moralOther U u 1 0.4183 
02-May-2018_15:15:09 7303 28 male R 6 5 8 moral moralSelf U u 1 0.5698 
02-May-2018_15:15:11 7303 28 male R 6 5 9 moral immoralSelf Y y 1 0.4896 
02-May-2018_15:15:12 7303 28 male R 6 5 10 moral immoralSelf Y y 1 0.4765 
02-May-2018_15:15:14 7303 28 male R 6 5 11 moral immoralOther Y y 1 0.4845 
02-May-2018_15:15:16 7303 28 male R 6 5 12 moral immoralSelf Y y 1 0.3730 
02-May-2018_15:15:18 7303 28 male R 6 5 13 moral moralSelf U u 1 0.5392 
02-May-2018_15:15:19 7303 28 male R 6 5 14 moral immoralOther Y y 1 0.5610 
02-May-2018_15:15:21 7303 28 male R 6 5 15 moral immoralSelf Y y 1 0.5832 
02-May-2018_15:15:23 7303 28 male R 6 5 16 moral immoralOther Y y 1 0.4571 
02-May-2018_15:15:25 7303 28 male R 6 5 17 moral moralOther U u 1 0.6101 
02-May-2018_15:15:27 7303 28 male R 6 5 18 moral immoralSelf Y y 1 0.5886 
02-May-2018_15:15:29 7303 28 male R 6 5 19 moral moralSelf U u 1 0.5462 
02-May-2018_15:15:30 7303 28 male R 6 5 20 moral moralSelf U u 1 0.5412 
02-May-2018_15:15:32 7303 28 male R 6 5 21 moral moralSelf U u 1 0.5718 
02-May-2018_15:15:34 7303 28 male R 6 5 22 moral immoralOther Y y 1 0.8938 
02-May-2018_15:15:36 7303 28 male R 6 5 23 moral moralOther U u 1 0.7028 
02-May-2018_15:15:38 7303 28 male R 6 5 24 moral moralSelf U u 1 0.3721 
