Date Sub Age Sex Hand Block Bin Trial Task Shape corrResp Resp ACC RT
31-May-2018_13:57:07 7334 25 female R 1 1 1 self immoralSelf H NA -1 1.0841 
31-May-2018_13:57:09 7334 25 female R 1 1 2 self moralOther J NA -1 1.0841 
31-May-2018_13:57:12 7334 25 female R 1 1 3 self immoralSelf H NA -1 1.0841 
31-May-2018_13:57:14 7334 25 female R 1 1 4 self moralSelf H NA -1 1.0841 
31-May-2018_13:57:16 7334 25 female R 1 1 5 self moralOther J h 0 1.0017 
31-May-2018_13:57:19 7334 25 female R 1 1 6 self immoralOther J j 1 0.8786 
31-May-2018_13:57:21 7334 25 female R 1 1 7 self moralSelf H NA -1 1.0841 
31-May-2018_13:57:23 7334 25 female R 1 1 8 self moralOther J h 0 0.4995 
31-May-2018_13:57:25 7334 25 female R 1 1 9 self moralSelf H h 1 0.5703 
31-May-2018_13:57:27 7334 25 female R 1 1 10 self immoralOther J j 1 1.0493 
31-May-2018_13:57:29 7334 25 female R 1 1 11 self immoralSelf H j 0 0.6531 
31-May-2018_13:57:31 7334 25 female R 1 1 12 self moralOther J h 0 0.6532 
31-May-2018_13:57:33 7334 25 female R 1 1 13 self immoralOther J j 1 0.9008 
31-May-2018_13:57:35 7334 25 female R 1 1 14 self moralSelf H h 1 0.5941 
31-May-2018_13:57:37 7334 25 female R 1 1 15 self immoralOther J j 1 0.7326 
31-May-2018_13:57:39 7334 25 female R 1 1 16 self moralOther J h 0 0.4973 
31-May-2018_13:57:40 7334 25 female R 1 1 17 self moralOther J h 0 0.4941 
31-May-2018_13:57:42 7334 25 female R 1 1 18 self immoralOther J j 1 0.6047 
31-May-2018_13:57:44 7334 25 female R 1 1 19 self immoralSelf H j 0 0.8805 
31-May-2018_13:57:46 7334 25 female R 1 1 20 self immoralOther J j 1 0.6911 
31-May-2018_13:57:48 7334 25 female R 1 1 21 self moralSelf H h 1 0.7518 
31-May-2018_13:57:50 7334 25 female R 1 1 22 self immoralSelf H j 0 0.5345 
31-May-2018_13:57:52 7334 25 female R 1 1 23 self immoralSelf H j 0 0.5100 
31-May-2018_13:57:54 7334 25 female R 1 1 24 self moralSelf H h 1 0.9473 
31-May-2018_13:57:56 7334 25 female R 1 2 1 self immoralOther J j 1 0.8100 
31-May-2018_13:57:58 7334 25 female R 1 2 2 self immoralOther J j 1 0.9851 
31-May-2018_13:58:00 7334 25 female R 1 2 3 self moralSelf H h 1 0.8116 
31-May-2018_13:58:02 7334 25 female R 1 2 4 self immoralSelf H j 0 0.6601 
31-May-2018_13:58:04 7334 25 female R 1 2 5 self moralSelf H h 1 0.6267 
31-May-2018_13:58:06 7334 25 female R 1 2 6 self immoralSelf H j 0 0.6983 
31-May-2018_13:58:07 7334 25 female R 1 2 7 self immoralOther J j 1 0.7352 
31-May-2018_13:58:09 7334 25 female R 1 2 8 self moralOther J h 0 0.4614 
31-May-2018_13:58:11 7334 25 female R 1 2 9 self moralSelf H NA -1 1.0841 
31-May-2018_13:58:13 7334 25 female R 1 2 10 self moralOther J h 0 0.6140 
31-May-2018_13:58:15 7334 25 female R 1 2 11 self immoralSelf H j 0 0.5398 
31-May-2018_13:58:17 7334 25 female R 1 2 12 self immoralSelf H j 0 0.5717 
31-May-2018_13:58:19 7334 25 female R 1 2 13 self immoralSelf H j 0 0.5644 
31-May-2018_13:58:20 7334 25 female R 1 2 14 self moralOther J h 0 0.5013 
31-May-2018_13:58:22 7334 25 female R 1 2 15 self immoralSelf H j 0 0.7316 
31-May-2018_13:58:24 7334 25 female R 1 2 16 self immoralOther J j 1 0.7428 
31-May-2018_13:58:26 7334 25 female R 1 2 17 self moralSelf H h 1 0.6135 
31-May-2018_13:58:28 7334 25 female R 1 2 18 self moralSelf H h 1 0.5017 
31-May-2018_13:58:30 7334 25 female R 1 2 19 self immoralOther J j 1 1.0117 
31-May-2018_13:58:32 7334 25 female R 1 2 20 self moralOther J h 0 0.7178 
31-May-2018_13:58:35 7334 25 female R 1 2 21 self moralOther J h 0 0.8152 
31-May-2018_13:58:36 7334 25 female R 1 2 22 self moralSelf H h 1 0.6328 
31-May-2018_13:58:38 7334 25 female R 1 2 23 self moralOther J h 0 0.6225 
31-May-2018_13:58:40 7334 25 female R 1 2 24 self immoralOther J j 1 0.6423 
31-May-2018_13:59:07 7334 25 female R 1 3 1 self moralOther J h 0 0.6933 
31-May-2018_13:59:09 7334 25 female R 1 3 2 self moralSelf H h 1 0.7555 
31-May-2018_13:59:11 7334 25 female R 1 3 3 self immoralSelf H h 1 0.5067 
31-May-2018_13:59:13 7334 25 female R 1 3 4 self immoralSelf H h 1 0.4799 
31-May-2018_13:59:15 7334 25 female R 1 3 5 self immoralSelf H NA -1 1.0841 
31-May-2018_13:59:17 7334 25 female R 1 3 6 self moralSelf H h 1 0.5774 
31-May-2018_13:59:19 7334 25 female R 1 3 7 self moralOther J h 0 0.5869 
31-May-2018_13:59:21 7334 25 female R 1 3 8 self immoralOther J j 1 0.9540 
31-May-2018_13:59:23 7334 25 female R 1 3 9 self moralSelf H h 1 0.6949 
31-May-2018_13:59:25 7334 25 female R 1 3 10 self immoralOther J j 1 0.5910 
31-May-2018_13:59:27 7334 25 female R 1 3 11 self immoralOther J j 1 0.5378 
31-May-2018_13:59:29 7334 25 female R 1 3 12 self immoralOther J j 1 0.5247 
31-May-2018_13:59:31 7334 25 female R 1 3 13 self moralSelf H h 1 0.6284 
31-May-2018_13:59:33 7334 25 female R 1 3 14 self immoralOther J j 1 0.7113 
31-May-2018_13:59:35 7334 25 female R 1 3 15 self moralSelf H h 1 0.5787 
31-May-2018_13:59:37 7334 25 female R 1 3 16 self moralSelf H h 1 0.4880 
31-May-2018_13:59:39 7334 25 female R 1 3 17 self immoralOther J h 0 0.5755 
31-May-2018_13:59:41 7334 25 female R 1 3 18 self moralOther J j 1 0.9427 
31-May-2018_13:59:43 7334 25 female R 1 3 19 self moralOther J j 1 0.5278 
31-May-2018_13:59:44 7334 25 female R 1 3 20 self moralOther J j 1 0.4389 
31-May-2018_13:59:47 7334 25 female R 1 3 21 self immoralSelf H h 1 0.9763 
31-May-2018_13:59:48 7334 25 female R 1 3 22 self immoralSelf H h 1 0.4587 
31-May-2018_13:59:50 7334 25 female R 1 3 23 self immoralSelf H h 1 0.5374 
31-May-2018_13:59:52 7334 25 female R 1 3 24 self moralOther J j 1 0.7921 
31-May-2018_13:59:54 7334 25 female R 1 4 1 self moralSelf H h 1 0.5376 
31-May-2018_13:59:56 7334 25 female R 1 4 2 self immoralSelf H j 0 0.6455 
31-May-2018_13:59:58 7334 25 female R 1 4 3 self immoralOther J j 1 0.6879 
31-May-2018_14:00:00 7334 25 female R 1 4 4 self immoralSelf H h 1 0.7356 
31-May-2018_14:00:02 7334 25 female R 1 4 5 self immoralOther J j 1 0.6565 
31-May-2018_14:00:04 7334 25 female R 1 4 6 self moralSelf H h 1 0.7436 
31-May-2018_14:00:06 7334 25 female R 1 4 7 self moralSelf H h 1 0.6520 
31-May-2018_14:00:08 7334 25 female R 1 4 8 self immoralSelf H h 1 0.7137 
31-May-2018_14:00:10 7334 25 female R 1 4 9 self moralOther J j 1 0.6422 
31-May-2018_14:00:12 7334 25 female R 1 4 10 self moralSelf H h 1 0.6005 
31-May-2018_14:00:14 7334 25 female R 1 4 11 self immoralSelf H h 1 0.4405 
31-May-2018_14:00:16 7334 25 female R 1 4 12 self immoralOther J j 1 0.8264 
31-May-2018_14:00:18 7334 25 female R 1 4 13 self immoralSelf H h 1 1.0101 
31-May-2018_14:00:20 7334 25 female R 1 4 14 self immoralOther J j 1 0.6534 
31-May-2018_14:00:22 7334 25 female R 1 4 15 self moralSelf H h 1 0.6696 
31-May-2018_14:00:24 7334 25 female R 1 4 16 self immoralSelf H h 1 0.6324 
31-May-2018_14:00:26 7334 25 female R 1 4 17 self moralOther J j 1 0.4376 
31-May-2018_14:00:28 7334 25 female R 1 4 18 self moralOther J j 1 0.8255 
31-May-2018_14:00:30 7334 25 female R 1 4 19 self immoralOther J j 1 0.8416 
31-May-2018_14:00:32 7334 25 female R 1 4 20 self moralOther J j 1 0.5414 
31-May-2018_14:00:34 7334 25 female R 1 4 21 self moralSelf H h 1 0.5976 
31-May-2018_14:00:36 7334 25 female R 1 4 22 self immoralOther J j 1 0.7101 
31-May-2018_14:00:38 7334 25 female R 1 4 23 self moralOther J j 1 0.5445 
31-May-2018_14:00:39 7334 25 female R 1 4 24 self moralOther J j 1 0.4806 
31-May-2018_14:00:49 7334 25 female R 1 5 1 self moralOther J NA -1 1.0841 
31-May-2018_14:00:51 7334 25 female R 1 5 2 self moralSelf H h 1 0.5770 
31-May-2018_14:00:53 7334 25 female R 1 5 3 self immoralOther J j 1 0.7042 
31-May-2018_14:00:55 7334 25 female R 1 5 4 self moralSelf H h 1 0.6506 
31-May-2018_14:00:57 7334 25 female R 1 5 5 self immoralOther J j 1 0.6483 
31-May-2018_14:00:58 7334 25 female R 1 5 6 self immoralOther J j 1 0.5670 
31-May-2018_14:01:00 7334 25 female R 1 5 7 self immoralOther J j 1 0.5073 
31-May-2018_14:01:01 7334 25 female R 1 5 8 self moralSelf H j 0 0.5106 
31-May-2018_14:01:03 7334 25 female R 1 5 9 self moralSelf H h 1 0.4547 
31-May-2018_14:01:05 7334 25 female R 1 5 10 self moralOther J j 1 0.5752 
31-May-2018_14:01:06 7334 25 female R 1 5 11 self moralOther J j 1 0.4901 
31-May-2018_14:01:08 7334 25 female R 1 5 12 self immoralSelf H h 1 0.7923 
31-May-2018_14:01:10 7334 25 female R 1 5 13 self immoralSelf H h 1 0.5698 
31-May-2018_14:01:11 7334 25 female R 1 5 14 self immoralSelf H h 1 0.4103 
31-May-2018_14:01:13 7334 25 female R 1 5 15 self immoralOther J j 1 0.7045 
31-May-2018_14:01:15 7334 25 female R 1 5 16 self moralOther J j 1 0.5414 
31-May-2018_14:01:18 7334 25 female R 1 5 17 self immoralSelf H j 0 0.6571 
31-May-2018_14:01:20 7334 25 female R 1 5 18 self moralOther J NA -1 1.0841 
31-May-2018_14:01:22 7334 25 female R 1 5 19 self immoralSelf H h 1 0.3684 
31-May-2018_14:01:24 7334 25 female R 1 5 20 self moralOther J j 1 0.5981 
31-May-2018_14:01:26 7334 25 female R 1 5 21 self immoralOther J j 1 0.7121 
31-May-2018_14:01:28 7334 25 female R 1 5 22 self moralSelf H h 1 0.6718 
31-May-2018_14:01:29 7334 25 female R 1 5 23 self moralSelf H h 1 0.5287 
31-May-2018_14:01:31 7334 25 female R 1 5 24 self immoralSelf H j 0 0.7641 
Date Sub Age Sex Hand Block Bin Trial Task Shape corrResp Resp ACC RT
31-May-2018_14:04:08 7334 25 female R 2 1 1 moral immoralOther Y y 1 0.9364 
31-May-2018_14:04:10 7334 25 female R 2 1 2 moral immoralOther Y y 1 0.5681 
31-May-2018_14:04:12 7334 25 female R 2 1 3 moral immoralSelf Y u 0 0.9602 
31-May-2018_14:04:14 7334 25 female R 2 1 4 moral moralSelf U u 1 0.9254 
31-May-2018_14:04:16 7334 25 female R 2 1 5 moral moralOther U u 1 0.4243 
31-May-2018_14:04:18 7334 25 female R 2 1 6 moral immoralSelf Y y 1 0.9708 
31-May-2018_14:04:20 7334 25 female R 2 1 7 moral moralOther U NA -1 1.0841 
31-May-2018_14:04:22 7334 25 female R 2 1 8 moral moralOther U u 1 0.6345 
31-May-2018_14:04:24 7334 25 female R 2 1 9 moral immoralSelf Y y 1 0.5832 
31-May-2018_14:04:26 7334 25 female R 2 1 10 moral moralSelf U u 1 0.7433 
31-May-2018_14:04:28 7334 25 female R 2 1 11 moral moralSelf U u 1 0.5772 
31-May-2018_14:04:30 7334 25 female R 2 1 12 moral immoralOther Y y 1 0.8442 
31-May-2018_14:04:32 7334 25 female R 2 1 13 moral immoralSelf Y u 0 0.8240 
31-May-2018_14:04:34 7334 25 female R 2 1 14 moral moralSelf U u 1 0.6185 
31-May-2018_14:04:37 7334 25 female R 2 1 15 moral moralOther U NA -1 1.0841 
31-May-2018_14:04:38 7334 25 female R 2 1 16 moral moralSelf U u 1 0.5712 
31-May-2018_14:04:40 7334 25 female R 2 1 17 moral immoralOther Y y 1 0.8051 
31-May-2018_14:04:43 7334 25 female R 2 1 18 moral moralOther U u 1 0.8051 
31-May-2018_14:04:45 7334 25 female R 2 1 19 moral immoralOther Y y 1 0.7224 
31-May-2018_14:04:47 7334 25 female R 2 1 20 moral immoralSelf Y y 1 0.6458 
31-May-2018_14:04:48 7334 25 female R 2 1 21 moral moralSelf U u 1 0.7470 
31-May-2018_14:04:50 7334 25 female R 2 1 22 moral immoralSelf Y y 1 0.5415 
31-May-2018_14:04:52 7334 25 female R 2 1 23 moral moralOther U u 1 0.5307 
31-May-2018_14:04:54 7334 25 female R 2 1 24 moral immoralOther Y y 1 0.6030 
31-May-2018_14:04:56 7334 25 female R 2 2 1 moral moralSelf U u 1 0.7644 
31-May-2018_14:04:58 7334 25 female R 2 2 2 moral immoralSelf Y y 1 0.5819 
31-May-2018_14:05:00 7334 25 female R 2 2 3 moral moralSelf U u 1 0.5093 
31-May-2018_14:05:01 7334 25 female R 2 2 4 moral moralSelf U u 1 0.4576 
31-May-2018_14:05:03 7334 25 female R 2 2 5 moral immoralSelf Y y 1 0.6831 
31-May-2018_14:05:05 7334 25 female R 2 2 6 moral moralSelf U u 1 0.5684 
31-May-2018_14:05:07 7334 25 female R 2 2 7 moral immoralSelf Y u 0 0.7430 
31-May-2018_14:05:09 7334 25 female R 2 2 8 moral immoralSelf Y y 1 0.4166 
31-May-2018_14:05:11 7334 25 female R 2 2 9 moral immoralOther Y y 1 0.6105 
31-May-2018_14:05:12 7334 25 female R 2 2 10 moral moralOther U u 1 0.4836 
31-May-2018_14:05:14 7334 25 female R 2 2 11 moral moralSelf U u 1 0.4403 
31-May-2018_14:05:16 7334 25 female R 2 2 12 moral moralSelf U u 1 0.5025 
31-May-2018_14:05:18 7334 25 female R 2 2 13 moral immoralOther Y y 1 0.4964 
31-May-2018_14:05:19 7334 25 female R 2 2 14 moral moralOther U u 1 0.4584 
31-May-2018_14:05:21 7334 25 female R 2 2 15 moral immoralSelf Y y 1 0.3498 
31-May-2018_14:05:23 7334 25 female R 2 2 16 moral immoralOther Y y 1 0.5685 
31-May-2018_14:05:25 7334 25 female R 2 2 17 moral immoralOther Y y 1 0.8548 
31-May-2018_14:05:27 7334 25 female R 2 2 18 moral immoralSelf Y y 1 0.5735 
31-May-2018_14:05:29 7334 25 female R 2 2 19 moral moralOther U u 1 0.5185 
31-May-2018_14:05:30 7334 25 female R 2 2 20 moral moralOther U u 1 0.4127 
31-May-2018_14:05:32 7334 25 female R 2 2 21 moral immoralOther Y y 1 0.7022 
31-May-2018_14:05:33 7334 25 female R 2 2 22 moral moralOther U u 1 0.5140 
31-May-2018_14:05:35 7334 25 female R 2 2 23 moral immoralOther Y y 1 0.4986 
31-May-2018_14:05:37 7334 25 female R 2 2 24 moral moralOther U u 1 0.5155 
31-May-2018_14:05:44 7334 25 female R 2 3 1 moral moralSelf U NA -1 1.0841 
31-May-2018_14:05:46 7334 25 female R 2 3 2 moral immoralSelf Y y 1 0.5346 
31-May-2018_14:05:48 7334 25 female R 2 3 3 moral moralSelf U u 1 0.4798 
31-May-2018_14:05:50 7334 25 female R 2 3 4 moral moralOther U u 1 0.7353 
31-May-2018_14:05:52 7334 25 female R 2 3 5 moral moralOther U u 1 0.4602 
31-May-2018_14:05:53 7334 25 female R 2 3 6 moral immoralSelf Y y 1 0.5275 
31-May-2018_14:05:55 7334 25 female R 2 3 7 moral moralSelf U u 1 0.3779 
31-May-2018_14:05:57 7334 25 female R 2 3 8 moral moralSelf U u 1 0.4232 
31-May-2018_14:05:59 7334 25 female R 2 3 9 moral immoralSelf Y y 1 0.6360 
31-May-2018_14:06:00 7334 25 female R 2 3 10 moral moralOther U u 1 0.3599 
31-May-2018_14:06:02 7334 25 female R 2 3 11 moral immoralOther Y y 1 0.5528 
31-May-2018_14:06:03 7334 25 female R 2 3 12 moral moralOther U u 1 0.3562 
31-May-2018_14:06:05 7334 25 female R 2 3 13 moral moralOther U u 1 0.4353 
31-May-2018_14:06:07 7334 25 female R 2 3 14 moral immoralSelf Y y 1 0.5737 
31-May-2018_14:06:08 7334 25 female R 2 3 15 moral moralSelf U u 1 0.4819 
31-May-2018_14:06:10 7334 25 female R 2 3 16 moral immoralOther Y y 1 0.6049 
31-May-2018_14:06:12 7334 25 female R 2 3 17 moral immoralSelf Y y 1 0.9273 
31-May-2018_14:06:14 7334 25 female R 2 3 18 moral immoralSelf Y y 1 0.4624 
31-May-2018_14:06:16 7334 25 female R 2 3 19 moral moralOther U u 1 0.4898 
31-May-2018_14:06:18 7334 25 female R 2 3 20 moral immoralOther Y y 1 0.6118 
31-May-2018_14:06:20 7334 25 female R 2 3 21 moral immoralOther Y y 1 0.7987 
31-May-2018_14:06:21 7334 25 female R 2 3 22 moral moralSelf U u 1 0.4835 
31-May-2018_14:06:23 7334 25 female R 2 3 23 moral immoralOther Y y 1 0.5391 
31-May-2018_14:06:25 7334 25 female R 2 3 24 moral immoralOther Y y 1 0.6949 
31-May-2018_14:06:27 7334 25 female R 2 4 1 moral moralSelf U u 1 0.5660 
31-May-2018_14:06:28 7334 25 female R 2 4 2 moral moralOther U u 1 0.3825 
31-May-2018_14:06:30 7334 25 female R 2 4 3 moral immoralSelf Y y 1 0.4216 
31-May-2018_14:06:32 7334 25 female R 2 4 4 moral moralOther U u 1 0.9677 
31-May-2018_14:06:34 7334 25 female R 2 4 5 moral moralOther U u 1 0.3559 
31-May-2018_14:06:35 7334 25 female R 2 4 6 moral moralSelf U u 1 0.5467 
31-May-2018_14:06:37 7334 25 female R 2 4 7 moral moralOther U u 1 0.4634 
31-May-2018_14:06:39 7334 25 female R 2 4 8 moral immoralOther Y y 1 0.5143 
31-May-2018_14:06:41 7334 25 female R 2 4 9 moral moralSelf U u 1 0.5172 
31-May-2018_14:06:43 7334 25 female R 2 4 10 moral immoralSelf Y y 1 0.4485 
31-May-2018_14:06:44 7334 25 female R 2 4 11 moral immoralOther Y y 1 0.3338 
31-May-2018_14:06:46 7334 25 female R 2 4 12 moral moralOther U u 1 0.5800 
31-May-2018_14:06:48 7334 25 female R 2 4 13 moral immoralSelf Y y 1 0.4883 
31-May-2018_14:06:50 7334 25 female R 2 4 14 moral moralSelf U u 1 0.4578 
31-May-2018_14:06:51 7334 25 female R 2 4 15 moral immoralSelf Y y 1 0.6085 
31-May-2018_14:06:53 7334 25 female R 2 4 16 moral immoralOther Y u 0 0.3822 
31-May-2018_14:06:55 7334 25 female R 2 4 17 moral moralSelf U u 1 0.5328 
31-May-2018_14:06:57 7334 25 female R 2 4 18 moral immoralSelf Y y 1 0.5851 
31-May-2018_14:06:59 7334 25 female R 2 4 19 moral moralOther U u 1 0.5150 
31-May-2018_14:07:00 7334 25 female R 2 4 20 moral immoralOther Y y 1 0.5608 
31-May-2018_14:07:02 7334 25 female R 2 4 21 moral immoralSelf Y y 1 0.5354 
31-May-2018_14:07:04 7334 25 female R 2 4 22 moral moralSelf U u 1 0.5694 
31-May-2018_14:07:06 7334 25 female R 2 4 23 moral immoralOther Y y 1 0.5134 
31-May-2018_14:07:08 7334 25 female R 2 4 24 moral immoralOther Y u 0 0.6492 
31-May-2018_14:07:19 7334 25 female R 2 5 1 moral immoralOther Y y 1 0.9371 
31-May-2018_14:07:21 7334 25 female R 2 5 2 moral immoralSelf Y y 1 0.4764 
31-May-2018_14:07:23 7334 25 female R 2 5 3 moral immoralSelf Y y 1 0.3828 
31-May-2018_14:07:24 7334 25 female R 2 5 4 moral moralSelf U u 1 0.5467 
31-May-2018_14:07:26 7334 25 female R 2 5 5 moral immoralOther Y y 1 0.5265 
31-May-2018_14:07:28 7334 25 female R 2 5 6 moral moralSelf U u 1 0.4014 
31-May-2018_14:07:30 7334 25 female R 2 5 7 moral immoralOther Y y 1 0.4618 
31-May-2018_14:07:31 7334 25 female R 2 5 8 moral moralSelf U u 1 0.3790 
31-May-2018_14:07:33 7334 25 female R 2 5 9 moral moralSelf U u 1 0.3842 
31-May-2018_14:07:35 7334 25 female R 2 5 10 moral immoralSelf Y y 1 0.4153 
31-May-2018_14:07:36 7334 25 female R 2 5 11 moral immoralOther Y u 0 0.4126 
31-May-2018_14:07:38 7334 25 female R 2 5 12 moral moralOther U u 1 0.3524 
31-May-2018_14:07:40 7334 25 female R 2 5 13 moral immoralOther Y y 1 0.3064 
31-May-2018_14:07:41 7334 25 female R 2 5 14 moral moralOther U u 1 0.4387 
31-May-2018_14:07:43 7334 25 female R 2 5 15 moral moralOther U u 1 0.4844 
31-May-2018_14:07:45 7334 25 female R 2 5 16 moral immoralSelf Y y 1 0.4722 
31-May-2018_14:07:47 7334 25 female R 2 5 17 moral moralOther U u 1 0.5222 
31-May-2018_14:07:48 7334 25 female R 2 5 18 moral immoralSelf Y y 1 0.5439 
31-May-2018_14:07:50 7334 25 female R 2 5 19 moral moralOther U u 1 0.4616 
31-May-2018_14:07:52 7334 25 female R 2 5 20 moral moralSelf U u 1 0.6348 
31-May-2018_14:07:54 7334 25 female R 2 5 21 moral immoralOther Y y 1 0.6340 
31-May-2018_14:07:56 7334 25 female R 2 5 22 moral moralSelf U u 1 0.5329 
31-May-2018_14:07:58 7334 25 female R 2 5 23 moral moralOther U u 1 0.8116 
31-May-2018_14:08:00 7334 25 female R 2 5 24 moral immoralSelf Y y 1 0.5302 
Date Sub Age Sex Hand Block Bin Trial Task Shape corrResp Resp ACC RT
31-May-2018_14:10:19 7334 25 female R 3 1 1 self immoralOther J NA -1 1.0841 
31-May-2018_14:10:21 7334 25 female R 3 1 2 self moralSelf H n 2 0.9462 
31-May-2018_14:10:24 7334 25 female R 3 1 3 self immoralSelf H m 2 0.9298 
31-May-2018_14:10:26 7334 25 female R 3 1 4 self moralSelf H NA -1 1.0841 
31-May-2018_14:10:28 7334 25 female R 3 1 5 self immoralSelf H j 0 1.0157 
31-May-2018_14:10:31 7334 25 female R 3 1 6 self moralSelf H NA -1 1.0841 
31-May-2018_14:10:33 7334 25 female R 3 1 7 self immoralOther J h 0 0.6865 
31-May-2018_14:10:35 7334 25 female R 3 1 8 self moralOther J NA -1 1.0841 
31-May-2018_14:10:37 7334 25 female R 3 1 9 self immoralOther J h 0 0.9143 
31-May-2018_14:10:40 7334 25 female R 3 1 10 self moralOther J j 1 0.8311 
31-May-2018_14:10:42 7334 25 female R 3 1 11 self immoralOther J h 0 0.8049 
31-May-2018_14:10:44 7334 25 female R 3 1 12 self moralOther J h 0 0.6271 
31-May-2018_14:10:46 7334 25 female R 3 1 13 self moralSelf H NA -1 1.0841 
31-May-2018_14:10:48 7334 25 female R 3 1 14 self immoralOther J h 0 0.5610 
31-May-2018_14:10:50 7334 25 female R 3 1 15 self immoralSelf H NA -1 1.0841 
31-May-2018_14:10:52 7334 25 female R 3 1 16 self moralOther J h 0 0.8961 
31-May-2018_14:10:54 7334 25 female R 3 1 17 self immoralOther J h 0 0.6666 
31-May-2018_14:10:57 7334 25 female R 3 1 18 self moralOther J NA -1 1.0841 
31-May-2018_14:10:59 7334 25 female R 3 1 19 self moralSelf H j 0 0.5199 
31-May-2018_14:11:01 7334 25 female R 3 1 20 self immoralSelf H NA -1 1.0841 
31-May-2018_14:11:03 7334 25 female R 3 1 21 self moralSelf H j 0 0.7172 
31-May-2018_14:11:05 7334 25 female R 3 1 22 self immoralSelf H h 1 0.6015 
31-May-2018_14:11:07 7334 25 female R 3 1 23 self moralOther J h 0 0.8068 
31-May-2018_14:11:09 7334 25 female R 3 1 24 self immoralSelf H j 0 0.6987 
31-May-2018_14:11:11 7334 25 female R 3 2 1 self moralOther J h 0 0.5525 
31-May-2018_14:11:12 7334 25 female R 3 2 2 self moralSelf H j 0 0.6334 
31-May-2018_14:11:14 7334 25 female R 3 2 3 self immoralOther J h 0 0.5403 
31-May-2018_14:11:16 7334 25 female R 3 2 4 self moralSelf H j 0 0.6444 
31-May-2018_14:11:18 7334 25 female R 3 2 5 self immoralOther J h 0 0.4849 
31-May-2018_14:11:19 7334 25 female R 3 2 6 self immoralOther J h 0 0.5786 
31-May-2018_14:11:21 7334 25 female R 3 2 7 self moralOther J j 1 0.6408 
31-May-2018_14:11:24 7334 25 female R 3 2 8 self moralSelf H j 0 0.9454 
31-May-2018_14:11:26 7334 25 female R 3 2 9 self immoralSelf H j 0 0.6636 
31-May-2018_14:11:28 7334 25 female R 3 2 10 self moralSelf H j 0 0.6613 
31-May-2018_14:11:30 7334 25 female R 3 2 11 self moralSelf H j 0 0.6270 
31-May-2018_14:11:32 7334 25 female R 3 2 12 self immoralSelf H h 1 0.6388 
31-May-2018_14:11:33 7334 25 female R 3 2 13 self moralOther J h 0 0.5028 
31-May-2018_14:11:35 7334 25 female R 3 2 14 self immoralSelf H j 0 0.5105 
31-May-2018_14:11:37 7334 25 female R 3 2 15 self immoralSelf H j 0 0.5082 
31-May-2018_14:11:39 7334 25 female R 3 2 16 self immoralOther J h 0 0.7672 
31-May-2018_14:11:41 7334 25 female R 3 2 17 self moralOther J j 1 0.6990 
31-May-2018_14:11:43 7334 25 female R 3 2 18 self moralOther J j 1 1.0309 
31-May-2018_14:11:46 7334 25 female R 3 2 19 self immoralSelf H NA -1 1.0841 
31-May-2018_14:11:47 7334 25 female R 3 2 20 self moralOther J h 0 0.5431 
31-May-2018_14:11:49 7334 25 female R 3 2 21 self moralSelf H j 0 0.8245 
31-May-2018_14:11:51 7334 25 female R 3 2 22 self immoralSelf H j 0 0.6981 
31-May-2018_14:11:54 7334 25 female R 3 2 23 self immoralOther J NA -1 1.0841 
31-May-2018_14:11:56 7334 25 female R 3 2 24 self immoralOther J h 0 0.4118 
31-May-2018_14:12:13 7334 25 female R 3 3 1 self moralSelf H h 1 0.6126 
31-May-2018_14:12:15 7334 25 female R 3 3 2 self moralOther J j 1 0.8222 
31-May-2018_14:12:16 7334 25 female R 3 3 3 self immoralSelf H h 1 0.5386 
31-May-2018_14:12:18 7334 25 female R 3 3 4 self immoralSelf H h 1 0.4031 
31-May-2018_14:12:20 7334 25 female R 3 3 5 self immoralSelf H h 1 0.3189 
31-May-2018_14:12:21 7334 25 female R 3 3 6 self immoralSelf H h 1 0.3439 
31-May-2018_14:12:23 7334 25 female R 3 3 7 self immoralSelf H h 1 0.3511 
31-May-2018_14:12:25 7334 25 female R 3 3 8 self immoralOther J j 1 0.7378 
31-May-2018_14:12:27 7334 25 female R 3 3 9 self immoralOther J j 1 0.5145 
31-May-2018_14:12:28 7334 25 female R 3 3 10 self moralSelf H h 1 0.4774 
31-May-2018_14:12:30 7334 25 female R 3 3 11 self moralSelf H h 1 0.4392 
31-May-2018_14:12:32 7334 25 female R 3 3 12 self moralSelf H h 1 0.3166 
31-May-2018_14:12:34 7334 25 female R 3 3 13 self moralOther J j 1 0.8144 
31-May-2018_14:12:36 7334 25 female R 3 3 14 self immoralOther J j 1 0.4748 
31-May-2018_14:12:38 7334 25 female R 3 3 15 self moralSelf H h 1 0.8443 
31-May-2018_14:12:40 7334 25 female R 3 3 16 self moralOther J j 1 0.4570 
31-May-2018_14:12:42 7334 25 female R 3 3 17 self moralOther J j 1 0.6275 
31-May-2018_14:12:43 7334 25 female R 3 3 18 self moralOther J j 1 0.5189 
31-May-2018_14:12:45 7334 25 female R 3 3 19 self immoralOther J j 1 0.6070 
31-May-2018_14:12:47 7334 25 female R 3 3 20 self immoralOther J j 1 0.4377 
31-May-2018_14:12:48 7334 25 female R 3 3 21 self immoralOther J j 1 0.4861 
31-May-2018_14:12:50 7334 25 female R 3 3 22 self moralOther J j 1 0.4669 
31-May-2018_14:12:52 7334 25 female R 3 3 23 self moralSelf H h 1 0.6778 
31-May-2018_14:12:54 7334 25 female R 3 3 24 self immoralSelf H h 1 0.6041 
31-May-2018_14:12:56 7334 25 female R 3 4 1 self moralOther J j 1 0.6183 
31-May-2018_14:12:57 7334 25 female R 3 4 2 self moralOther J j 1 0.4988 
31-May-2018_14:12:59 7334 25 female R 3 4 3 self immoralOther J j 1 0.7402 
31-May-2018_14:13:01 7334 25 female R 3 4 4 self immoralOther J j 1 0.4377 
31-May-2018_14:13:03 7334 25 female R 3 4 5 self immoralOther J j 1 0.3861 
31-May-2018_14:13:05 7334 25 female R 3 4 6 self moralSelf H h 1 0.5400 
31-May-2018_14:13:07 7334 25 female R 3 4 7 self immoralSelf H h 1 0.9555 
31-May-2018_14:13:08 7334 25 female R 3 4 8 self moralSelf H h 1 0.4380 
31-May-2018_14:13:10 7334 25 female R 3 4 9 self immoralSelf H h 1 0.3591 
31-May-2018_14:13:12 7334 25 female R 3 4 10 self immoralOther J j 1 0.5671 
31-May-2018_14:13:14 7334 25 female R 3 4 11 self immoralSelf H h 1 0.4769 
31-May-2018_14:13:16 7334 25 female R 3 4 12 self moralSelf H h 1 0.7485 
31-May-2018_14:13:18 7334 25 female R 3 4 13 self moralOther J j 1 0.4658 
31-May-2018_14:13:20 7334 25 female R 3 4 14 self moralOther J j 1 0.5354 
31-May-2018_14:13:21 7334 25 female R 3 4 15 self moralOther J j 1 0.5332 
31-May-2018_14:13:23 7334 25 female R 3 4 16 self immoralSelf H h 1 0.4706 
31-May-2018_14:13:25 7334 25 female R 3 4 17 self moralSelf H h 1 0.6249 
31-May-2018_14:13:27 7334 25 female R 3 4 18 self immoralSelf H h 1 0.5179 
31-May-2018_14:13:28 7334 25 female R 3 4 19 self moralSelf H h 1 0.3626 
31-May-2018_14:13:30 7334 25 female R 3 4 20 self moralOther J j 1 0.5061 
31-May-2018_14:13:32 7334 25 female R 3 4 21 self immoralOther J j 1 0.9217 
31-May-2018_14:13:34 7334 25 female R 3 4 22 self immoralOther J j 1 0.3887 
31-May-2018_14:13:36 7334 25 female R 3 4 23 self immoralSelf H h 1 0.5172 
31-May-2018_14:13:38 7334 25 female R 3 4 24 self moralSelf H h 1 0.4593 
31-May-2018_14:13:55 7334 25 female R 3 5 1 self moralOther J NA -1 1.0841 
31-May-2018_14:13:57 7334 25 female R 3 5 2 self immoralOther J j 1 0.5985 
31-May-2018_14:13:58 7334 25 female R 3 5 3 self moralSelf H h 1 0.6113 
31-May-2018_14:14:00 7334 25 female R 3 5 4 self immoralSelf H j 0 0.6179 
31-May-2018_14:14:02 7334 25 female R 3 5 5 self immoralSelf H h 1 0.4016 
31-May-2018_14:14:04 7334 25 female R 3 5 6 self moralOther J j 1 0.6468 
31-May-2018_14:14:06 7334 25 female R 3 5 7 self moralOther J j 1 0.4836 
31-May-2018_14:14:08 7334 25 female R 3 5 8 self immoralOther J j 1 0.8376 
31-May-2018_14:14:09 7334 25 female R 3 5 9 self immoralOther J j 1 0.4804 
31-May-2018_14:14:11 7334 25 female R 3 5 10 self moralSelf H h 1 0.6000 
31-May-2018_14:14:13 7334 25 female R 3 5 11 self moralOther J j 1 0.5267 
31-May-2018_14:14:15 7334 25 female R 3 5 12 self moralSelf H h 1 0.6406 
31-May-2018_14:14:17 7334 25 female R 3 5 13 self immoralOther J j 1 0.7174 
31-May-2018_14:14:19 7334 25 female R 3 5 14 self moralSelf H h 1 0.5660 
31-May-2018_14:14:21 7334 25 female R 3 5 15 self moralSelf H h 1 0.3675 
31-May-2018_14:14:23 7334 25 female R 3 5 16 self immoralSelf H h 1 0.6616 
31-May-2018_14:14:25 7334 25 female R 3 5 17 self immoralSelf H h 1 0.3639 
31-May-2018_14:14:26 7334 25 female R 3 5 18 self immoralSelf H h 1 0.2995 
31-May-2018_14:14:28 7334 25 female R 3 5 19 self moralSelf H h 1 0.5240 
31-May-2018_14:14:30 7334 25 female R 3 5 20 self immoralOther J j 1 0.3486 
31-May-2018_14:14:32 7334 25 female R 3 5 21 self moralOther J j 1 0.6413 
31-May-2018_14:14:34 7334 25 female R 3 5 22 self moralOther J j 1 0.3478 
31-May-2018_14:14:36 7334 25 female R 3 5 23 self immoralSelf H h 1 0.6221 
31-May-2018_14:14:38 7334 25 female R 3 5 24 self immoralOther J j 1 0.6760 
Date Sub Age Sex Hand Block Bin Trial Task Shape corrResp Resp ACC RT
31-May-2018_14:16:52 7334 25 female R 4 1 1 moral moralOther U NA -1 1.0841 
31-May-2018_14:16:54 7334 25 female R 4 1 2 moral immoralSelf Y y 1 0.8653 
31-May-2018_14:16:56 7334 25 female R 4 1 3 moral immoralOther Y y 1 0.6927 
31-May-2018_14:16:58 7334 25 female R 4 1 4 moral moralSelf U u 1 0.6076 
31-May-2018_14:17:00 7334 25 female R 4 1 5 moral immoralSelf Y y 1 0.8720 
31-May-2018_14:17:02 7334 25 female R 4 1 6 moral moralSelf U u 1 0.6332 
31-May-2018_14:17:04 7334 25 female R 4 1 7 moral moralSelf U u 1 0.4116 
31-May-2018_14:17:06 7334 25 female R 4 1 8 moral immoralSelf Y y 1 0.7091 
31-May-2018_14:17:08 7334 25 female R 4 1 9 moral immoralOther Y y 1 0.7341 
31-May-2018_14:17:10 7334 25 female R 4 1 10 moral moralSelf U u 1 0.6100 
31-May-2018_14:17:12 7334 25 female R 4 1 11 moral immoralOther Y y 1 0.4919 
31-May-2018_14:17:14 7334 25 female R 4 1 12 moral immoralSelf Y y 1 0.9169 
31-May-2018_14:17:16 7334 25 female R 4 1 13 moral moralOther U u 1 0.5575 
31-May-2018_14:17:18 7334 25 female R 4 1 14 moral immoralOther Y y 1 0.5613 
31-May-2018_14:17:20 7334 25 female R 4 1 15 moral moralOther U u 1 0.6559 
31-May-2018_14:17:22 7334 25 female R 4 1 16 moral moralOther U u 1 0.5713 
31-May-2018_14:17:23 7334 25 female R 4 1 17 moral moralOther U u 1 0.4067 
31-May-2018_14:17:25 7334 25 female R 4 1 18 moral immoralOther Y y 1 0.4101 
31-May-2018_14:17:27 7334 25 female R 4 1 19 moral immoralSelf Y y 1 0.7678 
31-May-2018_14:17:28 7334 25 female R 4 1 20 moral moralSelf U u 1 0.5405 
31-May-2018_14:17:30 7334 25 female R 4 1 21 moral immoralOther Y y 1 0.6211 
31-May-2018_14:17:32 7334 25 female R 4 1 22 moral immoralSelf Y y 1 0.5411 
31-May-2018_14:17:34 7334 25 female R 4 1 23 moral moralSelf U u 1 0.6212 
31-May-2018_14:17:36 7334 25 female R 4 1 24 moral moralOther U u 1 0.3951 
31-May-2018_14:17:37 7334 25 female R 4 2 1 moral moralOther U u 1 0.3691 
31-May-2018_14:17:39 7334 25 female R 4 2 2 moral moralOther U u 1 0.3471 
31-May-2018_14:17:40 7334 25 female R 4 2 3 moral immoralSelf Y y 1 0.5608 
31-May-2018_14:17:42 7334 25 female R 4 2 4 moral moralSelf U u 1 0.4653 
31-May-2018_14:17:44 7334 25 female R 4 2 5 moral moralOther U u 1 0.5196 
31-May-2018_14:17:46 7334 25 female R 4 2 6 moral immoralSelf Y y 1 0.4133 
31-May-2018_14:17:48 7334 25 female R 4 2 7 moral immoralOther Y y 1 0.6011 
31-May-2018_14:17:50 7334 25 female R 4 2 8 moral moralOther U u 1 0.3640 
31-May-2018_14:17:51 7334 25 female R 4 2 9 moral moralOther U u 1 0.4087 
31-May-2018_14:17:53 7334 25 female R 4 2 10 moral immoralSelf Y y 1 0.4286 
31-May-2018_14:17:55 7334 25 female R 4 2 11 moral immoralOther Y y 1 0.5200 
31-May-2018_14:17:56 7334 25 female R 4 2 12 moral immoralOther Y y 1 0.4678 
31-May-2018_14:17:58 7334 25 female R 4 2 13 moral moralSelf U u 1 0.5991 
31-May-2018_14:18:00 7334 25 female R 4 2 14 moral moralSelf U u 1 0.3677 
31-May-2018_14:18:01 7334 25 female R 4 2 15 moral immoralSelf Y y 1 0.3729 
31-May-2018_14:18:03 7334 25 female R 4 2 16 moral immoralOther Y y 1 0.5424 
31-May-2018_14:18:05 7334 25 female R 4 2 17 moral moralSelf U u 1 0.6389 
31-May-2018_14:18:07 7334 25 female R 4 2 18 moral moralSelf U u 1 0.4127 
31-May-2018_14:18:08 7334 25 female R 4 2 19 moral moralSelf U u 1 0.4118 
31-May-2018_14:18:10 7334 25 female R 4 2 20 moral moralOther U u 1 0.5154 
31-May-2018_14:18:12 7334 25 female R 4 2 21 moral immoralSelf Y y 1 0.4096 
31-May-2018_14:18:14 7334 25 female R 4 2 22 moral immoralSelf Y y 1 0.3597 
31-May-2018_14:18:16 7334 25 female R 4 2 23 moral immoralOther Y NA -1 1.0841 
31-May-2018_14:18:18 7334 25 female R 4 2 24 moral immoralOther Y y 1 0.4121 
31-May-2018_14:18:25 7334 25 female R 4 3 1 moral moralSelf U u 1 0.8016 
31-May-2018_14:18:26 7334 25 female R 4 3 2 moral moralSelf U u 1 0.3392 
31-May-2018_14:18:28 7334 25 female R 4 3 3 moral moralSelf U u 1 0.3311 
31-May-2018_14:18:30 7334 25 female R 4 3 4 moral moralOther U u 1 0.6169 
31-May-2018_14:18:32 7334 25 female R 4 3 5 moral immoralSelf Y y 1 0.4959 
31-May-2018_14:18:34 7334 25 female R 4 3 6 moral immoralOther Y y 1 0.5954 
31-May-2018_14:18:35 7334 25 female R 4 3 7 moral immoralOther Y y 1 0.2887 
31-May-2018_14:18:37 7334 25 female R 4 3 8 moral moralOther U u 1 0.5164 
31-May-2018_14:18:39 7334 25 female R 4 3 9 moral moralSelf U u 1 0.5613 
31-May-2018_14:18:40 7334 25 female R 4 3 10 moral immoralSelf Y y 1 0.4658 
31-May-2018_14:18:42 7334 25 female R 4 3 11 moral moralSelf U u 1 0.3543 
31-May-2018_14:18:44 7334 25 female R 4 3 12 moral immoralOther Y y 1 0.5577 
31-May-2018_14:18:45 7334 25 female R 4 3 13 moral moralSelf U u 1 0.5413 
31-May-2018_14:18:47 7334 25 female R 4 3 14 moral moralOther U u 1 0.4913 
31-May-2018_14:18:49 7334 25 female R 4 3 15 moral moralOther U u 1 0.4807 
31-May-2018_14:18:50 7334 25 female R 4 3 16 moral moralOther U u 1 0.3476 
31-May-2018_14:18:52 7334 25 female R 4 3 17 moral immoralSelf Y y 1 0.4668 
31-May-2018_14:18:54 7334 25 female R 4 3 18 moral immoralOther Y y 1 0.5952 
31-May-2018_14:18:55 7334 25 female R 4 3 19 moral immoralSelf Y y 1 0.3943 
31-May-2018_14:18:57 7334 25 female R 4 3 20 moral immoralOther Y y 1 0.3755 
31-May-2018_14:18:58 7334 25 female R 4 3 21 moral immoralSelf Y y 1 0.3334 
31-May-2018_14:19:00 7334 25 female R 4 3 22 moral immoralSelf Y y 1 0.3789 
31-May-2018_14:19:01 7334 25 female R 4 3 23 moral moralOther U u 1 0.3724 
31-May-2018_14:19:03 7334 25 female R 4 3 24 moral immoralOther Y y 1 0.5641 
31-May-2018_14:19:04 7334 25 female R 4 4 1 moral immoralSelf Y y 1 0.5185 
31-May-2018_14:19:06 7334 25 female R 4 4 2 moral moralSelf U u 1 0.3740 
31-May-2018_14:19:08 7334 25 female R 4 4 3 moral immoralSelf Y y 1 0.3430 
31-May-2018_14:19:09 7334 25 female R 4 4 4 moral immoralSelf Y y 1 0.3300 
31-May-2018_14:19:11 7334 25 female R 4 4 5 moral moralOther U u 1 0.4364 
31-May-2018_14:19:13 7334 25 female R 4 4 6 moral immoralOther Y y 1 0.5668 
31-May-2018_14:19:15 7334 25 female R 4 4 7 moral immoralSelf Y y 1 0.5664 
31-May-2018_14:19:16 7334 25 female R 4 4 8 moral moralOther U u 1 0.4103 
31-May-2018_14:19:18 7334 25 female R 4 4 9 moral immoralOther Y y 1 0.5407 
31-May-2018_14:19:20 7334 25 female R 4 4 10 moral immoralOther Y y 1 0.3972 
31-May-2018_14:19:22 7334 25 female R 4 4 11 moral moralSelf U u 1 0.3738 
31-May-2018_14:19:23 7334 25 female R 4 4 12 moral moralSelf U u 1 0.4440 
31-May-2018_14:19:25 7334 25 female R 4 4 13 moral moralOther U u 1 0.4775 
31-May-2018_14:19:27 7334 25 female R 4 4 14 moral immoralOther Y u 0 0.4840 
31-May-2018_14:19:29 7334 25 female R 4 4 15 moral immoralSelf Y y 1 0.4992 
31-May-2018_14:19:30 7334 25 female R 4 4 16 moral moralSelf U u 1 0.5148 
31-May-2018_14:19:32 7334 25 female R 4 4 17 moral immoralOther Y y 1 0.5356 
31-May-2018_14:19:35 7334 25 female R 4 4 18 moral moralOther U NA -1 1.0841 
31-May-2018_14:19:37 7334 25 female R 4 4 19 moral moralSelf U u 1 0.5009 
31-May-2018_14:19:38 7334 25 female R 4 4 20 moral immoralSelf Y y 1 0.6031 
31-May-2018_14:19:40 7334 25 female R 4 4 21 moral moralSelf U u 1 0.5203 
31-May-2018_14:19:42 7334 25 female R 4 4 22 moral moralOther U u 1 0.3463 
31-May-2018_14:19:43 7334 25 female R 4 4 23 moral moralOther U u 1 0.3807 
31-May-2018_14:19:45 7334 25 female R 4 4 24 moral immoralOther Y y 1 0.5610 
31-May-2018_14:19:55 7334 25 female R 4 5 1 moral immoralOther Y y 1 0.7289 
31-May-2018_14:19:57 7334 25 female R 4 5 2 moral immoralSelf Y y 1 0.4603 
31-May-2018_14:19:59 7334 25 female R 4 5 3 moral moralOther U u 1 0.3493 
31-May-2018_14:20:00 7334 25 female R 4 5 4 moral immoralSelf Y y 1 0.4355 
31-May-2018_14:20:02 7334 25 female R 4 5 5 moral moralSelf U u 1 0.3546 
31-May-2018_14:20:04 7334 25 female R 4 5 6 moral moralSelf U u 1 0.5848 
31-May-2018_14:20:06 7334 25 female R 4 5 7 moral moralOther U u 1 0.4983 
31-May-2018_14:20:07 7334 25 female R 4 5 8 moral immoralSelf Y y 1 0.4772 
31-May-2018_14:20:09 7334 25 female R 4 5 9 moral moralOther U u 1 0.3605 
31-May-2018_14:20:11 7334 25 female R 4 5 10 moral immoralOther Y y 1 0.3931 
31-May-2018_14:20:12 7334 25 female R 4 5 11 moral immoralOther Y y 1 0.4853 
31-May-2018_14:20:14 7334 25 female R 4 5 12 moral moralOther U u 1 0.4548 
31-May-2018_14:20:16 7334 25 female R 4 5 13 moral moralSelf U u 1 0.6531 
31-May-2018_14:20:18 7334 25 female R 4 5 14 moral immoralSelf Y y 1 0.4329 
31-May-2018_14:20:19 7334 25 female R 4 5 15 moral moralSelf U u 1 0.3073 
31-May-2018_14:20:21 7334 25 female R 4 5 16 moral moralOther U u 1 0.3705 
31-May-2018_14:20:22 7334 25 female R 4 5 17 moral moralOther U u 1 0.3207 
31-May-2018_14:20:24 7334 25 female R 4 5 18 moral immoralOther Y y 1 0.4915 
31-May-2018_14:20:26 7334 25 female R 4 5 19 moral moralSelf U u 1 0.3928 
31-May-2018_14:20:28 7334 25 female R 4 5 20 moral immoralSelf Y y 1 0.5448 
31-May-2018_14:20:29 7334 25 female R 4 5 21 moral immoralOther Y u 0 0.4178 
31-May-2018_14:20:31 7334 25 female R 4 5 22 moral moralSelf U u 1 0.4791 
31-May-2018_14:20:33 7334 25 female R 4 5 23 moral immoralSelf Y y 1 0.4510 
31-May-2018_14:20:34 7334 25 female R 4 5 24 moral immoralOther Y y 1 0.2759 
Date Sub Age Sex Hand Block Bin Trial Task Shape corrResp Resp ACC RT
31-May-2018_14:22:51 7334 25 female R 5 1 1 moral moralOther U u 1 0.7273 
31-May-2018_14:22:53 7334 25 female R 5 1 2 moral moralOther U u 1 0.3849 
31-May-2018_14:22:55 7334 25 female R 5 1 3 moral moralSelf U u 1 0.4216 
31-May-2018_14:22:57 7334 25 female R 5 1 4 moral moralSelf U u 1 0.3164 
31-May-2018_14:22:58 7334 25 female R 5 1 5 moral moralSelf U u 1 0.3146 
31-May-2018_14:23:00 7334 25 female R 5 1 6 moral immoralOther Y y 1 0.5188 
31-May-2018_14:23:02 7334 25 female R 5 1 7 moral immoralSelf Y y 1 0.3965 
31-May-2018_14:23:03 7334 25 female R 5 1 8 moral immoralSelf Y y 1 0.2911 
31-May-2018_14:23:05 7334 25 female R 5 1 9 moral immoralSelf Y y 1 0.2422 
31-May-2018_14:23:07 7334 25 female R 5 1 10 moral immoralOther Y y 1 0.6998 
31-May-2018_14:23:08 7334 25 female R 5 1 11 moral immoralOther Y y 1 0.4382 
31-May-2018_14:23:10 7334 25 female R 5 1 12 moral moralSelf U u 1 0.5201 
31-May-2018_14:23:12 7334 25 female R 5 1 13 moral immoralOther Y y 1 0.4596 
31-May-2018_14:23:14 7334 25 female R 5 1 14 moral moralSelf U u 1 0.5532 
31-May-2018_14:23:16 7334 25 female R 5 1 15 moral moralOther U u 1 0.6177 
31-May-2018_14:23:18 7334 25 female R 5 1 16 moral immoralSelf Y y 1 0.6075 
31-May-2018_14:23:20 7334 25 female R 5 1 17 moral moralOther U u 1 0.7173 
31-May-2018_14:23:22 7334 25 female R 5 1 18 moral immoralOther Y y 1 0.9290 
31-May-2018_14:23:24 7334 25 female R 5 1 19 moral moralOther U u 1 0.5499 
31-May-2018_14:23:25 7334 25 female R 5 1 20 moral immoralOther Y y 1 0.3123 
31-May-2018_14:23:27 7334 25 female R 5 1 21 moral moralSelf U u 1 0.4512 
31-May-2018_14:23:29 7334 25 female R 5 1 22 moral immoralSelf Y y 1 0.3929 
31-May-2018_14:23:31 7334 25 female R 5 1 23 moral immoralSelf Y y 1 0.8085 
31-May-2018_14:23:32 7334 25 female R 5 1 24 moral moralOther U u 1 0.4504 
31-May-2018_14:23:35 7334 25 female R 5 2 1 moral immoralOther Y NA -1 1.0841 
31-May-2018_14:23:36 7334 25 female R 5 2 2 moral immoralOther Y y 1 0.3400 
31-May-2018_14:23:38 7334 25 female R 5 2 3 moral moralOther U u 1 0.5048 
31-May-2018_14:23:40 7334 25 female R 5 2 4 moral immoralOther Y y 1 0.7086 
31-May-2018_14:23:42 7334 25 female R 5 2 5 moral moralOther U u 1 0.5463 
31-May-2018_14:23:45 7334 25 female R 5 2 6 moral moralSelf U u 1 0.7243 
31-May-2018_14:23:46 7334 25 female R 5 2 7 moral immoralSelf Y y 1 0.5526 
31-May-2018_14:23:48 7334 25 female R 5 2 8 moral immoralSelf Y y 1 0.4317 
31-May-2018_14:23:50 7334 25 female R 5 2 9 moral immoralSelf Y y 1 0.3467 
31-May-2018_14:23:52 7334 25 female R 5 2 10 moral moralSelf U y 0 0.4714 
31-May-2018_14:23:53 7334 25 female R 5 2 11 moral moralSelf U u 1 0.6579 
31-May-2018_14:23:55 7334 25 female R 5 2 12 moral immoralOther Y y 1 0.4541 
31-May-2018_14:23:57 7334 25 female R 5 2 13 moral moralOther U u 1 0.6693 
31-May-2018_14:23:59 7334 25 female R 5 2 14 moral immoralSelf Y y 1 0.4547 
31-May-2018_14:24:01 7334 25 female R 5 2 15 moral moralOther U u 1 0.3969 
31-May-2018_14:24:03 7334 25 female R 5 2 16 moral moralSelf U NA -1 1.0841 
31-May-2018_14:24:05 7334 25 female R 5 2 17 moral immoralSelf Y NA -1 1.0841 
31-May-2018_14:24:07 7334 25 female R 5 2 18 moral immoralSelf Y y 1 0.5041 
31-May-2018_14:24:09 7334 25 female R 5 2 19 moral moralSelf U u 1 0.6485 
31-May-2018_14:24:11 7334 25 female R 5 2 20 moral immoralOther Y y 1 0.7978 
31-May-2018_14:24:13 7334 25 female R 5 2 21 moral moralOther U u 1 0.5146 
31-May-2018_14:24:15 7334 25 female R 5 2 22 moral immoralOther Y NA -1 1.0841 
31-May-2018_14:24:17 7334 25 female R 5 2 23 moral moralSelf U u 1 0.8992 
31-May-2018_14:24:19 7334 25 female R 5 2 24 moral moralOther U u 1 0.5633 
31-May-2018_14:24:27 7334 25 female R 5 3 1 moral immoralSelf Y y 1 0.5231 
31-May-2018_14:24:28 7334 25 female R 5 3 2 moral immoralSelf Y y 1 0.4263 
31-May-2018_14:24:30 7334 25 female R 5 3 3 moral moralOther U u 1 0.6258 
31-May-2018_14:24:32 7334 25 female R 5 3 4 moral moralSelf U u 1 0.4966 
31-May-2018_14:24:34 7334 25 female R 5 3 5 moral immoralOther Y y 1 0.5168 
31-May-2018_14:24:35 7334 25 female R 5 3 6 moral immoralSelf Y y 1 0.4981 
31-May-2018_14:24:37 7334 25 female R 5 3 7 moral moralSelf U u 1 0.7377 
31-May-2018_14:24:40 7334 25 female R 5 3 8 moral moralOther U u 1 0.7819 
31-May-2018_14:24:42 7334 25 female R 5 3 9 moral immoralOther Y y 1 0.4941 
31-May-2018_14:24:43 7334 25 female R 5 3 10 moral moralOther U u 1 0.3888 
31-May-2018_14:24:45 7334 25 female R 5 3 11 moral immoralOther Y y 1 0.5653 
31-May-2018_14:24:47 7334 25 female R 5 3 12 moral immoralSelf Y y 1 0.5630 
31-May-2018_14:24:49 7334 25 female R 5 3 13 moral moralSelf U u 1 0.6360 
31-May-2018_14:24:50 7334 25 female R 5 3 14 moral moralSelf U u 1 0.3217 
31-May-2018_14:24:52 7334 25 female R 5 3 15 moral moralSelf U u 1 0.4136 
31-May-2018_14:24:54 7334 25 female R 5 3 16 moral immoralOther Y y 1 0.5067 
31-May-2018_14:24:56 7334 25 female R 5 3 17 moral moralSelf U u 1 0.6463 
31-May-2018_14:24:58 7334 25 female R 5 3 18 moral immoralOther Y y 1 0.5338 
31-May-2018_14:24:59 7334 25 female R 5 3 19 moral immoralOther Y y 1 0.4096 
31-May-2018_14:25:01 7334 25 female R 5 3 20 moral moralOther U u 1 0.4789 
31-May-2018_14:25:03 7334 25 female R 5 3 21 moral immoralSelf Y y 1 0.5091 
31-May-2018_14:25:05 7334 25 female R 5 3 22 moral immoralSelf Y y 1 0.4202 
31-May-2018_14:25:06 7334 25 female R 5 3 23 moral moralOther U u 1 0.5129 
31-May-2018_14:25:08 7334 25 female R 5 3 24 moral moralOther U u 1 0.4725 
31-May-2018_14:25:10 7334 25 female R 5 4 1 moral moralOther U u 1 0.5596 
31-May-2018_14:25:12 7334 25 female R 5 4 2 moral moralSelf U u 1 0.6660 
31-May-2018_14:25:14 7334 25 female R 5 4 3 moral moralOther U u 1 0.4351 
31-May-2018_14:25:15 7334 25 female R 5 4 4 moral moralSelf U u 1 0.5091 
31-May-2018_14:25:17 7334 25 female R 5 4 5 moral immoralOther Y y 1 0.4042 
31-May-2018_14:25:18 7334 25 female R 5 4 6 moral moralSelf U u 1 0.4720 
31-May-2018_14:25:20 7334 25 female R 5 4 7 moral moralOther U u 1 0.5017 
31-May-2018_14:25:22 7334 25 female R 5 4 8 moral immoralOther Y y 1 0.6561 
31-May-2018_14:25:24 7334 25 female R 5 4 9 moral moralOther U u 1 0.5508 
31-May-2018_14:25:26 7334 25 female R 5 4 10 moral moralSelf U u 1 0.5260 
31-May-2018_14:25:27 7334 25 female R 5 4 11 moral moralSelf U u 1 0.4229 
31-May-2018_14:25:29 7334 25 female R 5 4 12 moral immoralSelf Y y 1 0.4772 
31-May-2018_14:25:31 7334 25 female R 5 4 13 moral moralSelf U u 1 0.4979 
31-May-2018_14:25:32 7334 25 female R 5 4 14 moral immoralSelf Y y 1 0.8048 
31-May-2018_14:25:34 7334 25 female R 5 4 15 moral immoralSelf Y y 1 0.3460 
31-May-2018_14:25:35 7334 25 female R 5 4 16 moral immoralOther Y y 1 0.4858 
31-May-2018_14:25:37 7334 25 female R 5 4 17 moral moralOther U u 1 0.7160 
31-May-2018_14:25:39 7334 25 female R 5 4 18 moral immoralSelf Y y 1 0.4159 
31-May-2018_14:25:41 7334 25 female R 5 4 19 moral immoralOther Y y 1 0.4969 
31-May-2018_14:25:42 7334 25 female R 5 4 20 moral immoralSelf Y y 1 0.3600 
31-May-2018_14:25:44 7334 25 female R 5 4 21 moral immoralOther Y y 1 0.6189 
31-May-2018_14:25:46 7334 25 female R 5 4 22 moral moralOther U u 1 0.5366 
31-May-2018_14:25:48 7334 25 female R 5 4 23 moral immoralOther Y y 1 0.5771 
31-May-2018_14:25:50 7334 25 female R 5 4 24 moral immoralSelf Y y 1 0.4897 
31-May-2018_14:26:01 7334 25 female R 5 5 1 moral moralSelf U u 1 0.6679 
31-May-2018_14:26:02 7334 25 female R 5 5 2 moral moralSelf U u 1 0.2911 
31-May-2018_14:26:04 7334 25 female R 5 5 3 moral moralOther U u 1 0.4733 
31-May-2018_14:26:05 7334 25 female R 5 5 4 moral immoralSelf Y u 0 0.4122 
31-May-2018_14:26:07 7334 25 female R 5 5 5 moral moralOther U u 1 0.5111 
31-May-2018_14:26:09 7334 25 female R 5 5 6 moral moralSelf U u 1 0.7243 
31-May-2018_14:26:11 7334 25 female R 5 5 7 moral moralOther U u 1 0.4756 
31-May-2018_14:26:13 7334 25 female R 5 5 8 moral moralSelf U u 1 0.6628 
31-May-2018_14:26:15 7334 25 female R 5 5 9 moral immoralSelf Y y 1 0.3585 
31-May-2018_14:26:17 7334 25 female R 5 5 10 moral immoralOther Y y 1 0.5576 
31-May-2018_14:26:18 7334 25 female R 5 5 11 moral immoralOther Y y 1 0.5308 
31-May-2018_14:26:20 7334 25 female R 5 5 12 moral moralOther U u 1 0.5257 
31-May-2018_14:26:22 7334 25 female R 5 5 13 moral immoralOther Y y 1 0.4415 
31-May-2018_14:26:24 7334 25 female R 5 5 14 moral immoralOther Y y 1 0.4915 
31-May-2018_14:26:26 7334 25 female R 5 5 15 moral immoralSelf Y y 1 0.5363 
31-May-2018_14:26:27 7334 25 female R 5 5 16 moral immoralOther Y y 1 0.4268 
31-May-2018_14:26:29 7334 25 female R 5 5 17 moral immoralSelf Y y 1 0.5267 
31-May-2018_14:26:31 7334 25 female R 5 5 18 moral immoralSelf Y y 1 0.4024 
31-May-2018_14:26:33 7334 25 female R 5 5 19 moral moralOther U u 1 0.7949 
31-May-2018_14:26:35 7334 25 female R 5 5 20 moral immoralOther Y y 1 0.5230 
31-May-2018_14:26:36 7334 25 female R 5 5 21 moral moralSelf U u 1 0.6455 
31-May-2018_14:26:38 7334 25 female R 5 5 22 moral moralOther U u 1 0.4526 
31-May-2018_14:26:40 7334 25 female R 5 5 23 moral moralSelf U u 1 0.8548 
31-May-2018_14:26:42 7334 25 female R 5 5 24 moral immoralSelf Y y 1 0.4255 
Date Sub Age Sex Hand Block Bin Trial Task Shape corrResp Resp ACC RT
31-May-2018_14:28:56 7334 25 female R 6 1 1 self immoralSelf H h 1 0.7459 
31-May-2018_14:28:58 7334 25 female R 6 1 2 self moralSelf H h 1 0.4044 
31-May-2018_14:28:59 7334 25 female R 6 1 3 self immoralOther J j 1 0.5719 
31-May-2018_14:29:01 7334 25 female R 6 1 4 self moralOther J j 1 0.3527 
31-May-2018_14:29:03 7334 25 female R 6 1 5 self moralSelf H h 1 0.6121 
31-May-2018_14:29:05 7334 25 female R 6 1 6 self moralSelf H h 1 0.4908 
31-May-2018_14:29:06 7334 25 female R 6 1 7 self moralSelf H h 1 0.3196 
31-May-2018_14:29:08 7334 25 female R 6 1 8 self immoralSelf H j 0 0.6226 
31-May-2018_14:29:10 7334 25 female R 6 1 9 self moralOther J j 1 0.6034 
31-May-2018_14:29:12 7334 25 female R 6 1 10 self moralSelf H h 1 0.5306 
31-May-2018_14:29:14 7334 25 female R 6 1 11 self immoralOther J j 1 0.9749 
31-May-2018_14:29:16 7334 25 female R 6 1 12 self moralOther J j 1 0.3717 
31-May-2018_14:29:18 7334 25 female R 6 1 13 self immoralSelf H h 1 0.7925 
31-May-2018_14:29:20 7334 25 female R 6 1 14 self immoralOther J h 0 0.9658 
31-May-2018_14:29:22 7334 25 female R 6 1 15 self moralOther J j 1 0.5314 
31-May-2018_14:29:24 7334 25 female R 6 1 16 self moralOther J j 1 0.3775 
31-May-2018_14:29:26 7334 25 female R 6 1 17 self immoralSelf H h 1 0.7904 
31-May-2018_14:29:27 7334 25 female R 6 1 18 self immoralOther J j 1 0.5750 
31-May-2018_14:29:29 7334 25 female R 6 1 19 self immoralOther J j 1 0.7242 
31-May-2018_14:29:31 7334 25 female R 6 1 20 self immoralSelf H h 1 0.5666 
31-May-2018_14:29:33 7334 25 female R 6 1 21 self immoralSelf H h 1 0.3686 
31-May-2018_14:29:35 7334 25 female R 6 1 22 self moralOther J j 1 0.5744 
31-May-2018_14:29:37 7334 25 female R 6 1 23 self moralSelf H h 1 0.4953 
31-May-2018_14:29:39 7334 25 female R 6 1 24 self immoralOther J j 1 0.6314 
31-May-2018_14:29:41 7334 25 female R 6 2 1 self immoralSelf H h 1 0.5985 
31-May-2018_14:29:42 7334 25 female R 6 2 2 self moralSelf H h 1 0.5157 
31-May-2018_14:29:44 7334 25 female R 6 2 3 self moralOther J j 1 0.5351 
31-May-2018_14:29:46 7334 25 female R 6 2 4 self immoralOther J j 1 0.5550 
31-May-2018_14:29:48 7334 25 female R 6 2 5 self immoralOther J j 1 0.5574 
31-May-2018_14:29:50 7334 25 female R 6 2 6 self moralSelf H h 1 0.7076 
31-May-2018_14:29:51 7334 25 female R 6 2 7 self moralSelf H h 1 0.3962 
31-May-2018_14:29:53 7334 25 female R 6 2 8 self immoralOther J j 1 0.6649 
31-May-2018_14:29:55 7334 25 female R 6 2 9 self immoralOther J h 0 0.9500 
31-May-2018_14:29:57 7334 25 female R 6 2 10 self immoralSelf H h 1 0.5041 
31-May-2018_14:29:59 7334 25 female R 6 2 11 self moralOther J h 0 0.7480 
31-May-2018_14:30:01 7334 25 female R 6 2 12 self moralSelf H h 1 0.7174 
31-May-2018_14:30:03 7334 25 female R 6 2 13 self moralOther J j 1 0.5430 
31-May-2018_14:30:05 7334 25 female R 6 2 14 self immoralOther J h 0 0.4842 
31-May-2018_14:30:06 7334 25 female R 6 2 15 self immoralOther J j 1 0.4707 
31-May-2018_14:30:08 7334 25 female R 6 2 16 self immoralSelf H h 1 0.5445 
31-May-2018_14:30:10 7334 25 female R 6 2 17 self moralOther J j 1 0.5644 
31-May-2018_14:30:12 7334 25 female R 6 2 18 self immoralSelf H h 1 0.4821 
31-May-2018_14:30:13 7334 25 female R 6 2 19 self moralSelf H h 1 0.4822 
31-May-2018_14:30:15 7334 25 female R 6 2 20 self immoralSelf H j 0 0.4413 
31-May-2018_14:30:17 7334 25 female R 6 2 21 self moralOther J j 1 0.8230 
31-May-2018_14:30:19 7334 25 female R 6 2 22 self immoralSelf H h 1 0.5045 
31-May-2018_14:30:21 7334 25 female R 6 2 23 self moralSelf H h 1 0.4755 
31-May-2018_14:30:22 7334 25 female R 6 2 24 self moralOther J j 1 0.5107 
31-May-2018_14:30:29 7334 25 female R 6 3 1 self immoralOther J j 1 0.6371 
31-May-2018_14:30:31 7334 25 female R 6 3 2 self immoralSelf H h 1 0.5205 
31-May-2018_14:30:32 7334 25 female R 6 3 3 self moralOther J j 1 0.4806 
31-May-2018_14:30:34 7334 25 female R 6 3 4 self moralSelf H h 1 0.6473 
31-May-2018_14:30:37 7334 25 female R 6 3 5 self immoralSelf H h 1 0.6910 
31-May-2018_14:30:38 7334 25 female R 6 3 6 self immoralSelf H h 1 0.3415 
31-May-2018_14:30:40 7334 25 female R 6 3 7 self moralSelf H h 1 0.4437 
31-May-2018_14:30:42 7334 25 female R 6 3 8 self moralOther J j 1 0.6047 
31-May-2018_14:30:44 7334 25 female R 6 3 9 self moralOther J j 1 0.5619 
31-May-2018_14:30:45 7334 25 female R 6 3 10 self immoralSelf H j 0 0.4006 
31-May-2018_14:30:47 7334 25 female R 6 3 11 self immoralSelf H h 1 0.3113 
31-May-2018_14:30:48 7334 25 female R 6 3 12 self immoralSelf H h 1 0.3974 
31-May-2018_14:30:50 7334 25 female R 6 3 13 self moralOther J j 1 0.5048 
31-May-2018_14:30:52 7334 25 female R 6 3 14 self moralSelf H h 1 0.4140 
31-May-2018_14:30:54 7334 25 female R 6 3 15 self immoralOther J j 1 0.7629 
31-May-2018_14:30:55 7334 25 female R 6 3 16 self moralSelf H h 1 0.5582 
31-May-2018_14:30:57 7334 25 female R 6 3 17 self immoralOther J j 1 0.7300 
31-May-2018_14:30:59 7334 25 female R 6 3 18 self moralSelf H h 1 0.7079 
31-May-2018_14:31:01 7334 25 female R 6 3 19 self moralOther J j 1 0.6535 
31-May-2018_14:31:03 7334 25 female R 6 3 20 self moralOther J j 1 0.4333 
31-May-2018_14:31:05 7334 25 female R 6 3 21 self moralSelf H h 1 0.4917 
31-May-2018_14:31:07 7334 25 female R 6 3 22 self immoralOther J j 1 0.6145 
31-May-2018_14:31:08 7334 25 female R 6 3 23 self immoralOther J j 1 0.5351 
31-May-2018_14:31:10 7334 25 female R 6 3 24 self immoralOther J j 1 0.3630 
31-May-2018_14:31:12 7334 25 female R 6 4 1 self immoralSelf H h 1 0.4482 
31-May-2018_14:31:13 7334 25 female R 6 4 2 self moralOther J j 1 0.5104 
31-May-2018_14:31:16 7334 25 female R 6 4 3 self immoralOther J j 1 0.7410 
31-May-2018_14:31:17 7334 25 female R 6 4 4 self moralSelf H h 1 0.4207 
31-May-2018_14:31:19 7334 25 female R 6 4 5 self immoralOther J j 1 0.5322 
31-May-2018_14:31:21 7334 25 female R 6 4 6 self moralSelf H h 1 0.4457 
31-May-2018_14:31:23 7334 25 female R 6 4 7 self moralSelf H h 1 0.8360 
31-May-2018_14:31:25 7334 25 female R 6 4 8 self immoralSelf H h 1 0.9843 
31-May-2018_14:31:26 7334 25 female R 6 4 9 self moralSelf H h 1 0.4262 
31-May-2018_14:31:28 7334 25 female R 6 4 10 self immoralOther J h 0 0.3571 
31-May-2018_14:31:30 7334 25 female R 6 4 11 self moralOther J j 1 0.3703 
31-May-2018_14:31:32 7334 25 female R 6 4 12 self moralOther J j 1 0.4118 
31-May-2018_14:31:34 7334 25 female R 6 4 13 self immoralSelf H h 1 0.5794 
31-May-2018_14:31:36 7334 25 female R 6 4 14 self immoralOther J j 1 0.6129 
31-May-2018_14:31:37 7334 25 female R 6 4 15 self immoralSelf H h 1 0.6224 
31-May-2018_14:31:39 7334 25 female R 6 4 16 self moralSelf H h 1 0.3891 
31-May-2018_14:31:41 7334 25 female R 6 4 17 self moralSelf H h 1 0.4771 
31-May-2018_14:31:42 7334 25 female R 6 4 18 self immoralOther J j 1 0.3581 
31-May-2018_14:31:44 7334 25 female R 6 4 19 self immoralOther J j 1 0.3422 
31-May-2018_14:31:45 7334 25 female R 6 4 20 self immoralSelf H h 1 0.4665 
31-May-2018_14:31:47 7334 25 female R 6 4 21 self moralOther J j 1 0.4844 
31-May-2018_14:31:49 7334 25 female R 6 4 22 self moralOther J j 1 0.6845 
31-May-2018_14:31:51 7334 25 female R 6 4 23 self immoralSelf H h 1 0.6526 
31-May-2018_14:31:53 7334 25 female R 6 4 24 self moralOther J j 1 0.4790 
31-May-2018_14:31:59 7334 25 female R 6 5 1 self immoralSelf H h 1 0.6416 
31-May-2018_14:32:01 7334 25 female R 6 5 2 self moralOther J j 1 0.5672 
31-May-2018_14:32:03 7334 25 female R 6 5 3 self moralSelf H h 1 0.5011 
31-May-2018_14:32:04 7334 25 female R 6 5 4 self immoralSelf H h 1 0.4310 
31-May-2018_14:32:06 7334 25 female R 6 5 5 self immoralSelf H h 1 0.3689 
31-May-2018_14:32:08 7334 25 female R 6 5 6 self immoralSelf H h 1 0.3648 
31-May-2018_14:32:09 7334 25 female R 6 5 7 self immoralOther J j 1 0.4142 
31-May-2018_14:32:11 7334 25 female R 6 5 8 self moralSelf H h 1 0.5959 
31-May-2018_14:32:13 7334 25 female R 6 5 9 self immoralOther J j 1 0.7354 
31-May-2018_14:32:15 7334 25 female R 6 5 10 self immoralSelf H h 1 0.5241 
31-May-2018_14:32:17 7334 25 female R 6 5 11 self moralSelf H h 1 0.5171 
31-May-2018_14:32:19 7334 25 female R 6 5 12 self immoralOther J j 1 0.6296 
31-May-2018_14:32:20 7334 25 female R 6 5 13 self moralSelf H h 1 0.6580 
31-May-2018_14:32:22 7334 25 female R 6 5 14 self moralSelf H h 1 0.5371 
31-May-2018_14:32:24 7334 25 female R 6 5 15 self moralOther J j 1 0.4515 
31-May-2018_14:32:25 7334 25 female R 6 5 16 self immoralOther J j 1 0.4103 
31-May-2018_14:32:27 7334 25 female R 6 5 17 self immoralOther J j 1 0.5472 
31-May-2018_14:32:29 7334 25 female R 6 5 18 self moralOther J j 1 0.4418 
31-May-2018_14:32:30 7334 25 female R 6 5 19 self immoralSelf H h 1 0.5416 
31-May-2018_14:32:32 7334 25 female R 6 5 20 self moralOther J j 1 0.5450 
31-May-2018_14:32:35 7334 25 female R 6 5 21 self immoralOther J j 1 1.0241 
31-May-2018_14:32:36 7334 25 female R 6 5 22 self moralOther J j 1 0.6700 
31-May-2018_14:32:39 7334 25 female R 6 5 23 self moralSelf H h 1 0.6771 
31-May-2018_14:32:40 7334 25 female R 6 5 24 self moralOther J j 1 0.5034 
