Date Sub Age Sex Hand Block Bin Trial Task Shape corrResp Resp ACC RT
06-May-2018_14:59:30 7304 25 female R 1 1 1 self moralSelf H h 1 0.4236 
06-May-2018_14:59:31 7304 25 female R 1 1 2 self immoralOther J j 1 0.5631 
06-May-2018_14:59:33 7304 25 female R 1 1 3 self immoralSelf H h 1 0.7198 
06-May-2018_14:59:35 7304 25 female R 1 1 4 self moralOther J j 1 0.6799 
06-May-2018_14:59:37 7304 25 female R 1 1 5 self moralSelf H h 1 0.3560 
06-May-2018_14:59:39 7304 25 female R 1 1 6 self immoralSelf H h 1 0.7722 
06-May-2018_14:59:41 7304 25 female R 1 1 7 self moralOther J j 1 0.6502 
06-May-2018_14:59:42 7304 25 female R 1 1 8 self immoralSelf H h 1 0.5223 
06-May-2018_14:59:44 7304 25 female R 1 1 9 self moralSelf H h 1 0.3805 
06-May-2018_14:59:45 7304 25 female R 1 1 10 self immoralSelf H j 0 0.3726 
06-May-2018_14:59:47 7304 25 female R 1 1 11 self moralSelf H h 1 0.3727 
06-May-2018_14:59:49 7304 25 female R 1 1 12 self immoralSelf H h 1 0.4308 
06-May-2018_14:59:51 7304 25 female R 1 1 13 self moralOther J h 0 0.3129 
06-May-2018_14:59:52 7304 25 female R 1 1 14 self immoralOther J j 1 0.5648 
06-May-2018_14:59:54 7304 25 female R 1 1 15 self moralOther J j 1 0.8290 
06-May-2018_14:59:56 7304 25 female R 1 1 16 self moralOther J j 1 0.4871 
06-May-2018_14:59:58 7304 25 female R 1 1 17 self immoralOther J j 1 0.4573 
06-May-2018_15:00:00 7304 25 female R 1 1 18 self moralSelf H h 1 0.4353 
06-May-2018_15:00:01 7304 25 female R 1 1 19 self immoralOther J j 1 0.4753 
06-May-2018_15:00:03 7304 25 female R 1 1 20 self immoralSelf H j 0 0.4835 
06-May-2018_15:00:05 7304 25 female R 1 1 21 self immoralOther J j 1 0.5776 
06-May-2018_15:00:07 7304 25 female R 1 1 22 self moralOther J j 1 0.6237 
06-May-2018_15:00:09 7304 25 female R 1 1 23 self immoralOther J j 1 0.5518 
06-May-2018_15:00:10 7304 25 female R 1 1 24 self moralSelf H h 1 0.4720 
06-May-2018_15:00:12 7304 25 female R 1 2 1 self immoralOther J j 1 0.5260 
06-May-2018_15:00:14 7304 25 female R 1 2 2 self immoralOther J j 1 0.4402 
06-May-2018_15:00:15 7304 25 female R 1 2 3 self moralSelf H h 1 0.4182 
06-May-2018_15:00:17 7304 25 female R 1 2 4 self moralSelf H h 1 0.3944 
06-May-2018_15:00:18 7304 25 female R 1 2 5 self immoralSelf H h 1 0.5364 
06-May-2018_15:00:20 7304 25 female R 1 2 6 self immoralOther J j 1 0.4925 
06-May-2018_15:00:22 7304 25 female R 1 2 7 self moralOther J j 1 0.6306 
06-May-2018_15:00:24 7304 25 female R 1 2 8 self moralSelf H h 1 0.3887 
06-May-2018_15:00:26 7304 25 female R 1 2 9 self immoralSelf H h 1 0.6927 
06-May-2018_15:00:28 7304 25 female R 1 2 10 self immoralSelf H h 1 0.5129 
06-May-2018_15:00:29 7304 25 female R 1 2 11 self immoralSelf H h 1 0.3870 
06-May-2018_15:00:31 7304 25 female R 1 2 12 self immoralOther J j 1 0.4351 
06-May-2018_15:00:32 7304 25 female R 1 2 13 self moralSelf H h 1 0.4672 
06-May-2018_15:00:34 7304 25 female R 1 2 14 self moralOther J j 1 0.7713 
06-May-2018_15:00:36 7304 25 female R 1 2 15 self immoralOther J j 1 0.4974 
06-May-2018_15:00:37 7304 25 female R 1 2 16 self moralOther J j 1 0.4394 
06-May-2018_15:00:39 7304 25 female R 1 2 17 self immoralSelf H j 0 0.2515 
06-May-2018_15:00:40 7304 25 female R 1 2 18 self moralSelf H h 1 0.3037 
06-May-2018_15:00:42 7304 25 female R 1 2 19 self immoralOther J j 1 0.5697 
06-May-2018_15:00:44 7304 25 female R 1 2 20 self immoralSelf H h 1 0.5538 
06-May-2018_15:00:45 7304 25 female R 1 2 21 self moralOther J j 1 0.5859 
06-May-2018_15:00:47 7304 25 female R 1 2 22 self moralSelf H h 1 0.5020 
06-May-2018_15:00:49 7304 25 female R 1 2 23 self moralOther J j 1 0.5741 
06-May-2018_15:00:51 7304 25 female R 1 2 24 self moralOther J j 1 0.6162 
06-May-2018_15:01:02 7304 25 female R 1 3 1 self moralSelf H h 1 0.3829 
06-May-2018_15:01:03 7304 25 female R 1 3 2 self immoralSelf H h 1 0.3509 
06-May-2018_15:01:05 7304 25 female R 1 3 3 self moralSelf H h 1 0.4750 
06-May-2018_15:01:06 7304 25 female R 1 3 4 self immoralOther J j 1 0.3872 
06-May-2018_15:01:08 7304 25 female R 1 3 5 self immoralOther J j 1 0.4152 
06-May-2018_15:01:10 7304 25 female R 1 3 6 self moralOther J j 1 0.6053 
06-May-2018_15:01:11 7304 25 female R 1 3 7 self immoralSelf H h 1 0.4153 
06-May-2018_15:01:13 7304 25 female R 1 3 8 self moralOther J j 1 0.4414 
06-May-2018_15:01:14 7304 25 female R 1 3 9 self moralSelf H h 1 0.3816 
06-May-2018_15:01:16 7304 25 female R 1 3 10 self moralSelf H h 1 0.4016 
06-May-2018_15:01:17 7304 25 female R 1 3 11 self immoralSelf H h 1 0.5557 
06-May-2018_15:01:19 7304 25 female R 1 3 12 self moralOther J j 1 0.5178 
06-May-2018_15:01:21 7304 25 female R 1 3 13 self moralOther J j 1 0.2860 
06-May-2018_15:01:22 7304 25 female R 1 3 14 self moralSelf H h 1 0.4640 
06-May-2018_15:01:24 7304 25 female R 1 3 15 self immoralOther J j 1 0.4201 
06-May-2018_15:01:25 7304 25 female R 1 3 16 self immoralOther J j 1 0.5083 
06-May-2018_15:01:27 7304 25 female R 1 3 17 self moralOther J j 1 0.4863 
06-May-2018_15:01:28 7304 25 female R 1 3 18 self immoralOther J j 1 0.3925 
06-May-2018_15:01:30 7304 25 female R 1 3 19 self moralOther J j 1 0.6485 
06-May-2018_15:01:32 7304 25 female R 1 3 20 self immoralSelf H h 1 0.6065 
06-May-2018_15:01:34 7304 25 female R 1 3 21 self immoralSelf H h 1 0.4247 
06-May-2018_15:01:36 7304 25 female R 1 3 22 self moralSelf H h 1 0.4887 
06-May-2018_15:01:38 7304 25 female R 1 3 23 self immoralSelf H h 1 0.5589 
06-May-2018_15:01:39 7304 25 female R 1 3 24 self immoralOther J j 1 0.4830 
06-May-2018_15:01:41 7304 25 female R 1 4 1 self immoralOther J j 1 0.3051 
06-May-2018_15:01:43 7304 25 female R 1 4 2 self moralOther J h 0 0.4651 
06-May-2018_15:01:45 7304 25 female R 1 4 3 self immoralSelf H h 1 0.5713 
06-May-2018_15:01:47 7304 25 female R 1 4 4 self moralOther J j 1 0.4114 
06-May-2018_15:01:48 7304 25 female R 1 4 5 self moralOther J j 1 0.3955 
06-May-2018_15:01:50 7304 25 female R 1 4 6 self immoralSelf H h 1 0.5096 
06-May-2018_15:01:51 7304 25 female R 1 4 7 self immoralOther J j 1 0.3876 
06-May-2018_15:01:53 7304 25 female R 1 4 8 self moralOther J j 1 0.5877 
06-May-2018_15:01:55 7304 25 female R 1 4 9 self moralOther J j 1 0.7158 
06-May-2018_15:01:56 7304 25 female R 1 4 10 self moralSelf H h 1 0.4519 
06-May-2018_15:01:58 7304 25 female R 1 4 11 self immoralSelf H h 1 0.5280 
06-May-2018_15:02:00 7304 25 female R 1 4 12 self immoralOther J j 1 0.3861 
06-May-2018_15:02:02 7304 25 female R 1 4 13 self moralSelf H h 1 0.4142 
06-May-2018_15:02:03 7304 25 female R 1 4 14 self moralSelf H h 1 0.3904 
06-May-2018_15:02:05 7304 25 female R 1 4 15 self moralSelf H h 1 0.4505 
06-May-2018_15:02:07 7304 25 female R 1 4 16 self immoralOther J j 1 0.5245 
06-May-2018_15:02:09 7304 25 female R 1 4 17 self immoralSelf H h 1 0.6327 
06-May-2018_15:02:10 7304 25 female R 1 4 18 self immoralOther J j 1 0.4087 
06-May-2018_15:02:12 7304 25 female R 1 4 19 self immoralSelf H h 1 0.5828 
06-May-2018_15:02:13 7304 25 female R 1 4 20 self moralSelf H h 1 0.4489 
06-May-2018_15:02:15 7304 25 female R 1 4 21 self moralOther J j 1 0.5191 
06-May-2018_15:02:17 7304 25 female R 1 4 22 self moralSelf H h 1 0.4830 
06-May-2018_15:02:19 7304 25 female R 1 4 23 self immoralSelf H h 1 0.5772 
06-May-2018_15:02:21 7304 25 female R 1 4 24 self immoralOther J j 1 0.5033 
06-May-2018_15:02:30 7304 25 female R 1 5 1 self moralSelf H h 1 0.4039 
06-May-2018_15:02:32 7304 25 female R 1 5 2 self immoralOther J j 1 0.3840 
06-May-2018_15:02:34 7304 25 female R 1 5 3 self moralOther J j 1 0.7120 
06-May-2018_15:02:35 7304 25 female R 1 5 4 self immoralSelf H h 1 0.4202 
06-May-2018_15:02:37 7304 25 female R 1 5 5 self immoralOther J j 1 0.4582 
06-May-2018_15:02:39 7304 25 female R 1 5 6 self moralOther J j 1 0.5344 
06-May-2018_15:02:41 7304 25 female R 1 5 7 self immoralSelf H h 1 0.5725 
06-May-2018_15:02:42 7304 25 female R 1 5 8 self moralOther J j 1 0.5606 
06-May-2018_15:02:44 7304 25 female R 1 5 9 self moralOther J j 1 0.5207 
06-May-2018_15:02:46 7304 25 female R 1 5 10 self moralSelf H h 1 0.4067 
06-May-2018_15:02:47 7304 25 female R 1 5 11 self moralOther J j 1 0.5028 
06-May-2018_15:02:49 7304 25 female R 1 5 12 self immoralSelf H h 1 0.5169 
06-May-2018_15:02:51 7304 25 female R 1 5 13 self immoralOther J j 1 0.4130 
06-May-2018_15:02:53 7304 25 female R 1 5 14 self moralSelf H h 1 0.3832 
06-May-2018_15:02:54 7304 25 female R 1 5 15 self immoralOther J j 1 0.3193 
06-May-2018_15:02:56 7304 25 female R 1 5 16 self immoralSelf H h 1 0.6373 
06-May-2018_15:02:57 7304 25 female R 1 5 17 self immoralOther J j 1 0.5195 
06-May-2018_15:03:00 7304 25 female R 1 5 18 self moralOther J j 1 0.5955 
06-May-2018_15:03:01 7304 25 female R 1 5 19 self moralSelf H h 1 0.4277 
06-May-2018_15:03:03 7304 25 female R 1 5 20 self immoralSelf H h 1 0.6057 
06-May-2018_15:03:05 7304 25 female R 1 5 21 self moralSelf H h 1 0.4518 
06-May-2018_15:03:06 7304 25 female R 1 5 22 self moralSelf H h 1 0.3939 
06-May-2018_15:03:08 7304 25 female R 1 5 23 self immoralSelf H h 1 0.5380 
06-May-2018_15:03:10 7304 25 female R 1 5 24 self immoralOther J j 1 0.3742 
Date Sub Age Sex Hand Block Bin Trial Task Shape corrResp Resp ACC RT
06-May-2018_15:05:16 7304 25 female R 2 1 1 moral immoralSelf Y y 1 0.6812 
06-May-2018_15:05:18 7304 25 female R 2 1 2 moral immoralSelf Y NA -1 1.0330 
06-May-2018_15:05:20 7304 25 female R 2 1 3 moral immoralOther Y NA -1 1.0330 
06-May-2018_15:05:23 7304 25 female R 2 1 4 moral moralOther U u 1 0.8496 
06-May-2018_15:05:25 7304 25 female R 2 1 5 moral moralSelf U u 1 0.9578 
06-May-2018_15:05:27 7304 25 female R 2 1 6 moral immoralOther Y y 1 0.5619 
06-May-2018_15:05:28 7304 25 female R 2 1 7 moral moralSelf U u 1 0.6939 
06-May-2018_15:05:30 7304 25 female R 2 1 8 moral immoralOther Y y 1 0.6420 
06-May-2018_15:05:32 7304 25 female R 2 1 9 moral moralOther U u 1 1.0082 
06-May-2018_15:05:34 7304 25 female R 2 1 10 moral immoralOther Y y 1 0.6064 
06-May-2018_15:05:36 7304 25 female R 2 1 11 moral immoralOther Y y 1 0.6124 
06-May-2018_15:05:38 7304 25 female R 2 1 12 moral moralOther U u 1 0.7325 
06-May-2018_15:05:40 7304 25 female R 2 1 13 moral moralOther U u 1 0.5526 
06-May-2018_15:05:42 7304 25 female R 2 1 14 moral moralOther U u 1 0.5547 
06-May-2018_15:05:44 7304 25 female R 2 1 15 moral moralSelf U u 1 0.6868 
06-May-2018_15:05:45 7304 25 female R 2 1 16 moral moralSelf U u 1 0.4810 
06-May-2018_15:05:47 7304 25 female R 2 1 17 moral immoralOther Y y 1 0.4550 
06-May-2018_15:05:49 7304 25 female R 2 1 18 moral immoralSelf Y y 1 0.5851 
06-May-2018_15:05:51 7304 25 female R 2 1 19 moral moralOther U u 1 0.6512 
06-May-2018_15:05:53 7304 25 female R 2 1 20 moral immoralSelf Y y 1 0.8794 
06-May-2018_15:05:55 7304 25 female R 2 1 21 moral moralSelf U u 1 0.6955 
06-May-2018_15:05:57 7304 25 female R 2 1 22 moral immoralSelf Y y 1 0.8316 
06-May-2018_15:05:59 7304 25 female R 2 1 23 moral moralSelf U u 1 0.4357 
06-May-2018_15:06:01 7304 25 female R 2 1 24 moral immoralSelf Y u 0 0.6338 
06-May-2018_15:06:03 7304 25 female R 2 2 1 moral immoralOther Y y 1 0.6160 
06-May-2018_15:06:05 7304 25 female R 2 2 2 moral immoralOther Y y 1 0.4120 
06-May-2018_15:06:07 7304 25 female R 2 2 3 moral moralSelf U u 1 0.6621 
06-May-2018_15:06:09 7304 25 female R 2 2 4 moral immoralSelf Y y 1 0.6402 
06-May-2018_15:06:11 7304 25 female R 2 2 5 moral moralSelf U u 1 0.9424 
06-May-2018_15:06:13 7304 25 female R 2 2 6 moral moralOther U u 1 0.8064 
06-May-2018_15:06:14 7304 25 female R 2 2 7 moral moralOther U u 1 0.4486 
06-May-2018_15:06:16 7304 25 female R 2 2 8 moral immoralSelf Y y 1 0.5707 
06-May-2018_15:06:18 7304 25 female R 2 2 9 moral immoralOther Y y 1 0.6568 
06-May-2018_15:06:20 7304 25 female R 2 2 10 moral moralSelf U u 1 0.5489 
06-May-2018_15:06:22 7304 25 female R 2 2 11 moral immoralOther Y y 1 0.5990 
06-May-2018_15:06:24 7304 25 female R 2 2 12 moral immoralSelf Y y 1 0.7033 
06-May-2018_15:06:25 7304 25 female R 2 2 13 moral moralSelf U u 1 0.4493 
06-May-2018_15:06:27 7304 25 female R 2 2 14 moral moralOther U y 0 0.4993 
06-May-2018_15:06:29 7304 25 female R 2 2 15 moral moralSelf U u 1 0.9054 
06-May-2018_15:06:31 7304 25 female R 2 2 16 moral immoralSelf Y y 1 0.4636 
06-May-2018_15:06:32 7304 25 female R 2 2 17 moral immoralOther Y y 1 0.6456 
06-May-2018_15:06:35 7304 25 female R 2 2 18 moral moralOther U u 1 0.9517 
06-May-2018_15:06:37 7304 25 female R 2 2 19 moral immoralSelf Y y 1 0.6878 
06-May-2018_15:06:39 7304 25 female R 2 2 20 moral moralOther U u 1 0.7700 
06-May-2018_15:06:41 7304 25 female R 2 2 21 moral moralOther U u 1 0.5182 
06-May-2018_15:06:43 7304 25 female R 2 2 22 moral immoralSelf Y y 1 0.6862 
06-May-2018_15:06:44 7304 25 female R 2 2 23 moral moralSelf U u 1 0.4983 
06-May-2018_15:06:46 7304 25 female R 2 2 24 moral immoralOther Y y 1 0.5383 
06-May-2018_15:06:55 7304 25 female R 2 3 1 moral immoralSelf Y y 1 0.5468 
06-May-2018_15:06:56 7304 25 female R 2 3 2 moral immoralOther Y y 1 0.4371 
06-May-2018_15:06:58 7304 25 female R 2 3 3 moral immoralOther Y y 1 0.3531 
06-May-2018_15:06:59 7304 25 female R 2 3 4 moral immoralSelf Y y 1 0.6812 
06-May-2018_15:07:01 7304 25 female R 2 3 5 moral moralSelf U u 1 0.4152 
06-May-2018_15:07:03 7304 25 female R 2 3 6 moral moralSelf U u 1 0.4594 
06-May-2018_15:07:05 7304 25 female R 2 3 7 moral immoralSelf Y y 1 0.5754 
06-May-2018_15:07:07 7304 25 female R 2 3 8 moral moralOther U NA -1 1.0330 
06-May-2018_15:07:09 7304 25 female R 2 3 9 moral immoralOther Y y 1 0.4857 
06-May-2018_15:07:11 7304 25 female R 2 3 10 moral moralSelf U u 1 0.4597 
06-May-2018_15:07:12 7304 25 female R 2 3 11 moral immoralSelf Y y 1 0.4879 
06-May-2018_15:07:14 7304 25 female R 2 3 12 moral immoralOther Y y 1 0.7980 
06-May-2018_15:07:15 7304 25 female R 2 3 13 moral moralSelf U u 1 0.4340 
06-May-2018_15:07:17 7304 25 female R 2 3 14 moral moralOther U u 1 0.6781 
06-May-2018_15:07:19 7304 25 female R 2 3 15 moral immoralSelf Y y 1 0.4763 
06-May-2018_15:07:21 7304 25 female R 2 3 16 moral moralOther U y 0 0.3623 
06-May-2018_15:07:22 7304 25 female R 2 3 17 moral moralSelf U u 1 0.5664 
06-May-2018_15:07:24 7304 25 female R 2 3 18 moral moralOther U u 1 0.6745 
06-May-2018_15:07:26 7304 25 female R 2 3 19 moral moralSelf U u 1 0.5066 
06-May-2018_15:07:28 7304 25 female R 2 3 20 moral immoralOther Y y 1 0.5587 
06-May-2018_15:07:29 7304 25 female R 2 3 21 moral immoralOther Y y 1 0.6028 
06-May-2018_15:07:31 7304 25 female R 2 3 22 moral moralOther U u 1 0.6269 
06-May-2018_15:07:33 7304 25 female R 2 3 23 moral moralOther U u 1 0.4930 
06-May-2018_15:07:35 7304 25 female R 2 3 24 moral immoralSelf Y y 1 0.7991 
06-May-2018_15:07:37 7304 25 female R 2 4 1 moral immoralSelf Y y 1 0.6912 
06-May-2018_15:07:39 7304 25 female R 2 4 2 moral moralOther U u 1 0.8774 
06-May-2018_15:07:41 7304 25 female R 2 4 3 moral immoralSelf Y y 1 0.6215 
06-May-2018_15:07:42 7304 25 female R 2 4 4 moral moralSelf U u 1 0.4755 
06-May-2018_15:07:44 7304 25 female R 2 4 5 moral moralSelf U u 1 0.4158 
06-May-2018_15:07:46 7304 25 female R 2 4 6 moral immoralSelf Y y 1 0.5399 
06-May-2018_15:07:48 7304 25 female R 2 4 7 moral moralOther U u 1 0.5639 
06-May-2018_15:07:50 7304 25 female R 2 4 8 moral immoralOther Y y 1 0.5700 
06-May-2018_15:07:51 7304 25 female R 2 4 9 moral moralOther U u 1 0.6921 
06-May-2018_15:07:53 7304 25 female R 2 4 10 moral moralOther U u 1 0.4903 
06-May-2018_15:07:55 7304 25 female R 2 4 11 moral moralSelf U u 1 0.5283 
06-May-2018_15:07:57 7304 25 female R 2 4 12 moral immoralSelf Y y 1 0.5664 
06-May-2018_15:07:59 7304 25 female R 2 4 13 moral immoralSelf Y y 1 0.5705 
06-May-2018_15:08:00 7304 25 female R 2 4 14 moral immoralSelf Y y 1 0.5126 
06-May-2018_15:08:02 7304 25 female R 2 4 15 moral moralSelf U u 1 0.6326 
06-May-2018_15:08:04 7304 25 female R 2 4 16 moral immoralOther Y y 1 0.5048 
06-May-2018_15:08:06 7304 25 female R 2 4 17 moral moralOther U u 1 0.6889 
06-May-2018_15:08:08 7304 25 female R 2 4 18 moral immoralOther Y y 1 0.6430 
06-May-2018_15:08:09 7304 25 female R 2 4 19 moral moralSelf U u 1 0.4491 
06-May-2018_15:08:11 7304 25 female R 2 4 20 moral immoralOther Y y 1 0.4552 
06-May-2018_15:08:13 7304 25 female R 2 4 21 moral immoralOther Y y 1 0.4954 
06-May-2018_15:08:15 7304 25 female R 2 4 22 moral moralOther U u 1 0.6114 
06-May-2018_15:08:17 7304 25 female R 2 4 23 moral moralSelf U u 1 0.6135 
06-May-2018_15:08:18 7304 25 female R 2 4 24 moral immoralOther Y y 1 0.4537 
06-May-2018_15:08:26 7304 25 female R 2 5 1 moral moralOther U u 1 0.6100 
06-May-2018_15:08:28 7304 25 female R 2 5 2 moral immoralSelf Y y 1 0.7523 
06-May-2018_15:08:30 7304 25 female R 2 5 3 moral immoralOther Y y 1 0.6003 
06-May-2018_15:08:32 7304 25 female R 2 5 4 moral immoralSelf Y u 0 0.7444 
06-May-2018_15:08:34 7304 25 female R 2 5 5 moral moralSelf U u 1 0.5085 
06-May-2018_15:08:36 7304 25 female R 2 5 6 moral moralOther U u 1 0.7606 
06-May-2018_15:08:38 7304 25 female R 2 5 7 moral immoralOther Y y 1 0.5387 
06-May-2018_15:08:40 7304 25 female R 2 5 8 moral moralSelf U u 1 0.4868 
06-May-2018_15:08:41 7304 25 female R 2 5 9 moral immoralOther Y y 1 0.6069 
06-May-2018_15:08:43 7304 25 female R 2 5 10 moral moralSelf U u 1 0.4870 
06-May-2018_15:08:45 7304 25 female R 2 5 11 moral immoralSelf Y y 1 0.4391 
06-May-2018_15:08:47 7304 25 female R 2 5 12 moral immoralSelf Y y 1 0.7113 
06-May-2018_15:08:49 7304 25 female R 2 5 13 moral moralSelf U u 1 0.4113 
06-May-2018_15:08:51 7304 25 female R 2 5 14 moral moralSelf U u 1 0.5674 
06-May-2018_15:08:53 7304 25 female R 2 5 15 moral immoralSelf Y y 1 0.5735 
06-May-2018_15:08:55 7304 25 female R 2 5 16 moral moralOther U u 1 0.7677 
06-May-2018_15:08:56 7304 25 female R 2 5 17 moral immoralOther Y y 1 0.5177 
06-May-2018_15:08:58 7304 25 female R 2 5 18 moral moralSelf U u 1 0.5099 
06-May-2018_15:09:00 7304 25 female R 2 5 19 moral immoralSelf Y y 1 0.6560 
06-May-2018_15:09:02 7304 25 female R 2 5 20 moral moralOther U u 1 0.5981 
06-May-2018_15:09:04 7304 25 female R 2 5 21 moral immoralOther Y y 1 0.5542 
06-May-2018_15:09:06 7304 25 female R 2 5 22 moral moralOther U u 1 0.8843 
06-May-2018_15:09:08 7304 25 female R 2 5 23 moral moralOther U u 1 0.5544 
06-May-2018_15:09:09 7304 25 female R 2 5 24 moral immoralOther Y y 1 0.6286 
Date Sub Age Sex Hand Block Bin Trial Task Shape corrResp Resp ACC RT
06-May-2018_15:11:12 7304 25 female R 3 1 1 self immoralOther J j 1 0.7375 
06-May-2018_15:11:14 7304 25 female R 3 1 2 self moralSelf H h 1 0.6536 
06-May-2018_15:11:16 7304 25 female R 3 1 3 self immoralOther J j 1 0.5777 
06-May-2018_15:11:17 7304 25 female R 3 1 4 self moralSelf H h 1 0.3419 
06-May-2018_15:11:19 7304 25 female R 3 1 5 self immoralOther J j 1 0.3240 
06-May-2018_15:11:20 7304 25 female R 3 1 6 self moralSelf H h 1 0.2560 
06-May-2018_15:11:22 7304 25 female R 3 1 7 self immoralSelf H j 0 0.4761 
06-May-2018_15:11:24 7304 25 female R 3 1 8 self moralOther J j 1 0.8581 
06-May-2018_15:11:26 7304 25 female R 3 1 9 self moralOther J j 1 0.6142 
06-May-2018_15:11:28 7304 25 female R 3 1 10 self moralOther J j 1 0.5164 
06-May-2018_15:11:29 7304 25 female R 3 1 11 self immoralSelf H h 1 0.4425 
06-May-2018_15:11:31 7304 25 female R 3 1 12 self moralOther J j 1 0.7245 
06-May-2018_15:11:33 7304 25 female R 3 1 13 self moralOther J j 1 0.5607 
06-May-2018_15:11:35 7304 25 female R 3 1 14 self immoralSelf H h 1 0.7088 
06-May-2018_15:11:36 7304 25 female R 3 1 15 self immoralOther J j 1 0.4890 
06-May-2018_15:11:38 7304 25 female R 3 1 16 self moralOther J j 1 0.6390 
06-May-2018_15:11:40 7304 25 female R 3 1 17 self immoralSelf H h 1 0.5971 
06-May-2018_15:11:42 7304 25 female R 3 1 18 self moralSelf H h 1 0.3955 
06-May-2018_15:11:43 7304 25 female R 3 1 19 self immoralOther J j 1 0.5113 
06-May-2018_15:11:46 7304 25 female R 3 1 20 self immoralSelf H h 1 0.7914 
06-May-2018_15:11:47 7304 25 female R 3 1 21 self moralSelf H h 1 0.4195 
06-May-2018_15:11:49 7304 25 female R 3 1 22 self moralSelf H h 1 0.4615 
06-May-2018_15:11:50 7304 25 female R 3 1 23 self immoralSelf H h 1 0.6217 
06-May-2018_15:11:52 7304 25 female R 3 1 24 self immoralOther J j 1 0.5517 
06-May-2018_15:11:54 7304 25 female R 3 2 1 self moralSelf H h 1 0.5119 
06-May-2018_15:11:56 7304 25 female R 3 2 2 self immoralSelf H h 1 0.5939 
06-May-2018_15:11:57 7304 25 female R 3 2 3 self immoralOther J j 1 0.6480 
06-May-2018_15:12:00 7304 25 female R 3 2 4 self immoralSelf H h 1 0.7502 
06-May-2018_15:12:01 7304 25 female R 3 2 5 self immoralOther J j 1 0.5183 
06-May-2018_15:12:03 7304 25 female R 3 2 6 self immoralSelf H h 1 0.6824 
06-May-2018_15:12:04 7304 25 female R 3 2 7 self moralOther J j 1 0.5884 
06-May-2018_15:12:06 7304 25 female R 3 2 8 self moralSelf H h 1 0.4286 
06-May-2018_15:12:08 7304 25 female R 3 2 9 self moralSelf H h 1 0.4706 
06-May-2018_15:12:10 7304 25 female R 3 2 10 self moralOther J j 1 0.4567 
06-May-2018_15:12:12 7304 25 female R 3 2 11 self immoralOther J j 1 0.7468 
06-May-2018_15:12:13 7304 25 female R 3 2 12 self moralSelf H h 1 0.3930 
06-May-2018_15:12:15 7304 25 female R 3 2 13 self immoralOther J j 1 0.5290 
06-May-2018_15:12:17 7304 25 female R 3 2 14 self moralSelf H h 1 0.4511 
06-May-2018_15:12:18 7304 25 female R 3 2 15 self immoralOther J j 1 0.5173 
06-May-2018_15:12:20 7304 25 female R 3 2 16 self moralSelf H h 1 0.3974 
06-May-2018_15:12:22 7304 25 female R 3 2 17 self immoralOther J j 1 0.4754 
06-May-2018_15:12:24 7304 25 female R 3 2 18 self immoralSelf H h 1 0.6675 
06-May-2018_15:12:25 7304 25 female R 3 2 19 self immoralSelf H h 1 0.5636 
06-May-2018_15:12:27 7304 25 female R 3 2 20 self moralOther J j 1 0.5937 
06-May-2018_15:12:29 7304 25 female R 3 2 21 self moralOther J j 1 0.5239 
06-May-2018_15:12:31 7304 25 female R 3 2 22 self moralOther J j 1 0.4279 
06-May-2018_15:12:33 7304 25 female R 3 2 23 self immoralSelf H h 1 0.4881 
06-May-2018_15:12:34 7304 25 female R 3 2 24 self moralOther J j 1 0.4922 
06-May-2018_15:12:43 7304 25 female R 3 3 1 self immoralOther J j 1 0.4886 
06-May-2018_15:12:45 7304 25 female R 3 3 2 self immoralSelf H h 1 0.5327 
06-May-2018_15:12:46 7304 25 female R 3 3 3 self moralSelf H h 1 0.4228 
06-May-2018_15:12:48 7304 25 female R 3 3 4 self moralOther J j 1 0.4969 
06-May-2018_15:12:49 7304 25 female R 3 3 5 self moralSelf H h 1 0.3370 
06-May-2018_15:12:51 7304 25 female R 3 3 6 self immoralOther J j 1 0.3571 
06-May-2018_15:12:52 7304 25 female R 3 3 7 self moralSelf H h 1 0.3415 
06-May-2018_15:12:54 7304 25 female R 3 3 8 self moralOther J j 1 0.5553 
06-May-2018_15:12:55 7304 25 female R 3 3 9 self moralOther J j 1 0.4094 
06-May-2018_15:12:57 7304 25 female R 3 3 10 self moralOther J j 1 0.4556 
06-May-2018_15:12:58 7304 25 female R 3 3 11 self immoralSelf H h 1 0.4056 
06-May-2018_15:13:00 7304 25 female R 3 3 12 self immoralOther J j 1 0.4477 
06-May-2018_15:13:02 7304 25 female R 3 3 13 self immoralSelf H h 1 0.5117 
06-May-2018_15:13:03 7304 25 female R 3 3 14 self immoralOther J j 1 0.4879 
06-May-2018_15:13:05 7304 25 female R 3 3 15 self immoralSelf H h 1 0.4199 
06-May-2018_15:13:06 7304 25 female R 3 3 16 self immoralSelf H h 1 0.5400 
06-May-2018_15:13:08 7304 25 female R 3 3 17 self immoralOther J j 1 0.4001 
06-May-2018_15:13:09 7304 25 female R 3 3 18 self immoralOther J j 1 0.3683 
06-May-2018_15:13:11 7304 25 female R 3 3 19 self immoralSelf H h 1 0.3622 
06-May-2018_15:13:13 7304 25 female R 3 3 20 self moralSelf H h 1 0.4283 
06-May-2018_15:13:15 7304 25 female R 3 3 21 self moralOther J j 1 0.8964 
06-May-2018_15:13:16 7304 25 female R 3 3 22 self moralSelf H h 1 0.5065 
06-May-2018_15:13:18 7304 25 female R 3 3 23 self moralSelf H h 1 0.3726 
06-May-2018_15:13:20 7304 25 female R 3 3 24 self moralOther J j 1 0.5187 
06-May-2018_15:13:22 7304 25 female R 3 4 1 self immoralOther J j 1 0.5306 
06-May-2018_15:13:23 7304 25 female R 3 4 2 self moralOther J h 0 0.6069 
06-May-2018_15:13:25 7304 25 female R 3 4 3 self moralOther J j 1 0.5470 
06-May-2018_15:13:27 7304 25 female R 3 4 4 self immoralOther J j 1 0.5391 
06-May-2018_15:13:28 7304 25 female R 3 4 5 self moralSelf H h 1 0.2932 
06-May-2018_15:13:30 7304 25 female R 3 4 6 self immoralOther J j 1 0.3873 
06-May-2018_15:13:32 7304 25 female R 3 4 7 self immoralOther J j 1 0.4674 
06-May-2018_15:13:33 7304 25 female R 3 4 8 self moralSelf H h 1 0.4276 
06-May-2018_15:13:35 7304 25 female R 3 4 9 self moralSelf H h 1 0.3617 
06-May-2018_15:13:36 7304 25 female R 3 4 10 self immoralSelf H j 0 0.4197 
06-May-2018_15:13:38 7304 25 female R 3 4 11 self immoralOther J j 1 0.4839 
06-May-2018_15:13:40 7304 25 female R 3 4 12 self moralOther J h 0 0.4400 
06-May-2018_15:13:42 7304 25 female R 3 4 13 self immoralSelf H h 1 0.5220 
06-May-2018_15:13:43 7304 25 female R 3 4 14 self immoralSelf H h 1 0.4922 
06-May-2018_15:13:45 7304 25 female R 3 4 15 self moralSelf H h 1 0.4422 
06-May-2018_15:13:47 7304 25 female R 3 4 16 self immoralSelf H h 1 0.5943 
06-May-2018_15:13:49 7304 25 female R 3 4 17 self moralSelf H h 1 0.3803 
06-May-2018_15:13:50 7304 25 female R 3 4 18 self moralOther J j 1 0.5805 
06-May-2018_15:13:52 7304 25 female R 3 4 19 self immoralSelf H h 1 0.5086 
06-May-2018_15:13:54 7304 25 female R 3 4 20 self moralSelf H h 1 0.4207 
06-May-2018_15:13:56 7304 25 female R 3 4 21 self immoralOther J NA -1 1.0330 
06-May-2018_15:13:58 7304 25 female R 3 4 22 self moralOther J j 1 0.5489 
06-May-2018_15:13:59 7304 25 female R 3 4 23 self moralOther J j 1 0.5351 
06-May-2018_15:14:01 7304 25 female R 3 4 24 self immoralSelf H h 1 0.4571 
06-May-2018_15:14:06 7304 25 female R 3 5 1 self immoralOther J j 1 0.4614 
06-May-2018_15:14:08 7304 25 female R 3 5 2 self moralSelf H h 1 0.4295 
06-May-2018_15:14:10 7304 25 female R 3 5 3 self immoralSelf H h 1 0.6076 
06-May-2018_15:14:12 7304 25 female R 3 5 4 self immoralOther J j 1 0.5877 
06-May-2018_15:14:14 7304 25 female R 3 5 5 self moralOther J j 1 0.5958 
06-May-2018_15:14:15 7304 25 female R 3 5 6 self immoralSelf H h 1 0.4179 
06-May-2018_15:14:17 7304 25 female R 3 5 7 self immoralOther J j 1 0.4220 
06-May-2018_15:14:19 7304 25 female R 3 5 8 self moralSelf H h 1 0.4321 
06-May-2018_15:14:20 7304 25 female R 3 5 9 self immoralOther J j 1 0.3822 
06-May-2018_15:14:22 7304 25 female R 3 5 10 self moralOther J j 1 0.5803 
06-May-2018_15:14:23 7304 25 female R 3 5 11 self immoralSelf H h 1 0.3924 
06-May-2018_15:14:25 7304 25 female R 3 5 12 self moralOther J j 1 0.4485 
06-May-2018_15:14:27 7304 25 female R 3 5 13 self immoralOther J j 1 0.3926 
06-May-2018_15:14:28 7304 25 female R 3 5 14 self moralOther J j 1 0.5866 
06-May-2018_15:14:30 7304 25 female R 3 5 15 self moralOther J j 1 0.4848 
06-May-2018_15:14:32 7304 25 female R 3 5 16 self immoralSelf H h 1 0.8627 
06-May-2018_15:14:34 7304 25 female R 3 5 17 self immoralSelf H h 1 0.4650 
06-May-2018_15:14:36 7304 25 female R 3 5 18 self moralOther J j 1 0.5291 
06-May-2018_15:14:37 7304 25 female R 3 5 19 self moralSelf H h 1 0.4491 
06-May-2018_15:14:39 7304 25 female R 3 5 20 self moralSelf H h 1 0.4972 
06-May-2018_15:14:41 7304 25 female R 3 5 21 self immoralSelf H h 1 0.6252 
06-May-2018_15:14:42 7304 25 female R 3 5 22 self moralSelf H h 1 0.4994 
06-May-2018_15:14:44 7304 25 female R 3 5 23 self moralSelf H h 1 0.4295 
06-May-2018_15:14:46 7304 25 female R 3 5 24 self immoralOther J j 1 0.4657 
Date Sub Age Sex Hand Block Bin Trial Task Shape corrResp Resp ACC RT
06-May-2018_15:16:49 7304 25 female R 4 1 1 moral moralSelf U u 1 0.4046 
06-May-2018_15:16:51 7304 25 female R 4 1 2 moral moralSelf U u 1 0.4746 
06-May-2018_15:16:52 7304 25 female R 4 1 3 moral moralSelf U u 1 0.3888 
06-May-2018_15:16:54 7304 25 female R 4 1 4 moral immoralOther Y y 1 0.4750 
06-May-2018_15:16:56 7304 25 female R 4 1 5 moral moralOther U u 1 0.8030 
06-May-2018_15:16:58 7304 25 female R 4 1 6 moral moralSelf U u 1 0.4331 
06-May-2018_15:16:59 7304 25 female R 4 1 7 moral moralOther U u 1 0.7094 
06-May-2018_15:17:01 7304 25 female R 4 1 8 moral immoralOther Y y 1 0.4774 
06-May-2018_15:17:03 7304 25 female R 4 1 9 moral moralOther U u 1 0.6994 
06-May-2018_15:17:05 7304 25 female R 4 1 10 moral immoralSelf Y y 1 0.7415 
06-May-2018_15:17:07 7304 25 female R 4 1 11 moral immoralSelf Y u 0 0.6697 
06-May-2018_15:17:09 7304 25 female R 4 1 12 moral immoralOther Y y 1 0.7958 
06-May-2018_15:17:11 7304 25 female R 4 1 13 moral immoralSelf Y NA -1 1.0330 
06-May-2018_15:17:13 7304 25 female R 4 1 14 moral immoralOther Y y 1 0.8159 
06-May-2018_15:17:15 7304 25 female R 4 1 15 moral immoralOther Y y 1 0.4521 
06-May-2018_15:17:17 7304 25 female R 4 1 16 moral moralSelf U u 1 0.5983 
06-May-2018_15:17:19 7304 25 female R 4 1 17 moral immoralSelf Y y 1 0.8184 
06-May-2018_15:17:21 7304 25 female R 4 1 18 moral immoralSelf Y y 1 0.4304 
06-May-2018_15:17:22 7304 25 female R 4 1 19 moral immoralSelf Y y 1 0.4386 
06-May-2018_15:17:24 7304 25 female R 4 1 20 moral moralSelf U u 1 0.4146 
06-May-2018_15:17:25 7304 25 female R 4 1 21 moral immoralOther Y y 1 0.5308 
06-May-2018_15:17:27 7304 25 female R 4 1 22 moral moralOther U y 0 0.5388 
06-May-2018_15:17:29 7304 25 female R 4 1 23 moral moralOther U u 1 0.4649 
06-May-2018_15:17:31 7304 25 female R 4 1 24 moral moralOther U u 1 0.4291 
06-May-2018_15:17:33 7304 25 female R 4 2 1 moral moralSelf U u 1 0.6271 
06-May-2018_15:17:34 7304 25 female R 4 2 2 moral immoralOther Y y 1 0.5452 
06-May-2018_15:17:37 7304 25 female R 4 2 3 moral immoralSelf Y y 1 0.7773 
06-May-2018_15:17:38 7304 25 female R 4 2 4 moral moralSelf U u 1 0.4554 
06-May-2018_15:17:40 7304 25 female R 4 2 5 moral moralOther U u 1 0.7115 
06-May-2018_15:17:42 7304 25 female R 4 2 6 moral immoralOther Y y 1 0.4956 
06-May-2018_15:17:44 7304 25 female R 4 2 7 moral immoralSelf Y y 1 0.7157 
06-May-2018_15:17:46 7304 25 female R 4 2 8 moral moralSelf U u 1 0.4818 
06-May-2018_15:17:47 7304 25 female R 4 2 9 moral moralOther U y 0 0.4900 
06-May-2018_15:17:49 7304 25 female R 4 2 10 moral moralOther U u 1 0.4361 
06-May-2018_15:17:51 7304 25 female R 4 2 11 moral moralSelf U u 1 0.5721 
06-May-2018_15:17:52 7304 25 female R 4 2 12 moral immoralSelf Y y 1 0.7322 
06-May-2018_15:17:54 7304 25 female R 4 2 13 moral moralOther U u 1 0.8543 
06-May-2018_15:17:56 7304 25 female R 4 2 14 moral immoralSelf Y y 1 0.5184 
06-May-2018_15:17:58 7304 25 female R 4 2 15 moral moralSelf U u 1 0.6525 
06-May-2018_15:17:59 7304 25 female R 4 2 16 moral immoralOther Y y 1 0.4763 
06-May-2018_15:18:01 7304 25 female R 4 2 17 moral moralSelf U u 1 0.4627 
06-May-2018_15:18:03 7304 25 female R 4 2 18 moral immoralSelf Y y 1 0.5529 
06-May-2018_15:18:05 7304 25 female R 4 2 19 moral moralOther U u 1 0.7069 
06-May-2018_15:18:07 7304 25 female R 4 2 20 moral immoralOther Y y 1 0.5310 
06-May-2018_15:18:09 7304 25 female R 4 2 21 moral moralOther U u 1 0.5211 
06-May-2018_15:18:10 7304 25 female R 4 2 22 moral immoralSelf Y y 1 0.5472 
06-May-2018_15:18:12 7304 25 female R 4 2 23 moral immoralOther Y y 1 0.5793 
06-May-2018_15:18:14 7304 25 female R 4 2 24 moral immoralOther Y y 1 0.4455 
06-May-2018_15:18:19 7304 25 female R 4 3 1 moral moralSelf U NA -1 1.0330 
06-May-2018_15:18:21 7304 25 female R 4 3 2 moral moralSelf U u 1 0.4038 
06-May-2018_15:18:22 7304 25 female R 4 3 3 moral moralSelf U u 1 0.4819 
06-May-2018_15:18:24 7304 25 female R 4 3 4 moral moralOther U u 1 0.6220 
06-May-2018_15:18:26 7304 25 female R 4 3 5 moral immoralSelf Y y 1 0.2642 
06-May-2018_15:18:28 7304 25 female R 4 3 6 moral immoralSelf Y y 1 0.6482 
06-May-2018_15:18:30 7304 25 female R 4 3 7 moral moralOther U u 1 0.5763 
06-May-2018_15:18:31 7304 25 female R 4 3 8 moral immoralOther Y y 1 0.4545 
06-May-2018_15:18:33 7304 25 female R 4 3 9 moral moralOther U u 1 0.7606 
06-May-2018_15:18:35 7304 25 female R 4 3 10 moral immoralOther Y y 1 0.5626 
06-May-2018_15:18:37 7304 25 female R 4 3 11 moral moralSelf U u 1 0.5688 
06-May-2018_15:18:38 7304 25 female R 4 3 12 moral moralSelf U u 1 0.4728 
06-May-2018_15:18:40 7304 25 female R 4 3 13 moral immoralSelf Y y 1 0.6430 
06-May-2018_15:18:42 7304 25 female R 4 3 14 moral immoralOther Y y 1 0.5730 
06-May-2018_15:18:44 7304 25 female R 4 3 15 moral immoralSelf Y y 1 0.5191 
06-May-2018_15:18:45 7304 25 female R 4 3 16 moral immoralOther Y y 1 0.4012 
06-May-2018_15:18:47 7304 25 female R 4 3 17 moral moralOther U y 0 0.4973 
06-May-2018_15:18:49 7304 25 female R 4 3 18 moral moralOther U u 1 0.5474 
06-May-2018_15:18:50 7304 25 female R 4 3 19 moral moralSelf U u 1 0.4097 
06-May-2018_15:18:52 7304 25 female R 4 3 20 moral moralOther U u 1 0.5236 
06-May-2018_15:18:54 7304 25 female R 4 3 21 moral immoralOther Y y 1 0.4777 
06-May-2018_15:18:55 7304 25 female R 4 3 22 moral immoralSelf Y u 0 0.6418 
06-May-2018_15:18:57 7304 25 female R 4 3 23 moral immoralSelf Y y 1 0.5119 
06-May-2018_15:18:59 7304 25 female R 4 3 24 moral immoralOther Y y 1 0.5320 
06-May-2018_15:19:01 7304 25 female R 4 4 1 moral moralOther U u 1 0.6282 
06-May-2018_15:19:03 7304 25 female R 4 4 2 moral immoralOther Y y 1 0.6283 
06-May-2018_15:19:04 7304 25 female R 4 4 3 moral moralOther U u 1 0.6123 
06-May-2018_15:19:06 7304 25 female R 4 4 4 moral moralSelf U u 1 0.3505 
06-May-2018_15:19:07 7304 25 female R 4 4 5 moral moralSelf U u 1 0.3306 
06-May-2018_15:19:09 7304 25 female R 4 4 6 moral moralSelf U u 1 0.3946 
06-May-2018_15:19:10 7304 25 female R 4 4 7 moral immoralSelf Y y 1 0.5127 
06-May-2018_15:19:12 7304 25 female R 4 4 8 moral moralOther U y 0 0.3887 
06-May-2018_15:19:13 7304 25 female R 4 4 9 moral moralSelf U u 1 0.4949 
06-May-2018_15:19:15 7304 25 female R 4 4 10 moral immoralOther Y y 1 0.4549 
06-May-2018_15:19:16 7304 25 female R 4 4 11 moral immoralOther Y y 1 0.4850 
06-May-2018_15:19:18 7304 25 female R 4 4 12 moral immoralSelf Y y 1 0.8411 
06-May-2018_15:19:20 7304 25 female R 4 4 13 moral immoralOther Y y 1 0.3972 
06-May-2018_15:19:22 7304 25 female R 4 4 14 moral immoralSelf Y u 0 0.4193 
06-May-2018_15:19:24 7304 25 female R 4 4 15 moral immoralOther Y y 1 0.7654 
06-May-2018_15:19:25 7304 25 female R 4 4 16 moral immoralSelf Y y 1 0.6016 
06-May-2018_15:19:27 7304 25 female R 4 4 17 moral immoralOther Y y 1 0.4976 
06-May-2018_15:19:29 7304 25 female R 4 4 18 moral moralOther U u 1 0.6137 
06-May-2018_15:19:31 7304 25 female R 4 4 19 moral moralOther U u 1 0.6258 
06-May-2018_15:19:32 7304 25 female R 4 4 20 moral moralSelf U u 1 0.5859 
06-May-2018_15:19:34 7304 25 female R 4 4 21 moral moralOther U u 1 0.7200 
06-May-2018_15:19:36 7304 25 female R 4 4 22 moral immoralSelf Y y 1 0.6881 
06-May-2018_15:19:38 7304 25 female R 4 4 23 moral immoralSelf Y y 1 0.5482 
06-May-2018_15:19:39 7304 25 female R 4 4 24 moral moralSelf U u 1 0.4804 
06-May-2018_15:19:44 7304 25 female R 4 5 1 moral immoralSelf Y y 1 0.9186 
06-May-2018_15:19:45 7304 25 female R 4 5 2 moral immoralOther Y y 1 0.5507 
06-May-2018_15:19:47 7304 25 female R 4 5 3 moral moralSelf U u 1 0.4907 
06-May-2018_15:19:49 7304 25 female R 4 5 4 moral moralOther U u 1 0.7809 
06-May-2018_15:19:51 7304 25 female R 4 5 5 moral moralOther U u 1 0.4629 
06-May-2018_15:19:53 7304 25 female R 4 5 6 moral immoralSelf Y y 1 0.6111 
06-May-2018_15:19:54 7304 25 female R 4 5 7 moral moralOther U u 1 0.4792 
06-May-2018_15:19:56 7304 25 female R 4 5 8 moral moralOther U u 1 0.5413 
06-May-2018_15:19:58 7304 25 female R 4 5 9 moral moralSelf U u 1 0.5533 
06-May-2018_15:20:00 7304 25 female R 4 5 10 moral moralOther U u 1 0.5375 
06-May-2018_15:20:01 7304 25 female R 4 5 11 moral moralSelf U u 1 0.4476 
06-May-2018_15:20:03 7304 25 female R 4 5 12 moral immoralOther Y y 1 0.5816 
06-May-2018_15:20:05 7304 25 female R 4 5 13 moral immoralSelf Y y 1 0.5278 
06-May-2018_15:20:07 7304 25 female R 4 5 14 moral moralOther U u 1 0.6957 
06-May-2018_15:20:08 7304 25 female R 4 5 15 moral immoralOther Y y 1 0.5359 
06-May-2018_15:20:10 7304 25 female R 4 5 16 moral immoralSelf Y NA -1 1.0330 
06-May-2018_15:20:12 7304 25 female R 4 5 17 moral immoralOther Y y 1 0.3722 
06-May-2018_15:20:14 7304 25 female R 4 5 18 moral moralSelf U u 1 0.4963 
06-May-2018_15:20:16 7304 25 female R 4 5 19 moral immoralOther Y y 1 0.3984 
06-May-2018_15:20:18 7304 25 female R 4 5 20 moral immoralSelf Y y 1 0.5705 
06-May-2018_15:20:19 7304 25 female R 4 5 21 moral immoralSelf Y y 1 0.4026 
06-May-2018_15:20:21 7304 25 female R 4 5 22 moral immoralOther Y y 1 0.5587 
06-May-2018_15:20:23 7304 25 female R 4 5 23 moral moralSelf U u 1 0.3608 
06-May-2018_15:20:24 7304 25 female R 4 5 24 moral moralSelf U u 1 0.4210 
Date Sub Age Sex Hand Block Bin Trial Task Shape corrResp Resp ACC RT
06-May-2018_15:22:24 7304 25 female R 5 1 1 moral moralSelf U u 1 0.3738 
06-May-2018_15:22:26 7304 25 female R 5 1 2 moral immoralSelf Y y 1 0.3998 
06-May-2018_15:22:28 7304 25 female R 5 1 3 moral immoralOther Y y 1 0.5279 
06-May-2018_15:22:30 7304 25 female R 5 1 4 moral moralSelf U u 1 0.4901 
06-May-2018_15:22:31 7304 25 female R 5 1 5 moral moralSelf U u 1 0.4181 
06-May-2018_15:22:33 7304 25 female R 5 1 6 moral moralOther U u 1 0.7262 
06-May-2018_15:22:35 7304 25 female R 5 1 7 moral moralOther U u 1 0.3643 
06-May-2018_15:22:37 7304 25 female R 5 1 8 moral immoralOther Y y 1 0.4825 
06-May-2018_15:22:38 7304 25 female R 5 1 9 moral immoralSelf Y y 1 0.5085 
06-May-2018_15:22:40 7304 25 female R 5 1 10 moral moralOther U y 0 0.5426 
06-May-2018_15:22:42 7304 25 female R 5 1 11 moral moralOther U u 1 0.5467 
06-May-2018_15:22:44 7304 25 female R 5 1 12 moral immoralSelf Y y 1 0.7308 
06-May-2018_15:22:45 7304 25 female R 5 1 13 moral moralOther U u 1 0.5549 
06-May-2018_15:22:47 7304 25 female R 5 1 14 moral immoralSelf Y y 1 0.3530 
06-May-2018_15:22:49 7304 25 female R 5 1 15 moral immoralSelf Y y 1 0.8050 
06-May-2018_15:22:51 7304 25 female R 5 1 16 moral moralOther U y 0 0.4732 
06-May-2018_15:22:53 7304 25 female R 5 1 17 moral moralSelf U u 1 0.5033 
06-May-2018_15:22:54 7304 25 female R 5 1 18 moral moralSelf U u 1 0.3294 
06-May-2018_15:22:56 7304 25 female R 5 1 19 moral immoralOther Y y 1 0.5455 
06-May-2018_15:22:58 7304 25 female R 5 1 20 moral immoralSelf Y y 1 0.6156 
06-May-2018_15:22:59 7304 25 female R 5 1 21 moral immoralOther Y y 1 0.4237 
06-May-2018_15:23:01 7304 25 female R 5 1 22 moral moralSelf U u 1 0.4457 
06-May-2018_15:23:03 7304 25 female R 5 1 23 moral immoralOther Y y 1 0.5398 
06-May-2018_15:23:05 7304 25 female R 5 1 24 moral immoralOther Y y 1 0.4939 
06-May-2018_15:23:06 7304 25 female R 5 2 1 moral moralOther U u 1 0.4921 
06-May-2018_15:23:08 7304 25 female R 5 2 2 moral immoralSelf Y y 1 0.4822 
06-May-2018_15:23:10 7304 25 female R 5 2 3 moral immoralOther Y y 1 0.7662 
06-May-2018_15:23:12 7304 25 female R 5 2 4 moral moralOther U u 1 0.6924 
06-May-2018_15:23:14 7304 25 female R 5 2 5 moral immoralOther Y y 1 0.4444 
06-May-2018_15:23:15 7304 25 female R 5 2 6 moral moralSelf U u 1 0.3830 
06-May-2018_15:23:17 7304 25 female R 5 2 7 moral immoralOther Y y 1 0.3907 
06-May-2018_15:23:19 7304 25 female R 5 2 8 moral immoralSelf Y u 0 0.7647 
06-May-2018_15:23:20 7304 25 female R 5 2 9 moral immoralOther Y y 1 0.6489 
06-May-2018_15:23:22 7304 25 female R 5 2 10 moral immoralSelf Y y 1 0.6450 
06-May-2018_15:23:24 7304 25 female R 5 2 11 moral moralOther U u 1 0.6451 
06-May-2018_15:23:26 7304 25 female R 5 2 12 moral moralOther U u 1 0.5132 
06-May-2018_15:23:28 7304 25 female R 5 2 13 moral moralSelf U u 1 0.5673 
06-May-2018_15:23:29 7304 25 female R 5 2 14 moral immoralSelf Y y 1 0.5855 
06-May-2018_15:23:31 7304 25 female R 5 2 15 moral moralOther U u 1 0.5534 
06-May-2018_15:23:33 7304 25 female R 5 2 16 moral moralSelf U u 1 0.4456 
06-May-2018_15:23:34 7304 25 female R 5 2 17 moral moralSelf U u 1 0.4337 
06-May-2018_15:23:36 7304 25 female R 5 2 18 moral immoralOther Y y 1 0.4137 
06-May-2018_15:23:38 7304 25 female R 5 2 19 moral immoralSelf Y y 1 0.7639 
06-May-2018_15:23:40 7304 25 female R 5 2 20 moral moralOther U u 1 0.5280 
06-May-2018_15:23:41 7304 25 female R 5 2 21 moral immoralSelf Y y 1 0.4500 
06-May-2018_15:23:43 7304 25 female R 5 2 22 moral moralSelf U u 1 0.4001 
06-May-2018_15:23:44 7304 25 female R 5 2 23 moral immoralOther Y y 1 0.3222 
06-May-2018_15:23:46 7304 25 female R 5 2 24 moral moralSelf U u 1 0.3583 
06-May-2018_15:23:52 7304 25 female R 5 3 1 moral moralSelf U u 1 0.4007 
06-May-2018_15:23:54 7304 25 female R 5 3 2 moral moralOther U u 1 0.5767 
06-May-2018_15:23:56 7304 25 female R 5 3 3 moral immoralSelf Y y 1 0.5189 
06-May-2018_15:23:57 7304 25 female R 5 3 4 moral immoralSelf Y y 1 0.6650 
06-May-2018_15:23:59 7304 25 female R 5 3 5 moral moralSelf U u 1 0.4131 
06-May-2018_15:24:01 7304 25 female R 5 3 6 moral moralSelf U u 1 0.4311 
06-May-2018_15:24:02 7304 25 female R 5 3 7 moral immoralSelf Y y 1 0.6213 
06-May-2018_15:24:04 7304 25 female R 5 3 8 moral immoralOther Y y 1 0.4693 
06-May-2018_15:24:05 7304 25 female R 5 3 9 moral immoralOther Y y 1 0.4394 
06-May-2018_15:24:07 7304 25 female R 5 3 10 moral moralSelf U u 1 0.3856 
06-May-2018_15:24:09 7304 25 female R 5 3 11 moral moralOther U u 1 0.5296 
06-May-2018_15:24:10 7304 25 female R 5 3 12 moral moralOther U u 1 0.4257 
06-May-2018_15:24:12 7304 25 female R 5 3 13 moral immoralSelf Y y 1 0.4419 
06-May-2018_15:24:14 7304 25 female R 5 3 14 moral immoralSelf Y y 1 0.4659 
06-May-2018_15:24:15 7304 25 female R 5 3 15 moral moralSelf U u 1 0.4080 
06-May-2018_15:24:17 7304 25 female R 5 3 16 moral moralOther U u 1 0.6801 
06-May-2018_15:24:19 7304 25 female R 5 3 17 moral immoralSelf Y y 1 0.4641 
06-May-2018_15:24:21 7304 25 female R 5 3 18 moral moralOther U u 1 0.5003 
06-May-2018_15:24:22 7304 25 female R 5 3 19 moral moralOther U y 0 0.3764 
06-May-2018_15:24:24 7304 25 female R 5 3 20 moral immoralOther Y y 1 0.5505 
06-May-2018_15:24:26 7304 25 female R 5 3 21 moral immoralOther Y y 1 0.4306 
06-May-2018_15:24:27 7304 25 female R 5 3 22 moral immoralOther Y y 1 0.4867 
06-May-2018_15:24:29 7304 25 female R 5 3 23 moral moralSelf U u 1 0.4608 
06-May-2018_15:24:31 7304 25 female R 5 3 24 moral immoralOther Y y 1 0.6268 
06-May-2018_15:24:32 7304 25 female R 5 4 1 moral moralSelf U u 1 0.3869 
06-May-2018_15:24:34 7304 25 female R 5 4 2 moral immoralSelf Y y 1 0.3991 
06-May-2018_15:24:35 7304 25 female R 5 4 3 moral moralSelf U u 1 0.5552 
06-May-2018_15:24:37 7304 25 female R 5 4 4 moral immoralOther Y y 1 0.3913 
06-May-2018_15:24:39 7304 25 female R 5 4 5 moral immoralOther Y y 1 0.6474 
06-May-2018_15:24:41 7304 25 female R 5 4 6 moral moralOther U u 1 0.4756 
06-May-2018_15:24:43 7304 25 female R 5 4 7 moral immoralSelf Y y 1 0.6156 
06-May-2018_15:24:45 7304 25 female R 5 4 8 moral immoralOther Y y 1 0.5257 
06-May-2018_15:24:46 7304 25 female R 5 4 9 moral moralOther U u 1 0.3638 
06-May-2018_15:24:48 7304 25 female R 5 4 10 moral immoralSelf Y y 1 0.4418 
06-May-2018_15:24:49 7304 25 female R 5 4 11 moral moralSelf U u 1 0.4019 
06-May-2018_15:24:51 7304 25 female R 5 4 12 moral immoralOther Y y 1 0.4600 
06-May-2018_15:24:53 7304 25 female R 5 4 13 moral immoralOther Y y 1 0.4421 
06-May-2018_15:24:55 7304 25 female R 5 4 14 moral immoralSelf Y NA -1 1.0330 
06-May-2018_15:24:56 7304 25 female R 5 4 15 moral moralOther U u 1 0.5644 
06-May-2018_15:24:58 7304 25 female R 5 4 16 moral moralOther U u 1 0.5684 
06-May-2018_15:25:00 7304 25 female R 5 4 17 moral immoralSelf Y y 1 0.4745 
06-May-2018_15:25:02 7304 25 female R 5 4 18 moral moralOther U u 1 0.6646 
06-May-2018_15:25:03 7304 25 female R 5 4 19 moral moralSelf U u 1 0.4127 
06-May-2018_15:25:05 7304 25 female R 5 4 20 moral moralSelf U u 1 0.4468 
06-May-2018_15:25:07 7304 25 female R 5 4 21 moral immoralOther Y y 1 0.4169 
06-May-2018_15:25:09 7304 25 female R 5 4 22 moral moralOther U u 1 0.7450 
06-May-2018_15:25:10 7304 25 female R 5 4 23 moral moralSelf U u 1 0.3951 
06-May-2018_15:25:12 7304 25 female R 5 4 24 moral immoralSelf Y y 1 0.4573 
06-May-2018_15:25:16 7304 25 female R 5 5 1 moral immoralOther Y y 1 0.6095 
06-May-2018_15:25:18 7304 25 female R 5 5 2 moral immoralSelf Y y 1 0.6776 
06-May-2018_15:25:20 7304 25 female R 5 5 3 moral immoralOther Y y 1 0.4536 
06-May-2018_15:25:21 7304 25 female R 5 5 4 moral moralOther U y 0 0.4198 
06-May-2018_15:25:23 7304 25 female R 5 5 5 moral immoralSelf Y y 1 0.5619 
06-May-2018_15:25:25 7304 25 female R 5 5 6 moral moralSelf U u 1 0.3600 
06-May-2018_15:25:26 7304 25 female R 5 5 7 moral moralSelf U u 1 0.3180 
06-May-2018_15:25:28 7304 25 female R 5 5 8 moral moralOther U u 1 0.5041 
06-May-2018_15:25:29 7304 25 female R 5 5 9 moral moralOther U u 1 0.3522 
06-May-2018_15:25:31 7304 25 female R 5 5 10 moral immoralOther Y y 1 0.5003 
06-May-2018_15:25:33 7304 25 female R 5 5 11 moral moralSelf U u 1 0.4124 
06-May-2018_15:25:34 7304 25 female R 5 5 12 moral immoralOther Y y 1 0.4005 
06-May-2018_15:25:36 7304 25 female R 5 5 13 moral immoralSelf Y y 1 0.6365 
06-May-2018_15:25:38 7304 25 female R 5 5 14 moral immoralSelf Y y 1 0.5267 
06-May-2018_15:25:39 7304 25 female R 5 5 15 moral moralSelf U u 1 0.3827 
06-May-2018_15:25:41 7304 25 female R 5 5 16 moral immoralOther Y y 1 0.6408 
06-May-2018_15:25:43 7304 25 female R 5 5 17 moral immoralSelf Y y 1 0.6590 
06-May-2018_15:25:45 7304 25 female R 5 5 18 moral moralOther U u 1 0.3131 
06-May-2018_15:25:46 7304 25 female R 5 5 19 moral immoralSelf Y y 1 0.4032 
06-May-2018_15:25:48 7304 25 female R 5 5 20 moral moralSelf U u 1 0.4013 
06-May-2018_15:25:50 7304 25 female R 5 5 21 moral immoralOther Y y 1 0.6953 
06-May-2018_15:25:52 7304 25 female R 5 5 22 moral moralOther U u 1 0.3597 
06-May-2018_15:25:53 7304 25 female R 5 5 23 moral moralSelf U u 1 0.4795 
06-May-2018_15:25:55 7304 25 female R 5 5 24 moral moralOther U u 1 0.5077 
Date Sub Age Sex Hand Block Bin Trial Task Shape corrResp Resp ACC RT
06-May-2018_15:28:08 7304 25 female R 6 1 1 self moralOther J NA -1 1.0330 
06-May-2018_15:28:10 7304 25 female R 6 1 2 self immoralSelf H h 1 0.9093 
06-May-2018_15:28:12 7304 25 female R 6 1 3 self immoralSelf H h 1 0.4035 
06-May-2018_15:28:14 7304 25 female R 6 1 4 self immoralSelf H h 1 0.3596 
06-May-2018_15:28:15 7304 25 female R 6 1 5 self moralOther J h 0 0.4316 
06-May-2018_15:28:17 7304 25 female R 6 1 6 self moralSelf H h 1 0.4677 
06-May-2018_15:28:19 7304 25 female R 6 1 7 self moralSelf H h 1 0.7099 
06-May-2018_15:28:21 7304 25 female R 6 1 8 self immoralSelf H h 1 0.7879 
06-May-2018_15:28:23 7304 25 female R 6 1 9 self moralOther J j 1 0.7501 
06-May-2018_15:28:24 7304 25 female R 6 1 10 self moralSelf H h 1 0.4922 
06-May-2018_15:28:27 7304 25 female R 6 1 11 self moralOther J j 1 0.8282 
06-May-2018_15:28:29 7304 25 female R 6 1 12 self immoralOther J j 1 0.8124 
06-May-2018_15:28:31 7304 25 female R 6 1 13 self moralOther J j 1 0.9365 
06-May-2018_15:28:32 7304 25 female R 6 1 14 self moralSelf H h 1 0.4587 
06-May-2018_15:28:34 7304 25 female R 6 1 15 self moralSelf H h 1 0.4848 
06-May-2018_15:28:36 7304 25 female R 6 1 16 self immoralSelf H h 1 0.7488 
06-May-2018_15:28:38 7304 25 female R 6 1 17 self immoralSelf H h 1 0.4789 
06-May-2018_15:28:39 7304 25 female R 6 1 18 self moralSelf H h 1 0.3890 
06-May-2018_15:28:41 7304 25 female R 6 1 19 self moralOther J j 1 0.7251 
06-May-2018_15:28:43 7304 25 female R 6 1 20 self immoralOther J j 1 0.7732 
06-May-2018_15:28:45 7304 25 female R 6 1 21 self immoralOther J j 1 0.5014 
06-May-2018_15:28:46 7304 25 female R 6 1 22 self immoralOther J j 1 0.4454 
06-May-2018_15:28:48 7304 25 female R 6 1 23 self immoralOther J j 1 0.4375 
06-May-2018_15:28:49 7304 25 female R 6 1 24 self immoralOther J j 1 0.3736 
06-May-2018_15:28:51 7304 25 female R 6 2 1 self moralSelf H h 1 0.5257 
06-May-2018_15:28:53 7304 25 female R 6 2 2 self immoralOther J j 1 0.4998 
06-May-2018_15:28:55 7304 25 female R 6 2 3 self moralOther J j 1 0.6539 
06-May-2018_15:28:57 7304 25 female R 6 2 4 self immoralSelf H h 1 0.7581 
06-May-2018_15:28:59 7304 25 female R 6 2 5 self immoralSelf H h 1 0.3982 
06-May-2018_15:29:00 7304 25 female R 6 2 6 self moralSelf H h 1 0.4842 
06-May-2018_15:29:02 7304 25 female R 6 2 7 self immoralSelf H h 1 0.5803 
06-May-2018_15:29:04 7304 25 female R 6 2 8 self moralSelf H h 1 0.4084 
06-May-2018_15:29:05 7304 25 female R 6 2 9 self moralSelf H h 1 0.3725 
06-May-2018_15:29:07 7304 25 female R 6 2 10 self immoralOther J j 1 0.5327 
06-May-2018_15:29:09 7304 25 female R 6 2 11 self moralOther J j 1 0.4727 
06-May-2018_15:29:11 7304 25 female R 6 2 12 self moralOther J j 1 0.5508 
06-May-2018_15:29:12 7304 25 female R 6 2 13 self moralOther J j 1 0.3769 
06-May-2018_15:29:14 7304 25 female R 6 2 14 self immoralOther J j 1 0.4370 
06-May-2018_15:29:16 7304 25 female R 6 2 15 self moralOther J j 1 0.4131 
06-May-2018_15:29:17 7304 25 female R 6 2 16 self immoralSelf H h 1 0.5372 
06-May-2018_15:29:19 7304 25 female R 6 2 17 self moralSelf H h 1 0.4613 
06-May-2018_15:29:21 7304 25 female R 6 2 18 self immoralOther J j 1 0.4734 
06-May-2018_15:29:22 7304 25 female R 6 2 19 self moralOther J j 1 0.5035 
06-May-2018_15:29:24 7304 25 female R 6 2 20 self immoralOther J j 1 0.3356 
06-May-2018_15:29:26 7304 25 female R 6 2 21 self immoralOther J j 1 0.3076 
06-May-2018_15:29:28 7304 25 female R 6 2 22 self immoralSelf H h 1 0.6977 
06-May-2018_15:29:29 7304 25 female R 6 2 23 self immoralSelf H h 1 0.4559 
06-May-2018_15:29:31 7304 25 female R 6 2 24 self moralSelf H h 1 0.3779 
06-May-2018_15:29:35 7304 25 female R 6 3 1 self immoralSelf H h 1 0.5041 
06-May-2018_15:29:37 7304 25 female R 6 3 2 self moralOther J j 1 0.4703 
06-May-2018_15:29:38 7304 25 female R 6 3 3 self moralSelf H h 1 0.3364 
06-May-2018_15:29:40 7304 25 female R 6 3 4 self moralOther J h 0 0.8124 
06-May-2018_15:29:42 7304 25 female R 6 3 5 self moralSelf H h 1 0.4286 
06-May-2018_15:29:43 7304 25 female R 6 3 6 self moralSelf H h 1 0.3527 
06-May-2018_15:29:45 7304 25 female R 6 3 7 self immoralSelf H h 1 0.5868 
06-May-2018_15:29:47 7304 25 female R 6 3 8 self immoralOther J j 1 0.4228 
06-May-2018_15:29:48 7304 25 female R 6 3 9 self immoralOther J j 1 0.3169 
06-May-2018_15:29:50 7304 25 female R 6 3 10 self immoralSelf H j 0 0.4170 
06-May-2018_15:29:51 7304 25 female R 6 3 11 self immoralSelf H h 1 0.3692 
06-May-2018_15:29:53 7304 25 female R 6 3 12 self immoralOther J j 1 0.6192 
06-May-2018_15:29:54 7304 25 female R 6 3 13 self moralOther J h 0 0.3713 
06-May-2018_15:29:56 7304 25 female R 6 3 14 self immoralOther J j 1 0.3734 
06-May-2018_15:29:58 7304 25 female R 6 3 15 self immoralSelf H NA -1 1.0330 
06-May-2018_15:30:00 7304 25 female R 6 3 16 self moralSelf H h 1 0.4676 
06-May-2018_15:30:02 7304 25 female R 6 3 17 self moralOther J j 1 0.4597 
06-May-2018_15:30:04 7304 25 female R 6 3 18 self immoralSelf H h 1 0.4179 
06-May-2018_15:30:05 7304 25 female R 6 3 19 self moralOther J j 1 0.5419 
06-May-2018_15:30:07 7304 25 female R 6 3 20 self moralSelf H h 1 0.3980 
06-May-2018_15:30:09 7304 25 female R 6 3 21 self moralSelf H h 1 0.4221 
06-May-2018_15:30:10 7304 25 female R 6 3 22 self immoralOther J j 1 0.4882 
06-May-2018_15:30:12 7304 25 female R 6 3 23 self moralOther J j 1 0.4623 
06-May-2018_15:30:13 7304 25 female R 6 3 24 self immoralOther J j 1 0.4104 
06-May-2018_15:30:15 7304 25 female R 6 4 1 self moralOther J j 1 0.3784 
06-May-2018_15:30:16 7304 25 female R 6 4 2 self moralSelf H h 1 0.4586 
06-May-2018_15:30:18 7304 25 female R 6 4 3 self immoralOther J j 1 0.3746 
06-May-2018_15:30:19 7304 25 female R 6 4 4 self moralOther J j 1 0.3907 
06-May-2018_15:30:21 7304 25 female R 6 4 5 self moralSelf H h 1 0.3828 
06-May-2018_15:30:23 7304 25 female R 6 4 6 self moralOther J j 1 0.5169 
06-May-2018_15:30:24 7304 25 female R 6 4 7 self moralSelf H h 1 0.3650 
06-May-2018_15:30:26 7304 25 female R 6 4 8 self immoralOther J j 1 0.3650 
06-May-2018_15:30:27 7304 25 female R 6 4 9 self immoralSelf H h 1 0.6151 
06-May-2018_15:30:29 7304 25 female R 6 4 10 self immoralSelf H h 1 0.5453 
06-May-2018_15:30:31 7304 25 female R 6 4 11 self immoralSelf H h 1 0.4933 
06-May-2018_15:30:33 7304 25 female R 6 4 12 self immoralOther J j 1 0.4855 
06-May-2018_15:30:34 7304 25 female R 6 4 13 self immoralOther J j 1 0.3596 
06-May-2018_15:30:36 7304 25 female R 6 4 14 self moralSelf H h 1 0.5377 
06-May-2018_15:30:38 7304 25 female R 6 4 15 self immoralOther J j 1 0.5377 
06-May-2018_15:30:40 7304 25 female R 6 4 16 self moralOther J j 1 0.4639 
06-May-2018_15:30:42 7304 25 female R 6 4 17 self immoralSelf H j 0 0.5020 
06-May-2018_15:30:43 7304 25 female R 6 4 18 self immoralOther J j 1 0.5620 
06-May-2018_15:30:45 7304 25 female R 6 4 19 self moralSelf H h 1 0.3982 
06-May-2018_15:30:47 7304 25 female R 6 4 20 self immoralSelf H h 1 0.6483 
06-May-2018_15:30:48 7304 25 female R 6 4 21 self moralSelf H h 1 0.3904 
06-May-2018_15:30:50 7304 25 female R 6 4 22 self moralOther J j 1 0.8645 
06-May-2018_15:30:52 7304 25 female R 6 4 23 self immoralSelf H h 1 0.5626 
06-May-2018_15:30:54 7304 25 female R 6 4 24 self moralOther J j 1 0.5707 
06-May-2018_15:31:03 7304 25 female R 6 5 1 self immoralSelf H h 1 0.3711 
06-May-2018_15:31:05 7304 25 female R 6 5 2 self immoralOther J j 1 0.5413 
06-May-2018_15:31:06 7304 25 female R 6 5 3 self moralSelf H h 1 0.4874 
06-May-2018_15:31:08 7304 25 female R 6 5 4 self immoralOther J j 1 0.5414 
06-May-2018_15:31:09 7304 25 female R 6 5 5 self moralOther J j 1 0.5776 
06-May-2018_15:31:11 7304 25 female R 6 5 6 self moralSelf H h 1 0.3276 
06-May-2018_15:31:12 7304 25 female R 6 5 7 self moralOther J j 1 0.4537 
06-May-2018_15:31:14 7304 25 female R 6 5 8 self moralOther J j 1 0.5938 
06-May-2018_15:31:16 7304 25 female R 6 5 9 self moralSelf H h 1 0.4319 
06-May-2018_15:31:18 7304 25 female R 6 5 10 self immoralOther J j 1 0.3760 
06-May-2018_15:31:19 7304 25 female R 6 5 11 self immoralSelf H h 1 0.5441 
06-May-2018_15:31:21 7304 25 female R 6 5 12 self immoralSelf H h 1 0.4122 
06-May-2018_15:31:23 7304 25 female R 6 5 13 self moralSelf H h 1 0.5043 
06-May-2018_15:31:25 7304 25 female R 6 5 14 self immoralSelf H h 1 0.5364 
06-May-2018_15:31:26 7304 25 female R 6 5 15 self moralOther J j 1 0.4545 
06-May-2018_15:31:28 7304 25 female R 6 5 16 self moralOther J j 1 0.4446 
06-May-2018_15:31:30 7304 25 female R 6 5 17 self immoralOther J h 0 0.4867 
06-May-2018_15:31:32 7304 25 female R 6 5 18 self immoralSelf H h 1 0.5308 
06-May-2018_15:31:33 7304 25 female R 6 5 19 self moralSelf H h 1 0.3989 
06-May-2018_15:31:35 7304 25 female R 6 5 20 self immoralOther J j 1 0.4590 
06-May-2018_15:31:37 7304 25 female R 6 5 21 self immoralSelf H h 1 0.5112 
06-May-2018_15:31:38 7304 25 female R 6 5 22 self immoralOther J j 1 0.6272 
06-May-2018_15:31:41 7304 25 female R 6 5 23 self moralOther J j 1 0.8273 
06-May-2018_15:31:42 7304 25 female R 6 5 24 self moralSelf H h 1 0.4254 
