Date Prac Sub Age Sex Hand Block Bin Trial Shape Label Match CorrResp Resp ACC RT
10-May-2018_13:27:25 Exp 7308 20 female R 1 1 1 moralOther moralOther match m m 1 0.7954 
10-May-2018_13:27:27 Exp 7308 20 female R 1 1 2 moralOther moralSelf mismatch n m 0 0.6636 
10-May-2018_13:27:30 Exp 7308 20 female R 1 1 3 moralSelf moralOther mismatch n m 0 0.7178 
10-May-2018_13:27:32 Exp 7308 20 female R 1 1 4 immoralSelf immoralSelf match m NA -1 1.0850 
10-May-2018_13:27:35 Exp 7308 20 female R 1 1 5 moralOther immoralSelf mismatch n n 1 0.8420 
10-May-2018_13:27:37 Exp 7308 20 female R 1 1 6 immoralSelf moralOther mismatch n m 0 0.8281 
10-May-2018_13:27:40 Exp 7308 20 female R 1 1 7 moralSelf moralOther mismatch n n 1 1.0642 
10-May-2018_13:27:42 Exp 7308 20 female R 1 1 8 immoralOther immoralOther match m m 1 0.7744 
10-May-2018_13:27:45 Exp 7308 20 female R 1 1 9 immoralOther immoralOther match m m 1 0.6946 
10-May-2018_13:27:47 Exp 7308 20 female R 1 1 10 immoralOther moralSelf mismatch n n 1 0.6627 
10-May-2018_13:27:49 Exp 7308 20 female R 1 1 11 moralSelf moralSelf match m m 1 0.7328 
10-May-2018_13:27:52 Exp 7308 20 female R 1 1 12 moralSelf moralSelf match m m 1 0.5410 
10-May-2018_13:27:54 Exp 7308 20 female R 1 1 13 immoralOther moralOther mismatch n n 1 0.8672 
10-May-2018_13:27:56 Exp 7308 20 female R 1 1 14 immoralOther moralOther mismatch n n 1 0.7188 
10-May-2018_13:27:59 Exp 7308 20 female R 1 1 15 moralSelf moralSelf match m m 1 0.5617 
10-May-2018_13:28:01 Exp 7308 20 female R 1 1 16 moralSelf moralOther mismatch n n 1 0.7395 
10-May-2018_13:28:04 Exp 7308 20 female R 1 1 17 immoralSelf immoralOther mismatch n n 1 1.0416 
10-May-2018_13:28:06 Exp 7308 20 female R 1 1 18 immoralOther immoralOther match m m 1 0.8277 
10-May-2018_13:28:09 Exp 7308 20 female R 1 1 19 immoralSelf immoralSelf match m n 0 1.0079 
10-May-2018_13:28:11 Exp 7308 20 female R 1 1 20 immoralSelf immoralOther mismatch n n 1 0.8962 
10-May-2018_13:28:14 Exp 7308 20 female R 1 1 21 moralOther moralSelf mismatch n m 0 0.7922 
10-May-2018_13:28:16 Exp 7308 20 female R 1 1 22 immoralSelf immoralSelf match m n 0 0.8044 
10-May-2018_13:28:18 Exp 7308 20 female R 1 1 23 moralOther moralOther match m m 1 0.7505 
10-May-2018_13:28:21 Exp 7308 20 female R 1 1 24 moralOther moralOther match m n 0 0.7146 
10-May-2018_13:28:23 Exp 7308 20 female R 1 2 1 moralSelf immoralOther mismatch n n 1 0.8128 
10-May-2018_13:28:26 Exp 7308 20 female R 1 2 2 immoralOther immoralOther match m m 1 1.0129 
10-May-2018_13:28:28 Exp 7308 20 female R 1 2 3 moralSelf moralSelf match m m 1 0.6051 
10-May-2018_13:28:31 Exp 7308 20 female R 1 2 4 immoralOther immoralOther match m m 1 0.8072 
10-May-2018_13:28:33 Exp 7308 20 female R 1 2 5 immoralOther moralOther mismatch n n 1 0.7993 
10-May-2018_13:28:35 Exp 7308 20 female R 1 2 6 moralOther moralOther match m m 1 0.7454 
10-May-2018_13:28:38 Exp 7308 20 female R 1 2 7 immoralOther immoralSelf mismatch n n 1 0.8796 
10-May-2018_13:28:40 Exp 7308 20 female R 1 2 8 immoralSelf moralSelf mismatch n n 1 0.7777 
10-May-2018_13:28:43 Exp 7308 20 female R 1 2 9 immoralSelf immoralSelf match m m 1 0.7359 
10-May-2018_13:28:45 Exp 7308 20 female R 1 2 10 immoralSelf immoralSelf match m NA -1 1.0850 
10-May-2018_13:28:48 Exp 7308 20 female R 1 2 11 moralSelf moralSelf match m m 1 0.5781 
10-May-2018_13:28:50 Exp 7308 20 female R 1 2 12 immoralSelf moralSelf mismatch n n 1 0.7602 
10-May-2018_13:28:53 Exp 7308 20 female R 1 2 13 immoralSelf immoralSelf match m m 1 1.0584 
10-May-2018_13:28:55 Exp 7308 20 female R 1 2 14 moralOther moralOther match m m 1 1.0325 
10-May-2018_13:28:58 Exp 7308 20 female R 1 2 15 moralSelf immoralSelf mismatch n n 1 0.6528 
10-May-2018_13:29:00 Exp 7308 20 female R 1 2 16 immoralSelf immoralOther mismatch n m 0 0.7968 
10-May-2018_13:29:02 Exp 7308 20 female R 1 2 17 moralOther immoralOther mismatch n m 0 0.6329 
10-May-2018_13:29:05 Exp 7308 20 female R 1 2 18 moralOther moralOther match m m 1 0.7812 
10-May-2018_13:29:07 Exp 7308 20 female R 1 2 19 moralSelf moralSelf match m m 1 0.9472 
10-May-2018_13:29:09 Exp 7308 20 female R 1 2 20 moralOther immoralOther mismatch n n 1 0.5833 
10-May-2018_13:29:12 Exp 7308 20 female R 1 2 21 immoralOther immoralOther match m n 0 0.6376 
10-May-2018_13:29:14 Exp 7308 20 female R 1 2 22 immoralOther moralSelf mismatch n n 1 0.6476 
10-May-2018_13:29:16 Exp 7308 20 female R 1 2 23 moralOther moralSelf mismatch n n 1 0.6805 
10-May-2018_13:29:19 Exp 7308 20 female R 1 2 24 moralSelf moralOther mismatch n n 1 0.7859 
10-May-2018_13:29:21 Exp 7308 20 female R 1 3 1 moralSelf immoralOther mismatch n n 1 0.7760 
10-May-2018_13:29:24 Exp 7308 20 female R 1 3 2 moralOther immoralOther mismatch n n 1 1.0162 
10-May-2018_13:29:26 Exp 7308 20 female R 1 3 3 moralOther moralOther match m m 1 0.9123 
10-May-2018_13:29:29 Exp 7308 20 female R 1 3 4 immoralSelf immoralOther mismatch n n 1 0.9245 
10-May-2018_13:29:31 Exp 7308 20 female R 1 3 5 moralOther moralOther match m m 1 0.7826 
10-May-2018_13:29:34 Exp 7308 20 female R 1 3 6 immoralSelf immoralSelf match m m 1 1.0288 
10-May-2018_13:29:36 Exp 7308 20 female R 1 3 7 immoralOther immoralOther match m m 1 0.6490 
10-May-2018_13:29:38 Exp 7308 20 female R 1 3 8 immoralOther immoralOther match m m 1 0.6250 
10-May-2018_13:29:41 Exp 7308 20 female R 1 3 9 immoralSelf immoralOther mismatch n m 0 0.6472 
10-May-2018_13:29:43 Exp 7308 20 female R 1 3 10 immoralSelf immoralSelf match m m 1 0.7913 
10-May-2018_13:29:45 Exp 7308 20 female R 1 3 11 moralSelf moralSelf match m m 1 0.5555 
10-May-2018_13:29:48 Exp 7308 20 female R 1 3 12 moralSelf moralOther mismatch n m 0 0.6157 
10-May-2018_13:29:50 Exp 7308 20 female R 1 3 13 moralOther moralOther match m m 1 0.7196 
10-May-2018_13:29:52 Exp 7308 20 female R 1 3 14 moralOther immoralOther mismatch n m 0 0.7138 
10-May-2018_13:29:55 Exp 7308 20 female R 1 3 15 immoralSelf moralSelf mismatch n n 1 1.0379 
10-May-2018_13:29:57 Exp 7308 20 female R 1 3 16 immoralOther immoralSelf mismatch n n 1 0.8241 
10-May-2018_13:30:00 Exp 7308 20 female R 1 3 17 immoralSelf immoralSelf match m n 0 0.9341 
10-May-2018_13:30:03 Exp 7308 20 female R 1 3 18 moralOther immoralOther mismatch n NA -1 1.0850 
10-May-2018_13:30:05 Exp 7308 20 female R 1 3 19 moralSelf moralOther mismatch n m 0 0.6965 
10-May-2018_13:30:07 Exp 7308 20 female R 1 3 20 immoralOther moralOther mismatch n n 1 0.8252 
10-May-2018_13:30:10 Exp 7308 20 female R 1 3 21 immoralOther immoralOther match m n 0 0.8468 
10-May-2018_13:30:12 Exp 7308 20 female R 1 3 22 moralSelf moralSelf match m m 1 0.5689 
10-May-2018_13:30:14 Exp 7308 20 female R 1 3 23 immoralOther immoralSelf mismatch n n 1 0.5771 
10-May-2018_13:30:17 Exp 7308 20 female R 1 3 24 moralSelf moralSelf match m m 1 0.7372 
10-May-2018_13:30:33 Exp 7308 20 female R 1 4 1 moralSelf moralSelf match m m 1 0.5361 
10-May-2018_13:30:35 Exp 7308 20 female R 1 4 2 immoralOther immoralOther match m m 1 0.6640 
10-May-2018_13:30:38 Exp 7308 20 female R 1 4 3 immoralSelf immoralSelf match m m 1 0.8464 
10-May-2018_13:30:40 Exp 7308 20 female R 1 4 4 immoralSelf moralOther mismatch n n 1 0.7445 
10-May-2018_13:30:42 Exp 7308 20 female R 1 4 5 moralOther moralOther match m m 1 0.6306 
10-May-2018_13:30:45 Exp 7308 20 female R 1 4 6 moralOther moralSelf mismatch n n 1 0.7389 
10-May-2018_13:30:48 Exp 7308 20 female R 1 4 7 immoralSelf moralSelf mismatch n NA -1 1.0850 
10-May-2018_13:30:50 Exp 7308 20 female R 1 4 8 immoralOther moralSelf mismatch n n 1 0.6754 
10-May-2018_13:30:52 Exp 7308 20 female R 1 4 9 immoralOther immoralOther match m m 1 0.7592 
10-May-2018_13:30:55 Exp 7308 20 female R 1 4 10 immoralSelf immoralSelf match m NA -1 1.0850 
10-May-2018_13:30:57 Exp 7308 20 female R 1 4 11 immoralSelf moralOther mismatch n n 1 0.6915 
10-May-2018_13:30:59 Exp 7308 20 female R 1 4 12 immoralOther immoralSelf mismatch n n 1 0.6037 
10-May-2018_13:31:02 Exp 7308 20 female R 1 4 13 moralOther moralOther match m m 1 0.8217 
10-May-2018_13:31:04 Exp 7308 20 female R 1 4 14 immoralSelf immoralSelf match m n 0 0.7799 
10-May-2018_13:31:07 Exp 7308 20 female R 1 4 15 moralSelf immoralSelf mismatch n n 1 0.8901 
10-May-2018_13:31:09 Exp 7308 20 female R 1 4 16 moralOther moralOther match m m 1 0.7944 
10-May-2018_13:31:12 Exp 7308 20 female R 1 4 17 moralOther immoralSelf mismatch n n 1 0.7103 
10-May-2018_13:31:14 Exp 7308 20 female R 1 4 18 moralSelf immoralSelf mismatch n n 1 0.8265 
10-May-2018_13:31:17 Exp 7308 20 female R 1 4 19 moralOther immoralSelf mismatch n n 1 0.8725 
10-May-2018_13:31:19 Exp 7308 20 female R 1 4 20 immoralOther immoralOther match m m 1 0.6528 
10-May-2018_13:31:21 Exp 7308 20 female R 1 4 21 moralSelf moralSelf match m m 1 0.5568 
10-May-2018_13:31:23 Exp 7308 20 female R 1 4 22 moralSelf moralSelf match m m 1 0.6011 
10-May-2018_13:31:26 Exp 7308 20 female R 1 4 23 moralSelf immoralOther mismatch n n 1 0.7471 
10-May-2018_13:31:28 Exp 7308 20 female R 1 4 24 immoralOther immoralSelf mismatch n n 1 0.6792 
10-May-2018_13:31:30 Exp 7308 20 female R 1 5 1 moralOther moralOther match m m 1 0.8014 
10-May-2018_13:31:33 Exp 7308 20 female R 1 5 2 immoralSelf immoralSelf match m n 0 0.6596 
10-May-2018_13:31:35 Exp 7308 20 female R 1 5 3 immoralSelf immoralOther mismatch n n 1 0.8177 
10-May-2018_13:31:37 Exp 7308 20 female R 1 5 4 moralSelf moralSelf match m m 1 0.6398 
10-May-2018_13:31:40 Exp 7308 20 female R 1 5 5 immoralSelf immoralSelf match m n 0 0.6019 
10-May-2018_13:31:42 Exp 7308 20 female R 1 5 6 immoralSelf immoralSelf match m n 0 0.6041 
10-May-2018_13:31:44 Exp 7308 20 female R 1 5 7 immoralOther immoralOther match m n 0 0.6461 
10-May-2018_13:31:47 Exp 7308 20 female R 1 5 8 moralOther immoralSelf mismatch n n 1 0.7602 
10-May-2018_13:31:49 Exp 7308 20 female R 1 5 9 moralOther moralOther match m m 1 0.9145 
10-May-2018_13:31:52 Exp 7308 20 female R 1 5 10 immoralOther immoralSelf mismatch n m 0 0.9666 
10-May-2018_13:31:54 Exp 7308 20 female R 1 5 11 immoralSelf moralSelf mismatch n m 0 0.5447 
10-May-2018_13:31:56 Exp 7308 20 female R 1 5 12 moralSelf immoralSelf mismatch n n 1 0.6871 
10-May-2018_13:31:58 Exp 7308 20 female R 1 5 13 immoralOther immoralOther match m m 1 0.7050 
10-May-2018_13:32:01 Exp 7308 20 female R 1 5 14 moralOther moralSelf mismatch n n 1 0.9591 
10-May-2018_13:32:03 Exp 7308 20 female R 1 5 15 moralSelf moralOther mismatch n n 1 0.7452 
10-May-2018_13:32:06 Exp 7308 20 female R 1 5 16 immoralOther immoralOther match m m 1 0.6634 
10-May-2018_13:32:08 Exp 7308 20 female R 1 5 17 moralOther moralSelf mismatch n n 1 1.0215 
10-May-2018_13:32:11 Exp 7308 20 female R 1 5 18 moralSelf immoralOther mismatch n n 1 0.7636 
10-May-2018_13:32:13 Exp 7308 20 female R 1 5 19 immoralSelf immoralOther mismatch n n 1 0.8298 
10-May-2018_13:32:15 Exp 7308 20 female R 1 5 20 moralSelf moralSelf match m m 1 0.5779 
10-May-2018_13:32:18 Exp 7308 20 female R 1 5 21 immoralOther immoralSelf mismatch n n 1 0.8000 
10-May-2018_13:32:20 Exp 7308 20 female R 1 5 22 moralSelf moralSelf match m m 1 0.5862 
10-May-2018_13:32:22 Exp 7308 20 female R 1 5 23 moralOther moralOther match m m 1 0.6483 
10-May-2018_13:32:25 Exp 7308 20 female R 1 5 24 immoralOther immoralSelf mismatch n n 1 0.7205 
10-May-2018_13:32:30 Exp 7308 20 female R 2 1 1 immoralOther immoralOther match m NA -1 1.0850 
10-May-2018_13:32:33 Exp 7308 20 female R 2 1 2 moralOther immoralOther mismatch n n 1 0.7590 
10-May-2018_13:32:35 Exp 7308 20 female R 2 1 3 moralSelf moralSelf match m m 1 0.6091 
10-May-2018_13:32:38 Exp 7308 20 female R 2 1 4 moralOther immoralSelf mismatch n n 1 0.8492 
10-May-2018_13:32:40 Exp 7308 20 female R 2 1 5 moralOther moralOther match m m 1 0.8413 
10-May-2018_13:32:42 Exp 7308 20 female R 2 1 6 immoralSelf immoralSelf match m n 0 0.7314 
10-May-2018_13:32:45 Exp 7308 20 female R 2 1 7 immoralOther immoralSelf mismatch n n 1 0.5475 
10-May-2018_13:32:47 Exp 7308 20 female R 2 1 8 immoralSelf immoralSelf match m m 1 0.7757 
10-May-2018_13:32:50 Exp 7308 20 female R 2 1 9 immoralSelf moralOther mismatch n n 1 1.0640 
10-May-2018_13:32:52 Exp 7308 20 female R 2 1 10 moralSelf moralSelf match m m 1 0.5500 
10-May-2018_13:32:54 Exp 7308 20 female R 2 1 11 immoralSelf moralOther mismatch n m 0 0.9702 
10-May-2018_13:32:57 Exp 7308 20 female R 2 1 12 immoralOther immoralOther match m m 1 0.6183 
10-May-2018_13:32:59 Exp 7308 20 female R 2 1 13 moralSelf immoralSelf mismatch n n 1 0.8004 
10-May-2018_13:33:01 Exp 7308 20 female R 2 1 14 immoralSelf immoralSelf match m m 1 0.7146 
10-May-2018_13:33:04 Exp 7308 20 female R 2 1 15 moralOther immoralSelf mismatch n n 1 0.6226 
10-May-2018_13:33:06 Exp 7308 20 female R 2 1 16 moralSelf immoralSelf mismatch n n 1 0.6449 
10-May-2018_13:33:08 Exp 7308 20 female R 2 1 17 immoralOther moralOther mismatch n n 1 0.7749 
10-May-2018_13:33:11 Exp 7308 20 female R 2 1 18 moralSelf moralSelf match m m 1 0.8390 
10-May-2018_13:33:13 Exp 7308 20 female R 2 1 19 moralSelf immoralOther mismatch n n 1 0.6653 
10-May-2018_13:33:15 Exp 7308 20 female R 2 1 20 moralOther moralOther match m n 0 0.6634 
10-May-2018_13:33:18 Exp 7308 20 female R 2 1 21 immoralSelf moralOther mismatch n n 1 0.5735 
10-May-2018_13:33:20 Exp 7308 20 female R 2 1 22 immoralOther immoralOther match m m 1 0.7655 
10-May-2018_13:33:23 Exp 7308 20 female R 2 1 23 immoralOther immoralSelf mismatch n n 1 1.0398 
10-May-2018_13:33:25 Exp 7308 20 female R 2 1 24 moralOther moralOther match m m 1 0.8019 
10-May-2018_13:33:27 Exp 7308 20 female R 2 2 1 moralOther moralOther match m m 1 0.6361 
10-May-2018_13:33:30 Exp 7308 20 female R 2 2 2 moralOther immoralSelf mismatch n NA -1 1.0850 
10-May-2018_13:33:32 Exp 7308 20 female R 2 2 3 moralSelf moralSelf match m m 1 0.4903 
10-May-2018_13:33:35 Exp 7308 20 female R 2 2 4 immoralSelf immoralSelf match m NA -1 1.0850 
10-May-2018_13:33:37 Exp 7308 20 female R 2 2 5 immoralSelf immoralSelf match m m 1 0.4685 
10-May-2018_13:33:39 Exp 7308 20 female R 2 2 6 immoralOther immoralSelf mismatch n n 1 0.6008 
10-May-2018_13:33:42 Exp 7308 20 female R 2 2 7 moralOther immoralSelf mismatch n m 0 0.8589 
10-May-2018_13:33:44 Exp 7308 20 female R 2 2 8 moralSelf immoralSelf mismatch n n 1 0.6170 
10-May-2018_13:33:46 Exp 7308 20 female R 2 2 9 immoralOther moralSelf mismatch n m 0 0.8172 
10-May-2018_13:33:49 Exp 7308 20 female R 2 2 10 moralOther moralOther match m m 1 0.8793 
10-May-2018_13:33:51 Exp 7308 20 female R 2 2 11 immoralSelf moralSelf mismatch n n 1 0.7855 
10-May-2018_13:33:54 Exp 7308 20 female R 2 2 12 moralSelf immoralSelf mismatch n n 1 0.8235 
10-May-2018_13:33:56 Exp 7308 20 female R 2 2 13 immoralOther immoralSelf mismatch n n 1 0.6937 
10-May-2018_13:33:58 Exp 7308 20 female R 2 2 14 moralSelf moralSelf match m m 1 0.7338 
10-May-2018_13:34:01 Exp 7308 20 female R 2 2 15 moralOther moralSelf mismatch n n 1 0.8380 
10-May-2018_13:34:03 Exp 7308 20 female R 2 2 16 moralSelf moralSelf match m n 0 0.7122 
10-May-2018_13:34:06 Exp 7308 20 female R 2 2 17 immoralOther immoralOther match m m 1 0.9162 
10-May-2018_13:34:08 Exp 7308 20 female R 2 2 18 moralSelf immoralOther mismatch n n 1 0.9043 
10-May-2018_13:34:11 Exp 7308 20 female R 2 2 19 immoralSelf immoralSelf match m m 1 0.8464 
10-May-2018_13:34:13 Exp 7308 20 female R 2 2 20 moralOther moralOther match m m 1 0.7686 
10-May-2018_13:34:15 Exp 7308 20 female R 2 2 21 immoralOther immoralOther match m m 1 0.6488 
10-May-2018_13:34:18 Exp 7308 20 female R 2 2 22 immoralSelf moralSelf mismatch n n 1 0.8089 
10-May-2018_13:34:20 Exp 7308 20 female R 2 2 23 immoralOther immoralOther match m m 1 0.8170 
10-May-2018_13:34:23 Exp 7308 20 female R 2 2 24 immoralSelf immoralOther mismatch n n 1 0.7611 
10-May-2018_13:34:25 Exp 7308 20 female R 2 3 1 immoralOther immoralOther match m m 1 0.7392 
10-May-2018_13:34:28 Exp 7308 20 female R 2 3 2 moralOther immoralSelf mismatch n n 1 0.8254 
10-May-2018_13:34:30 Exp 7308 20 female R 2 3 3 immoralSelf immoralSelf match m m 1 0.6796 
10-May-2018_13:34:32 Exp 7308 20 female R 2 3 4 immoralOther immoralSelf mismatch n n 1 0.6017 
10-May-2018_13:34:35 Exp 7308 20 female R 2 3 5 moralOther immoralOther mismatch n n 1 0.9239 
10-May-2018_13:34:37 Exp 7308 20 female R 2 3 6 moralOther moralOther match m m 1 0.8620 
10-May-2018_13:34:40 Exp 7308 20 female R 2 3 7 immoralOther immoralOther match m m 1 0.7642 
10-May-2018_13:34:42 Exp 7308 20 female R 2 3 8 moralSelf moralOther mismatch n n 1 0.8942 
10-May-2018_13:34:44 Exp 7308 20 female R 2 3 9 immoralSelf immoralOther mismatch n n 1 0.7584 
10-May-2018_13:34:47 Exp 7308 20 female R 2 3 10 immoralSelf moralSelf mismatch n n 1 0.8885 
10-May-2018_13:34:49 Exp 7308 20 female R 2 3 11 moralSelf moralOther mismatch n m 0 0.5367 
10-May-2018_13:34:51 Exp 7308 20 female R 2 3 12 moralSelf moralSelf match m m 1 0.7447 
10-May-2018_13:34:54 Exp 7308 20 female R 2 3 13 moralSelf immoralSelf mismatch n n 1 0.6709 
10-May-2018_13:34:56 Exp 7308 20 female R 2 3 14 immoralOther moralSelf mismatch n n 1 0.6271 
10-May-2018_13:34:58 Exp 7308 20 female R 2 3 15 moralSelf moralSelf match m m 1 0.6091 
10-May-2018_13:35:01 Exp 7308 20 female R 2 3 16 immoralSelf immoralSelf match m m 1 0.7853 
10-May-2018_13:35:03 Exp 7308 20 female R 2 3 17 immoralOther immoralOther match m m 1 0.7514 
10-May-2018_13:35:05 Exp 7308 20 female R 2 3 18 immoralSelf immoralOther mismatch n n 1 0.7156 
10-May-2018_13:35:08 Exp 7308 20 female R 2 3 19 immoralOther moralOther mismatch n n 1 0.7198 
10-May-2018_13:35:10 Exp 7308 20 female R 2 3 20 moralOther moralOther match m m 1 0.9538 
10-May-2018_13:35:13 Exp 7308 20 female R 2 3 21 immoralSelf immoralSelf match m m 1 1.0461 
10-May-2018_13:35:15 Exp 7308 20 female R 2 3 22 moralOther moralOther match m m 1 0.8562 
10-May-2018_13:35:18 Exp 7308 20 female R 2 3 23 moralOther immoralOther mismatch n n 1 0.9924 
10-May-2018_13:35:20 Exp 7308 20 female R 2 3 24 moralSelf moralSelf match m m 1 0.5404 
10-May-2018_13:35:44 Exp 7308 20 female R 2 4 1 moralSelf moralSelf match m m 1 0.4978 
10-May-2018_13:35:47 Exp 7308 20 female R 2 4 2 moralOther immoralSelf mismatch n n 1 0.6800 
10-May-2018_13:35:49 Exp 7308 20 female R 2 4 3 immoralSelf immoralSelf match m m 1 0.8022 
10-May-2018_13:35:52 Exp 7308 20 female R 2 4 4 moralOther immoralOther mismatch n n 1 0.8042 
10-May-2018_13:35:54 Exp 7308 20 female R 2 4 5 immoralOther immoralSelf mismatch n n 1 0.8542 
10-May-2018_13:35:56 Exp 7308 20 female R 2 4 6 moralSelf immoralOther mismatch n n 1 0.7505 
10-May-2018_13:35:59 Exp 7308 20 female R 2 4 7 immoralOther immoralOther match m m 1 0.6186 
10-May-2018_13:36:01 Exp 7308 20 female R 2 4 8 moralOther moralOther match m m 1 0.7288 
10-May-2018_13:36:03 Exp 7308 20 female R 2 4 9 immoralOther moralSelf mismatch n n 1 0.7130 
10-May-2018_13:36:06 Exp 7308 20 female R 2 4 10 moralOther immoralSelf mismatch n n 1 0.7890 
10-May-2018_13:36:08 Exp 7308 20 female R 2 4 11 moralSelf moralSelf match m m 1 0.5611 
10-May-2018_13:36:10 Exp 7308 20 female R 2 4 12 immoralOther immoralOther match m n 0 0.7872 
10-May-2018_13:36:13 Exp 7308 20 female R 2 4 13 immoralSelf moralOther mismatch n n 1 0.9834 
10-May-2018_13:36:15 Exp 7308 20 female R 2 4 14 immoralSelf immoralSelf match m n 0 0.6935 
10-May-2018_13:36:18 Exp 7308 20 female R 2 4 15 moralSelf immoralSelf mismatch n n 1 0.7097 
10-May-2018_13:36:20 Exp 7308 20 female R 2 4 16 moralOther moralOther match m m 1 0.8021 
10-May-2018_13:36:22 Exp 7308 20 female R 2 4 17 moralOther moralOther match m m 1 0.4759 
10-May-2018_13:36:25 Exp 7308 20 female R 2 4 18 immoralSelf immoralSelf match m m 1 0.9201 
10-May-2018_13:36:27 Exp 7308 20 female R 2 4 19 immoralSelf moralOther mismatch n n 1 0.6022 
10-May-2018_13:36:29 Exp 7308 20 female R 2 4 20 moralSelf moralSelf match m m 1 0.5724 
10-May-2018_13:36:32 Exp 7308 20 female R 2 4 21 immoralSelf immoralOther mismatch n n 1 0.9404 
10-May-2018_13:36:34 Exp 7308 20 female R 2 4 22 immoralOther moralOther mismatch n n 1 0.8424 
10-May-2018_13:36:37 Exp 7308 20 female R 2 4 23 immoralOther immoralOther match m m 1 0.8367 
10-May-2018_13:36:39 Exp 7308 20 female R 2 4 24 moralSelf immoralSelf mismatch n n 1 0.6409 
10-May-2018_13:36:41 Exp 7308 20 female R 2 5 1 moralSelf moralOther mismatch n n 1 0.8350 
10-May-2018_13:36:44 Exp 7308 20 female R 2 5 2 moralOther moralOther match m m 1 0.7193 
10-May-2018_13:36:46 Exp 7308 20 female R 2 5 3 immoralOther immoralOther match m m 1 0.8653 
10-May-2018_13:36:49 Exp 7308 20 female R 2 5 4 moralOther immoralOther mismatch n n 1 0.8392 
10-May-2018_13:36:51 Exp 7308 20 female R 2 5 5 moralOther moralOther match m n 0 0.8496 
10-May-2018_13:36:53 Exp 7308 20 female R 2 5 6 immoralSelf immoralSelf match m n 0 0.6737 
10-May-2018_13:36:56 Exp 7308 20 female R 2 5 7 moralOther moralSelf mismatch n n 1 1.0539 
10-May-2018_13:36:59 Exp 7308 20 female R 2 5 8 immoralSelf immoralOther mismatch n n 1 0.9740 
10-May-2018_13:37:01 Exp 7308 20 female R 2 5 9 immoralSelf immoralSelf match m m 1 0.8860 
10-May-2018_13:37:03 Exp 7308 20 female R 2 5 10 moralSelf moralSelf match m m 1 0.4802 
10-May-2018_13:37:06 Exp 7308 20 female R 2 5 11 immoralSelf immoralSelf match m n 0 0.6984 
10-May-2018_13:37:08 Exp 7308 20 female R 2 5 12 moralOther moralOther match m NA -1 1.0850 
10-May-2018_13:37:11 Exp 7308 20 female R 2 5 13 moralSelf moralOther mismatch n n 1 0.8187 
10-May-2018_13:37:13 Exp 7308 20 female R 2 5 14 immoralOther moralSelf mismatch n n 1 0.6888 
10-May-2018_13:37:15 Exp 7308 20 female R 2 5 15 immoralOther moralSelf mismatch n n 1 0.5610 
10-May-2018_13:37:18 Exp 7308 20 female R 2 5 16 immoralOther moralOther mismatch n n 1 0.7151 
10-May-2018_13:37:20 Exp 7308 20 female R 2 5 17 moralSelf moralSelf match m m 1 0.5272 
10-May-2018_13:37:22 Exp 7308 20 female R 2 5 18 moralSelf moralOther mismatch n n 1 0.9673 
10-May-2018_13:37:25 Exp 7308 20 female R 2 5 19 immoralSelf moralSelf mismatch n n 1 0.6876 
10-May-2018_13:37:27 Exp 7308 20 female R 2 5 20 immoralSelf moralSelf mismatch n n 1 0.6876 
10-May-2018_13:37:29 Exp 7308 20 female R 2 5 21 moralSelf moralSelf match m m 1 0.6558 
10-May-2018_13:37:32 Exp 7308 20 female R 2 5 22 moralOther immoralOther mismatch n n 1 0.8559 
10-May-2018_13:37:34 Exp 7308 20 female R 2 5 23 immoralOther immoralOther match m m 1 0.6240 
10-May-2018_13:37:36 Exp 7308 20 female R 2 5 24 immoralOther immoralOther match m m 1 0.5743 
10-May-2018_13:37:42 Exp 7308 20 female R 3 1 1 immoralSelf immoralSelf match m m 1 0.7704 
10-May-2018_13:37:44 Exp 7308 20 female R 3 1 2 immoralOther immoralOther match m m 1 0.6505 
10-May-2018_13:37:46 Exp 7308 20 female R 3 1 3 immoralOther immoralOther match m m 1 0.5547 
10-May-2018_13:37:48 Exp 7308 20 female R 3 1 4 immoralOther immoralSelf mismatch n n 1 0.6068 
10-May-2018_13:37:51 Exp 7308 20 female R 3 1 5 moralOther moralOther match m m 1 0.8970 
10-May-2018_13:37:53 Exp 7308 20 female R 3 1 6 immoralOther moralOther mismatch n n 1 0.6251 
10-May-2018_13:37:56 Exp 7308 20 female R 3 1 7 immoralSelf moralSelf mismatch n m 0 0.7273 
10-May-2018_13:37:58 Exp 7308 20 female R 3 1 8 moralOther immoralSelf mismatch n n 1 0.8953 
10-May-2018_13:38:01 Exp 7308 20 female R 3 1 9 moralOther moralSelf mismatch n n 1 0.7995 
10-May-2018_13:38:03 Exp 7308 20 female R 3 1 10 immoralSelf moralOther mismatch n NA -1 1.0850 
10-May-2018_13:38:05 Exp 7308 20 female R 3 1 11 moralSelf immoralOther mismatch n n 1 0.6358 
10-May-2018_13:38:08 Exp 7308 20 female R 3 1 12 immoralSelf immoralSelf match m m 1 1.0077 
10-May-2018_13:38:10 Exp 7308 20 female R 3 1 13 immoralOther moralOther mismatch n n 1 0.5920 
10-May-2018_13:38:12 Exp 7308 20 female R 3 1 14 moralSelf moralSelf match m m 1 0.5322 
10-May-2018_13:38:15 Exp 7308 20 female R 3 1 15 moralSelf moralSelf match m m 1 0.7003 
10-May-2018_13:38:17 Exp 7308 20 female R 3 1 16 moralOther moralOther match m m 1 0.6665 
10-May-2018_13:38:19 Exp 7308 20 female R 3 1 17 moralSelf immoralOther mismatch n n 1 0.5366 
10-May-2018_13:38:22 Exp 7308 20 female R 3 1 18 moralOther immoralSelf mismatch n n 1 0.8086 
10-May-2018_13:38:24 Exp 7308 20 female R 3 1 19 immoralSelf immoralSelf match m m 1 0.5769 
10-May-2018_13:38:26 Exp 7308 20 female R 3 1 20 moralSelf moralSelf match m m 1 0.8490 
10-May-2018_13:38:29 Exp 7308 20 female R 3 1 21 immoralSelf moralOther mismatch n n 1 0.9531 
10-May-2018_13:38:31 Exp 7308 20 female R 3 1 22 moralOther moralOther match m m 1 0.7333 
10-May-2018_13:38:34 Exp 7308 20 female R 3 1 23 immoralOther immoralOther match m m 1 0.6774 
10-May-2018_13:38:36 Exp 7308 20 female R 3 1 24 moralSelf moralOther mismatch n n 1 0.6396 
10-May-2018_13:38:38 Exp 7308 20 female R 3 2 1 immoralSelf immoralSelf match m m 1 0.6896 
10-May-2018_13:38:41 Exp 7308 20 female R 3 2 2 immoralOther immoralSelf mismatch n n 1 0.8978 
10-May-2018_13:38:43 Exp 7308 20 female R 3 2 3 moralSelf moralSelf match m m 1 0.6079 
10-May-2018_13:38:45 Exp 7308 20 female R 3 2 4 immoralSelf immoralSelf match m m 1 0.8560 
10-May-2018_13:38:48 Exp 7308 20 female R 3 2 5 moralSelf moralSelf match m m 1 0.6722 
10-May-2018_13:38:50 Exp 7308 20 female R 3 2 6 immoralOther moralSelf mismatch n n 1 0.6604 
10-May-2018_13:38:52 Exp 7308 20 female R 3 2 7 immoralSelf immoralSelf match m m 1 0.7464 
10-May-2018_13:38:55 Exp 7308 20 female R 3 2 8 moralSelf immoralOther mismatch n n 1 0.7686 
10-May-2018_13:38:57 Exp 7308 20 female R 3 2 9 moralOther immoralOther mismatch n n 1 0.6887 
10-May-2018_13:39:00 Exp 7308 20 female R 3 2 10 immoralSelf moralOther mismatch n n 1 0.9768 
10-May-2018_13:39:02 Exp 7308 20 female R 3 2 11 moralOther moralOther match m n 0 0.6810 
10-May-2018_13:39:04 Exp 7308 20 female R 3 2 12 moralOther moralOther match m m 1 0.7472 
10-May-2018_13:39:07 Exp 7308 20 female R 3 2 13 moralOther immoralOther mismatch n n 1 0.7673 
10-May-2018_13:39:09 Exp 7308 20 female R 3 2 14 immoralSelf immoralOther mismatch n n 1 0.6475 
10-May-2018_13:39:12 Exp 7308 20 female R 3 2 15 moralSelf moralSelf match m m 1 0.7835 
10-May-2018_13:39:14 Exp 7308 20 female R 3 2 16 moralSelf immoralOther mismatch n n 1 0.7096 
10-May-2018_13:39:16 Exp 7308 20 female R 3 2 17 immoralOther immoralOther match m m 1 0.6178 
10-May-2018_13:39:19 Exp 7308 20 female R 3 2 18 immoralSelf moralOther mismatch n n 1 0.9359 
10-May-2018_13:39:21 Exp 7308 20 female R 3 2 19 moralOther moralOther match m m 1 0.6001 
10-May-2018_13:39:23 Exp 7308 20 female R 3 2 20 moralOther immoralOther mismatch n m 0 0.6823 
10-May-2018_13:39:25 Exp 7308 20 female R 3 2 21 immoralOther moralOther mismatch n n 1 0.6363 
10-May-2018_13:39:28 Exp 7308 20 female R 3 2 22 immoralOther immoralOther match m n 0 0.6806 
10-May-2018_13:39:30 Exp 7308 20 female R 3 2 23 immoralOther immoralOther match m m 1 0.6186 
10-May-2018_13:39:32 Exp 7308 20 female R 3 2 24 moralSelf moralOther mismatch n m 0 0.6727 
10-May-2018_13:39:35 Exp 7308 20 female R 3 3 1 moralSelf moralSelf match m m 1 0.6289 
10-May-2018_13:39:37 Exp 7308 20 female R 3 3 2 immoralSelf immoralSelf match m m 1 0.8409 
10-May-2018_13:39:39 Exp 7308 20 female R 3 3 3 immoralOther immoralOther match m m 1 0.6111 
10-May-2018_13:39:42 Exp 7308 20 female R 3 3 4 immoralSelf moralSelf mismatch n n 1 0.7472 
10-May-2018_13:39:44 Exp 7308 20 female R 3 3 5 moralSelf moralSelf match m m 1 0.5514 
10-May-2018_13:39:46 Exp 7308 20 female R 3 3 6 moralOther immoralSelf mismatch n n 1 0.8035 
10-May-2018_13:39:49 Exp 7308 20 female R 3 3 7 moralOther immoralOther mismatch n m 0 0.8217 
10-May-2018_13:39:51 Exp 7308 20 female R 3 3 8 immoralOther moralOther mismatch n n 1 0.7398 
10-May-2018_13:39:53 Exp 7308 20 female R 3 3 9 moralOther moralOther match m m 1 0.6019 
10-May-2018_13:39:56 Exp 7308 20 female R 3 3 10 immoralSelf moralOther mismatch n n 1 0.6602 
10-May-2018_13:39:58 Exp 7308 20 female R 3 3 11 immoralOther immoralOther match m m 1 0.6902 
10-May-2018_13:40:00 Exp 7308 20 female R 3 3 12 moralSelf immoralOther mismatch n n 1 0.6984 
10-May-2018_13:40:03 Exp 7308 20 female R 3 3 13 immoralOther immoralOther match m m 1 0.6484 
10-May-2018_13:40:05 Exp 7308 20 female R 3 3 14 moralOther moralSelf mismatch n m 0 0.5206 
10-May-2018_13:40:07 Exp 7308 20 female R 3 3 15 immoralSelf immoralSelf match m n 0 0.7467 
10-May-2018_13:40:10 Exp 7308 20 female R 3 3 16 moralSelf moralOther mismatch n n 1 0.8968 
10-May-2018_13:40:12 Exp 7308 20 female R 3 3 17 immoralSelf immoralSelf match m n 0 0.7770 
10-May-2018_13:40:14 Exp 7308 20 female R 3 3 18 moralOther moralOther match m n 0 0.8012 
10-May-2018_13:40:17 Exp 7308 20 female R 3 3 19 immoralOther moralOther mismatch n n 1 0.6432 
10-May-2018_13:40:19 Exp 7308 20 female R 3 3 20 moralSelf moralSelf match m n 0 0.7415 
10-May-2018_13:40:21 Exp 7308 20 female R 3 3 21 immoralSelf moralOther mismatch n n 1 0.7155 
10-May-2018_13:40:24 Exp 7308 20 female R 3 3 22 moralOther moralOther match m m 1 0.7277 
10-May-2018_13:40:26 Exp 7308 20 female R 3 3 23 immoralOther moralOther mismatch n n 1 0.6398 
10-May-2018_13:40:28 Exp 7308 20 female R 3 3 24 moralSelf immoralOther mismatch n n 1 0.7059 
10-May-2018_13:40:39 Exp 7308 20 female R 3 4 1 moralSelf moralSelf match m m 1 0.5505 
10-May-2018_13:40:41 Exp 7308 20 female R 3 4 2 moralOther immoralSelf mismatch n m 0 0.7386 
10-May-2018_13:40:43 Exp 7308 20 female R 3 4 3 immoralOther moralSelf mismatch n n 1 0.6008 
10-May-2018_13:40:46 Exp 7308 20 female R 3 4 4 moralSelf moralSelf match m m 1 0.6509 
10-May-2018_13:40:48 Exp 7308 20 female R 3 4 5 moralOther moralSelf mismatch n m 0 0.5870 
10-May-2018_13:40:50 Exp 7308 20 female R 3 4 6 moralSelf moralSelf match m m 1 0.6951 
10-May-2018_13:40:53 Exp 7308 20 female R 3 4 7 moralOther immoralSelf mismatch n n 1 0.9272 
10-May-2018_13:40:55 Exp 7308 20 female R 3 4 8 moralOther moralOther match m m 1 0.7994 
10-May-2018_13:40:58 Exp 7308 20 female R 3 4 9 immoralSelf immoralSelf match m m 1 0.8335 
10-May-2018_13:41:00 Exp 7308 20 female R 3 4 10 immoralSelf moralOther mismatch n n 1 1.0457 
10-May-2018_13:41:03 Exp 7308 20 female R 3 4 11 immoralOther moralOther mismatch n n 1 0.6478 
10-May-2018_13:41:05 Exp 7308 20 female R 3 4 12 immoralSelf moralSelf mismatch n m 0 0.8320 
10-May-2018_13:41:07 Exp 7308 20 female R 3 4 13 moralSelf immoralSelf mismatch n n 1 0.6921 
10-May-2018_13:41:10 Exp 7308 20 female R 3 4 14 moralOther moralOther match m m 1 0.8202 
10-May-2018_13:41:12 Exp 7308 20 female R 3 4 15 immoralSelf immoralOther mismatch n n 1 0.9784 
10-May-2018_13:41:15 Exp 7308 20 female R 3 4 16 moralSelf immoralSelf mismatch n n 1 0.7768 
10-May-2018_13:41:17 Exp 7308 20 female R 3 4 17 immoralSelf immoralSelf match m m 1 0.6487 
10-May-2018_13:41:20 Exp 7308 20 female R 3 4 18 immoralOther immoralOther match m n 0 0.9048 
10-May-2018_13:41:22 Exp 7308 20 female R 3 4 19 moralSelf immoralSelf mismatch n n 1 0.6310 
10-May-2018_13:41:24 Exp 7308 20 female R 3 4 20 immoralOther immoralSelf mismatch n m 0 0.5872 
10-May-2018_13:41:27 Exp 7308 20 female R 3 4 21 immoralSelf immoralSelf match m m 1 0.8152 
10-May-2018_13:41:29 Exp 7308 20 female R 3 4 22 immoralOther immoralOther match m m 1 0.5271 
10-May-2018_13:41:31 Exp 7308 20 female R 3 4 23 moralOther moralOther match m m 1 0.7514 
10-May-2018_13:41:33 Exp 7308 20 female R 3 4 24 immoralOther immoralOther match m m 1 0.6836 
10-May-2018_13:41:36 Exp 7308 20 female R 3 5 1 immoralOther immoralOther match m m 1 0.5497 
10-May-2018_13:41:38 Exp 7308 20 female R 3 5 2 moralOther moralOther match m m 1 0.4979 
10-May-2018_13:41:40 Exp 7308 20 female R 3 5 3 moralOther moralSelf mismatch n m 0 0.5840 
10-May-2018_13:41:42 Exp 7308 20 female R 3 5 4 immoralOther moralOther mismatch n n 1 0.7901 
10-May-2018_13:41:45 Exp 7308 20 female R 3 5 5 immoralOther moralSelf mismatch n n 1 0.9462 
10-May-2018_13:41:47 Exp 7308 20 female R 3 5 6 moralOther immoralSelf mismatch n m 0 0.8806 
10-May-2018_13:41:50 Exp 7308 20 female R 3 5 7 moralOther moralSelf mismatch n m 0 0.7225 
10-May-2018_13:41:52 Exp 7308 20 female R 3 5 8 moralSelf immoralOther mismatch n n 1 0.7407 
10-May-2018_13:41:54 Exp 7308 20 female R 3 5 9 moralOther moralOther match m m 1 0.7147 
10-May-2018_13:41:57 Exp 7308 20 female R 3 5 10 immoralSelf immoralSelf match m n 0 0.6149 
10-May-2018_13:41:59 Exp 7308 20 female R 3 5 11 moralSelf immoralOther mismatch n n 1 0.5751 
10-May-2018_13:42:01 Exp 7308 20 female R 3 5 12 immoralOther immoralOther match m m 1 0.7914 
10-May-2018_13:42:04 Exp 7308 20 female R 3 5 13 immoralSelf moralSelf mismatch n n 1 0.9233 
10-May-2018_13:42:06 Exp 7308 20 female R 3 5 14 immoralOther moralSelf mismatch n n 1 0.5894 
10-May-2018_13:42:09 Exp 7308 20 female R 3 5 15 moralOther moralOther match m m 1 0.8015 
10-May-2018_13:42:11 Exp 7308 20 female R 3 5 16 moralSelf immoralOther mismatch n n 1 0.6598 
10-May-2018_13:42:13 Exp 7308 20 female R 3 5 17 moralSelf moralSelf match m m 1 0.6018 
10-May-2018_13:42:15 Exp 7308 20 female R 3 5 18 immoralOther immoralOther match m m 1 0.6920 
10-May-2018_13:42:18 Exp 7308 20 female R 3 5 19 immoralSelf moralOther mismatch n n 1 0.7000 
10-May-2018_13:42:20 Exp 7308 20 female R 3 5 20 immoralSelf immoralSelf match m n 0 0.6587 
10-May-2018_13:42:22 Exp 7308 20 female R 3 5 21 immoralSelf immoralSelf match m m 1 0.6724 
10-May-2018_13:42:25 Exp 7308 20 female R 3 5 22 moralSelf moralSelf match m m 1 0.6526 
10-May-2018_13:42:27 Exp 7308 20 female R 3 5 23 immoralSelf moralOther mismatch n n 1 0.8206 
10-May-2018_13:42:29 Exp 7308 20 female R 3 5 24 moralSelf moralSelf match m m 1 0.7788 
Date Prac Sub Age Sex Hand Block Bin Trial Shape Label Match CorrResp Resp ACC RT
10-May-2018_13:47:03 Exp 7308 20 female R 1 1 1 immoralSelf immoralSelf match m n 0 0.7584 
10-May-2018_13:47:06 Exp 7308 20 female R 1 1 2 moralSelf moralOther mismatch n n 1 0.8145 
10-May-2018_13:47:08 Exp 7308 20 female R 1 1 3 moralSelf moralSelf match m m 1 0.5806 
10-May-2018_13:47:10 Exp 7308 20 female R 1 1 4 immoralOther immoralSelf mismatch n n 1 0.8187 
10-May-2018_13:47:13 Exp 7308 20 female R 1 1 5 moralOther moralOther match m m 1 0.8168 
10-May-2018_13:47:15 Exp 7308 20 female R 1 1 6 immoralSelf moralOther mismatch n n 1 0.9531 
10-May-2018_13:47:18 Exp 7308 20 female R 1 1 7 immoralSelf moralOther mismatch n n 1 0.7251 
10-May-2018_13:47:20 Exp 7308 20 female R 1 1 8 moralSelf moralSelf match m m 1 0.6553 
10-May-2018_13:47:23 Exp 7308 20 female R 1 1 9 immoralOther immoralOther match m m 1 1.0634 
10-May-2018_13:47:25 Exp 7308 20 female R 1 1 10 moralOther moralSelf mismatch n n 1 0.7575 
10-May-2018_13:47:27 Exp 7308 20 female R 1 1 11 moralOther moralOther match m m 1 0.6557 
10-May-2018_13:47:30 Exp 7308 20 female R 1 1 12 moralSelf immoralSelf mismatch n n 1 0.7279 
10-May-2018_13:47:32 Exp 7308 20 female R 1 1 13 immoralSelf immoralOther mismatch n n 1 0.7440 
10-May-2018_13:47:34 Exp 7308 20 female R 1 1 14 immoralOther immoralOther match m m 1 0.6941 
10-May-2018_13:47:37 Exp 7308 20 female R 1 1 15 immoralSelf immoralSelf match m m 1 0.7742 
10-May-2018_13:47:39 Exp 7308 20 female R 1 1 16 moralSelf immoralSelf mismatch n n 1 0.8624 
10-May-2018_13:47:42 Exp 7308 20 female R 1 1 17 immoralSelf immoralSelf match m m 1 0.7325 
10-May-2018_13:47:44 Exp 7308 20 female R 1 1 18 moralOther moralOther match m m 1 0.7647 
10-May-2018_13:47:46 Exp 7308 20 female R 1 1 19 immoralOther immoralOther match m m 1 0.7429 
10-May-2018_13:47:49 Exp 7308 20 female R 1 1 20 moralSelf moralSelf match m m 1 0.7170 
10-May-2018_13:47:51 Exp 7308 20 female R 1 1 21 moralOther moralSelf mismatch n m 0 0.6570 
10-May-2018_13:47:53 Exp 7308 20 female R 1 1 22 immoralOther moralSelf mismatch n n 1 0.7111 
10-May-2018_13:47:56 Exp 7308 20 female R 1 1 23 moralOther immoralOther mismatch n n 1 0.7713 
10-May-2018_13:47:58 Exp 7308 20 female R 1 1 24 immoralOther immoralSelf mismatch n n 1 0.8354 
10-May-2018_13:48:01 Exp 7308 20 female R 1 2 1 immoralOther moralSelf mismatch n n 1 0.6639 
10-May-2018_13:48:03 Exp 7308 20 female R 1 2 2 moralOther moralOther match m m 1 0.7017 
10-May-2018_13:48:05 Exp 7308 20 female R 1 2 3 immoralOther immoralOther match m m 1 0.6518 
10-May-2018_13:48:07 Exp 7308 20 female R 1 2 4 moralSelf moralSelf match m m 1 0.6120 
10-May-2018_13:48:10 Exp 7308 20 female R 1 2 5 immoralSelf immoralSelf match m m 1 0.6921 
10-May-2018_13:48:12 Exp 7308 20 female R 1 2 6 moralOther moralOther match m m 1 0.7242 
10-May-2018_13:48:14 Exp 7308 20 female R 1 2 7 moralOther moralOther match m m 1 0.7103 
10-May-2018_13:48:17 Exp 7308 20 female R 1 2 8 moralSelf moralSelf match m m 1 0.7385 
10-May-2018_13:48:19 Exp 7308 20 female R 1 2 9 immoralSelf moralSelf mismatch n m 0 0.6327 
10-May-2018_13:48:21 Exp 7308 20 female R 1 2 10 moralSelf immoralSelf mismatch n m 0 0.7648 
10-May-2018_13:48:24 Exp 7308 20 female R 1 2 11 moralSelf immoralSelf mismatch n n 1 1.0069 
10-May-2018_13:48:27 Exp 7308 20 female R 1 2 12 immoralSelf moralSelf mismatch n n 1 0.9531 
10-May-2018_13:48:29 Exp 7308 20 female R 1 2 13 moralOther immoralOther mismatch n n 1 0.8372 
10-May-2018_13:48:31 Exp 7308 20 female R 1 2 14 moralSelf immoralSelf mismatch n n 1 0.6473 
10-May-2018_13:48:34 Exp 7308 20 female R 1 2 15 immoralOther immoralSelf mismatch n n 1 0.8394 
10-May-2018_13:48:36 Exp 7308 20 female R 1 2 16 moralOther moralSelf mismatch n n 1 0.6336 
10-May-2018_13:48:38 Exp 7308 20 female R 1 2 17 moralSelf moralSelf match m m 1 0.6697 
10-May-2018_13:48:41 Exp 7308 20 female R 1 2 18 immoralSelf immoralSelf match m m 1 0.8658 
10-May-2018_13:48:44 Exp 7308 20 female R 1 2 19 immoralOther immoralOther match m m 1 0.9680 
10-May-2018_13:48:46 Exp 7308 20 female R 1 2 20 moralOther immoralOther mismatch n n 1 0.8882 
10-May-2018_13:48:48 Exp 7308 20 female R 1 2 21 immoralOther moralOther mismatch n n 1 0.6804 
10-May-2018_13:48:51 Exp 7308 20 female R 1 2 22 immoralOther immoralOther match m m 1 0.7864 
10-May-2018_13:48:53 Exp 7308 20 female R 1 2 23 immoralSelf immoralSelf match m m 1 0.8886 
10-May-2018_13:48:56 Exp 7308 20 female R 1 2 24 immoralSelf moralOther mismatch n NA -1 1.0850 
Date Prac Sub Age Sex Hand Block Bin Trial Shape Label Match CorrResp Resp ACC RT
10-May-2018_13:53:35 Exp 7308 20 female R 1 1 1 immoralSelf immoralSelf match m m 1 1.0246 
10-May-2018_13:53:38 Exp 7308 20 female R 1 1 2 moralOther immoralOther mismatch n n 1 0.9347 
10-May-2018_13:53:40 Exp 7308 20 female R 1 1 3 moralOther moralSelf mismatch n n 1 0.6229 
10-May-2018_13:53:42 Exp 7308 20 female R 1 1 4 immoralSelf immoralSelf match m m 1 0.7330 
10-May-2018_13:53:45 Exp 7308 20 female R 1 1 5 moralOther moralOther match m m 1 1.0371 
10-May-2018_13:53:48 Exp 7308 20 female R 1 1 6 moralSelf immoralSelf mismatch n n 1 0.8794 
10-May-2018_13:53:50 Exp 7308 20 female R 1 1 7 immoralSelf immoralSelf match m m 1 0.6895 
10-May-2018_13:53:52 Exp 7308 20 female R 1 1 8 moralSelf immoralOther mismatch n n 1 0.6095 
10-May-2018_13:53:54 Exp 7308 20 female R 1 1 9 moralSelf immoralSelf mismatch n n 1 0.6657 
10-May-2018_13:53:57 Exp 7308 20 female R 1 1 10 immoralOther immoralOther match m m 1 0.6798 
10-May-2018_13:53:59 Exp 7308 20 female R 1 1 11 immoralOther moralSelf mismatch n n 1 0.7219 
10-May-2018_13:54:01 Exp 7308 20 female R 1 1 12 immoralOther moralSelf mismatch n n 1 0.5801 
10-May-2018_13:54:03 Exp 7308 20 female R 1 1 13 moralSelf moralSelf match m m 1 0.5303 
10-May-2018_13:54:06 Exp 7308 20 female R 1 1 14 immoralSelf moralSelf mismatch n n 1 0.8023 
10-May-2018_13:54:08 Exp 7308 20 female R 1 1 15 moralSelf moralSelf match m n 0 0.6524 
10-May-2018_13:54:11 Exp 7308 20 female R 1 1 16 immoralOther immoralOther match m m 1 0.8846 
10-May-2018_13:54:13 Exp 7308 20 female R 1 1 17 moralOther moralOther match m m 1 0.7267 
10-May-2018_13:54:15 Exp 7308 20 female R 1 1 18 moralSelf moralSelf match m m 1 0.6009 
10-May-2018_13:54:17 Exp 7308 20 female R 1 1 19 moralOther moralOther match m m 1 0.6590 
10-May-2018_13:54:20 Exp 7308 20 female R 1 1 20 immoralOther immoralSelf mismatch n n 1 0.8091 
10-May-2018_13:54:22 Exp 7308 20 female R 1 1 21 immoralOther immoralOther match m m 1 0.7132 
10-May-2018_13:54:25 Exp 7308 20 female R 1 1 22 moralOther immoralSelf mismatch n n 1 0.6134 
10-May-2018_13:54:27 Exp 7308 20 female R 1 1 23 immoralSelf moralOther mismatch n n 1 0.6776 
10-May-2018_13:54:29 Exp 7308 20 female R 1 1 24 immoralSelf immoralOther mismatch n n 1 0.7196 
10-May-2018_13:54:32 Exp 7308 20 female R 1 2 1 immoralSelf immoralSelf match m m 1 0.8738 
10-May-2018_13:54:34 Exp 7308 20 female R 1 2 2 immoralOther moralOther mismatch n n 1 0.6699 
10-May-2018_13:54:36 Exp 7308 20 female R 1 2 3 immoralOther moralOther mismatch n n 1 0.6501 
10-May-2018_13:54:39 Exp 7308 20 female R 1 2 4 moralOther moralOther match m n 0 0.9222 
10-May-2018_13:54:41 Exp 7308 20 female R 1 2 5 immoralSelf moralSelf mismatch n n 1 0.8043 
10-May-2018_13:54:44 Exp 7308 20 female R 1 2 6 immoralSelf moralOther mismatch n n 1 0.6865 
10-May-2018_13:54:46 Exp 7308 20 female R 1 2 7 immoralOther immoralOther match m m 1 0.8886 
10-May-2018_13:54:48 Exp 7308 20 female R 1 2 8 moralSelf moralSelf match m m 1 0.7527 
10-May-2018_13:54:51 Exp 7308 20 female R 1 2 9 immoralSelf immoralSelf match m m 1 0.7409 
10-May-2018_13:54:53 Exp 7308 20 female R 1 2 10 immoralSelf immoralSelf match m m 1 0.7231 
10-May-2018_13:54:55 Exp 7308 20 female R 1 2 11 moralSelf immoralSelf mismatch n n 1 0.6292 
10-May-2018_13:54:58 Exp 7308 20 female R 1 2 12 moralSelf moralSelf match m m 1 0.5774 
10-May-2018_13:55:00 Exp 7308 20 female R 1 2 13 moralSelf moralOther mismatch n n 1 0.9513 
10-May-2018_13:55:02 Exp 7308 20 female R 1 2 14 moralSelf immoralSelf mismatch n n 1 0.5796 
10-May-2018_13:55:05 Exp 7308 20 female R 1 2 15 immoralSelf moralSelf mismatch n n 1 0.6017 
10-May-2018_13:55:07 Exp 7308 20 female R 1 2 16 moralOther immoralSelf mismatch n n 1 0.6198 
10-May-2018_13:55:09 Exp 7308 20 female R 1 2 17 moralOther immoralOther mismatch n n 1 0.6020 
10-May-2018_13:55:11 Exp 7308 20 female R 1 2 18 immoralOther moralSelf mismatch n n 1 0.6439 
10-May-2018_13:55:14 Exp 7308 20 female R 1 2 19 moralOther moralSelf mismatch n n 1 0.6462 
10-May-2018_13:55:16 Exp 7308 20 female R 1 2 20 immoralOther immoralOther match m m 1 0.8084 
10-May-2018_13:55:19 Exp 7308 20 female R 1 2 21 moralOther moralOther match m m 1 0.7685 
10-May-2018_13:55:21 Exp 7308 20 female R 1 2 22 immoralOther immoralOther match m m 1 0.7046 
10-May-2018_13:55:23 Exp 7308 20 female R 1 2 23 moralSelf moralSelf match m m 1 0.5747 
10-May-2018_13:55:25 Exp 7308 20 female R 1 2 24 moralOther moralOther match m m 1 0.5748 
Date Prac Sub Age Sex Hand Block Bin Trial Shape Label Match CorrResp Resp ACC RT
10-May-2018_13:59:35 Exp 7308 20 female R 1 1 1 moralOther moralOther match m m 1 0.7651 
10-May-2018_13:59:38 Exp 7308 20 female R 1 1 2 moralSelf immoralOther mismatch n n 1 0.6552 
10-May-2018_13:59:40 Exp 7308 20 female R 1 1 3 moralOther moralSelf mismatch n n 1 0.7514 
10-May-2018_13:59:42 Exp 7308 20 female R 1 1 4 moralOther immoralSelf mismatch n n 1 0.9154 
10-May-2018_13:59:45 Exp 7308 20 female R 1 1 5 immoralOther moralSelf mismatch n n 1 0.6316 
10-May-2018_13:59:47 Exp 7308 20 female R 1 1 6 moralOther immoralSelf mismatch n n 1 0.8756 
10-May-2018_13:59:50 Exp 7308 20 female R 1 1 7 immoralOther immoralOther match m m 1 0.6718 
10-May-2018_13:59:52 Exp 7308 20 female R 1 1 8 immoralOther moralSelf mismatch n n 1 0.6680 
10-May-2018_13:59:54 Exp 7308 20 female R 1 1 9 immoralSelf moralSelf mismatch n n 1 0.6562 
10-May-2018_13:59:56 Exp 7308 20 female R 1 1 10 immoralOther immoralOther match m m 1 0.6883 
10-May-2018_13:59:59 Exp 7308 20 female R 1 1 11 immoralSelf immoralSelf match m m 1 0.7604 
10-May-2018_14:00:01 Exp 7308 20 female R 1 1 12 moralSelf moralOther mismatch n m 0 0.8105 
10-May-2018_14:00:04 Exp 7308 20 female R 1 1 13 immoralOther immoralOther match m m 1 0.8666 
10-May-2018_14:00:06 Exp 7308 20 female R 1 1 14 moralSelf immoralOther mismatch n n 1 0.7209 
10-May-2018_14:00:09 Exp 7308 20 female R 1 1 15 immoralSelf immoralSelf match m NA -1 1.0850 
10-May-2018_14:00:11 Exp 7308 20 female R 1 1 16 immoralOther moralSelf mismatch n n 1 0.7651 
10-May-2018_14:00:14 Exp 7308 20 female R 1 1 17 immoralSelf immoralSelf match m m 1 0.8312 
10-May-2018_14:00:16 Exp 7308 20 female R 1 1 18 immoralSelf moralSelf mismatch n n 1 0.6994 
10-May-2018_14:00:19 Exp 7308 20 female R 1 1 19 immoralSelf moralSelf mismatch n n 1 1.0336 
10-May-2018_14:00:21 Exp 7308 20 female R 1 1 20 moralOther moralOther match m m 1 0.7736 
10-May-2018_14:00:23 Exp 7308 20 female R 1 1 21 moralSelf moralSelf match m m 1 0.7738 
10-May-2018_14:00:26 Exp 7308 20 female R 1 1 22 moralSelf moralSelf match m m 1 0.6779 
10-May-2018_14:00:28 Exp 7308 20 female R 1 1 23 moralSelf moralSelf match m m 1 0.6080 
10-May-2018_14:00:30 Exp 7308 20 female R 1 1 24 moralOther moralOther match m m 1 0.6161 
10-May-2018_14:00:32 Exp 7308 20 female R 1 2 1 immoralSelf moralOther mismatch n n 1 0.5764 
10-May-2018_14:00:35 Exp 7308 20 female R 1 2 2 immoralSelf immoralSelf match m n 0 0.8964 
10-May-2018_14:00:37 Exp 7308 20 female R 1 2 3 moralOther immoralOther mismatch n n 1 0.5925 
10-May-2018_14:00:39 Exp 7308 20 female R 1 2 4 immoralOther immoralOther match m m 1 0.5968 
10-May-2018_14:00:42 Exp 7308 20 female R 1 2 5 immoralOther moralSelf mismatch n n 1 0.6728 
10-May-2018_14:00:44 Exp 7308 20 female R 1 2 6 immoralOther immoralOther match m m 1 0.8450 
10-May-2018_14:00:46 Exp 7308 20 female R 1 2 7 moralOther moralOther match m m 1 0.5591 
10-May-2018_14:00:49 Exp 7308 20 female R 1 2 8 immoralOther immoralSelf mismatch n n 1 0.7452 
10-May-2018_14:00:51 Exp 7308 20 female R 1 2 9 moralOther moralOther match m m 1 0.6394 
10-May-2018_14:00:53 Exp 7308 20 female R 1 2 10 immoralSelf immoralSelf match m m 1 0.5936 
10-May-2018_14:00:56 Exp 7308 20 female R 1 2 11 moralSelf immoralOther mismatch n n 1 0.6537 
10-May-2018_14:00:58 Exp 7308 20 female R 1 2 12 immoralSelf moralSelf mismatch n m 0 0.6537 
10-May-2018_14:01:00 Exp 7308 20 female R 1 2 13 immoralSelf immoralSelf match m m 1 0.7899 
10-May-2018_14:01:02 Exp 7308 20 female R 1 2 14 moralSelf immoralOther mismatch n n 1 0.5060 
10-May-2018_14:01:05 Exp 7308 20 female R 1 2 15 moralOther moralOther match m m 1 0.5921 
10-May-2018_14:01:07 Exp 7308 20 female R 1 2 16 moralSelf moralSelf match m m 1 0.5483 
10-May-2018_14:01:09 Exp 7308 20 female R 1 2 17 moralOther moralSelf mismatch n n 1 0.5925 
10-May-2018_14:01:11 Exp 7308 20 female R 1 2 18 moralSelf moralSelf match m m 1 0.4845 
10-May-2018_14:01:13 Exp 7308 20 female R 1 2 19 moralSelf immoralSelf mismatch n n 1 0.7106 
10-May-2018_14:01:16 Exp 7308 20 female R 1 2 20 moralOther immoralSelf mismatch n n 1 0.8668 
10-May-2018_14:01:18 Exp 7308 20 female R 1 2 21 immoralSelf moralSelf mismatch n n 1 0.6649 
10-May-2018_14:01:20 Exp 7308 20 female R 1 2 22 immoralOther immoralSelf mismatch n n 1 0.6470 
10-May-2018_14:01:23 Exp 7308 20 female R 1 2 23 moralSelf moralSelf match m m 1 0.5452 
10-May-2018_14:01:25 Exp 7308 20 female R 1 2 24 immoralOther immoralOther match m m 1 0.6553 
Date Prac Sub Age Sex Hand Block Bin Trial Shape Label Match CorrResp Resp ACC RT
10-May-2018_14:05:46 Exp 7308 20 female R 1 1 1 immoralOther moralOther mismatch n n 1 0.7461 
10-May-2018_14:05:49 Exp 7308 20 female R 1 1 2 immoralOther immoralOther match m m 1 0.6562 
10-May-2018_14:05:51 Exp 7308 20 female R 1 1 3 moralOther moralOther match m m 1 0.8004 
10-May-2018_14:05:53 Exp 7308 20 female R 1 1 4 moralOther moralOther match m m 1 0.6985 
10-May-2018_14:05:56 Exp 7308 20 female R 1 1 5 moralOther moralOther match m m 1 0.5208 
10-May-2018_14:05:58 Exp 7308 20 female R 1 1 6 immoralSelf moralSelf mismatch n n 1 0.5068 
10-May-2018_14:06:00 Exp 7308 20 female R 1 1 7 moralSelf moralSelf match m m 1 0.4969 
10-May-2018_14:06:02 Exp 7308 20 female R 1 1 8 immoralOther immoralOther match m m 1 0.6570 
10-May-2018_14:06:04 Exp 7308 20 female R 1 1 9 moralOther immoralOther mismatch n n 1 0.6312 
10-May-2018_14:06:07 Exp 7308 20 female R 1 1 10 moralOther moralSelf mismatch n n 1 0.5473 
10-May-2018_14:06:09 Exp 7308 20 female R 1 1 11 immoralOther immoralSelf mismatch n n 1 0.6234 
10-May-2018_14:06:11 Exp 7308 20 female R 1 1 12 immoralSelf moralSelf mismatch n n 1 0.6856 
10-May-2018_14:06:13 Exp 7308 20 female R 1 1 13 moralSelf immoralSelf mismatch n n 1 0.6237 
10-May-2018_14:06:16 Exp 7308 20 female R 1 1 14 moralSelf moralSelf match m m 1 0.5898 
10-May-2018_14:06:18 Exp 7308 20 female R 1 1 15 moralSelf moralOther mismatch n n 1 0.7060 
10-May-2018_14:06:20 Exp 7308 20 female R 1 1 16 immoralOther immoralOther match m m 1 0.7041 
10-May-2018_14:06:23 Exp 7308 20 female R 1 1 17 immoralSelf immoralSelf match m NA -1 1.0850 
10-May-2018_14:06:25 Exp 7308 20 female R 1 1 18 immoralSelf immoralSelf match m m 1 0.5924 
10-May-2018_14:06:27 Exp 7308 20 female R 1 1 19 moralOther immoralOther mismatch n n 1 0.7245 
10-May-2018_14:06:30 Exp 7308 20 female R 1 1 20 immoralSelf moralOther mismatch n n 1 0.8867 
10-May-2018_14:06:32 Exp 7308 20 female R 1 1 21 immoralSelf immoralSelf match m m 1 0.7127 
10-May-2018_14:06:35 Exp 7308 20 female R 1 1 22 moralSelf moralOther mismatch n m 0 0.6129 
10-May-2018_14:06:37 Exp 7308 20 female R 1 1 23 moralSelf moralSelf match m m 1 0.5490 
10-May-2018_14:06:39 Exp 7308 20 female R 1 1 24 immoralOther moralOther mismatch n n 1 0.7212 
10-May-2018_14:06:41 Exp 7308 20 female R 1 2 1 immoralOther immoralSelf mismatch n n 1 0.5872 
10-May-2018_14:06:44 Exp 7308 20 female R 1 2 2 moralSelf immoralSelf mismatch n n 1 0.6634 
10-May-2018_14:06:46 Exp 7308 20 female R 1 2 3 immoralSelf moralSelf mismatch n n 1 0.7015 
10-May-2018_14:06:49 Exp 7308 20 female R 1 2 4 moralOther moralOther match m n 0 1.0037 
10-May-2018_14:06:51 Exp 7308 20 female R 1 2 5 immoralSelf immoralSelf match m m 1 0.7498 
10-May-2018_14:06:53 Exp 7308 20 female R 1 2 6 moralSelf moralSelf match m m 1 0.6260 
10-May-2018_14:06:55 Exp 7308 20 female R 1 2 7 moralSelf immoralOther mismatch n n 1 0.6240 
10-May-2018_14:06:58 Exp 7308 20 female R 1 2 8 immoralOther moralSelf mismatch n n 1 0.5742 
10-May-2018_14:07:00 Exp 7308 20 female R 1 2 9 immoralSelf immoralSelf match m m 1 0.5984 
10-May-2018_14:07:02 Exp 7308 20 female R 1 2 10 moralSelf immoralSelf mismatch n n 1 0.6085 
10-May-2018_14:07:04 Exp 7308 20 female R 1 2 11 immoralOther moralOther mismatch n n 1 0.5525 
10-May-2018_14:07:07 Exp 7308 20 female R 1 2 12 moralSelf moralSelf match m m 1 0.6447 
10-May-2018_14:07:09 Exp 7308 20 female R 1 2 13 moralOther immoralSelf mismatch n n 1 0.8309 
10-May-2018_14:07:11 Exp 7308 20 female R 1 2 14 immoralOther immoralOther match m m 1 0.7470 
10-May-2018_14:07:14 Exp 7308 20 female R 1 2 15 moralOther immoralOther mismatch n n 1 0.6171 
10-May-2018_14:07:16 Exp 7308 20 female R 1 2 16 immoralOther immoralOther match m m 1 0.6712 
10-May-2018_14:07:18 Exp 7308 20 female R 1 2 17 moralOther moralOther match m m 1 0.6114 
10-May-2018_14:07:20 Exp 7308 20 female R 1 2 18 immoralSelf immoralOther mismatch n n 1 0.6516 
10-May-2018_14:07:23 Exp 7308 20 female R 1 2 19 immoralSelf immoralSelf match m m 1 0.6596 
10-May-2018_14:07:25 Exp 7308 20 female R 1 2 20 moralOther immoralSelf mismatch n n 1 0.5378 
10-May-2018_14:07:27 Exp 7308 20 female R 1 2 21 immoralSelf moralSelf mismatch n n 1 0.6482 
10-May-2018_14:07:29 Exp 7308 20 female R 1 2 22 immoralOther immoralOther match m n 0 0.6000 
10-May-2018_14:07:32 Exp 7308 20 female R 1 2 23 moralOther moralOther match m n 0 0.6021 
10-May-2018_14:07:34 Exp 7308 20 female R 1 2 24 moralSelf moralSelf match m n 0 0.5323 
Date Prac Sub Age Sex Hand Block Bin Trial Shape Label Match CorrResp Resp ACC RT
10-May-2018_14:11:34 Exp 7308 20 female R 1 1 1 immoralOther moralOther mismatch n n 1 0.8601 
10-May-2018_14:11:36 Exp 7308 20 female R 1 1 2 immoralOther immoralSelf mismatch n n 1 0.7540 
10-May-2018_14:11:39 Exp 7308 20 female R 1 1 3 immoralSelf immoralSelf match m m 1 0.7662 
10-May-2018_14:11:41 Exp 7308 20 female R 1 1 4 immoralOther immoralOther match m m 1 0.7523 
10-May-2018_14:11:44 Exp 7308 20 female R 1 1 5 moralOther immoralSelf mismatch n n 1 0.7884 
10-May-2018_14:11:46 Exp 7308 20 female R 1 1 6 immoralSelf immoralSelf match m m 1 0.5771 
10-May-2018_14:11:48 Exp 7308 20 female R 1 1 7 moralSelf moralSelf match m m 1 0.5991 
10-May-2018_14:11:50 Exp 7308 20 female R 1 1 8 moralOther moralOther match m m 1 0.6252 
10-May-2018_14:11:52 Exp 7308 20 female R 1 1 9 immoralSelf immoralOther mismatch n n 1 0.5597 
10-May-2018_14:11:55 Exp 7308 20 female R 1 1 10 moralOther moralOther match m m 1 0.6656 
10-May-2018_14:11:57 Exp 7308 20 female R 1 1 11 immoralSelf immoralOther mismatch n n 1 0.9835 
10-May-2018_14:12:00 Exp 7308 20 female R 1 1 12 moralOther immoralOther mismatch n n 1 0.6938 
10-May-2018_14:12:02 Exp 7308 20 female R 1 1 13 moralSelf immoralSelf mismatch n n 1 0.6936 
10-May-2018_14:12:04 Exp 7308 20 female R 1 1 14 moralOther immoralOther mismatch n n 1 0.5741 
10-May-2018_14:12:06 Exp 7308 20 female R 1 1 15 moralSelf moralSelf match m m 1 0.5505 
10-May-2018_14:12:09 Exp 7308 20 female R 1 1 16 immoralSelf immoralOther mismatch n n 1 0.6265 
10-May-2018_14:12:11 Exp 7308 20 female R 1 1 17 immoralSelf immoralSelf match m n 0 0.7978 
10-May-2018_14:12:13 Exp 7308 20 female R 1 1 18 moralSelf moralOther mismatch n m 0 0.6725 
10-May-2018_14:12:16 Exp 7308 20 female R 1 1 19 immoralOther moralOther mismatch n n 1 0.6121 
10-May-2018_14:12:18 Exp 7308 20 female R 1 1 20 moralSelf moralSelf match m m 1 0.7646 
10-May-2018_14:12:20 Exp 7308 20 female R 1 1 21 immoralOther immoralOther match m m 1 0.6392 
10-May-2018_14:12:23 Exp 7308 20 female R 1 1 22 immoralOther immoralOther match m m 1 0.5931 
10-May-2018_14:12:25 Exp 7308 20 female R 1 1 23 moralSelf immoralOther mismatch n n 1 0.5487 
10-May-2018_14:12:27 Exp 7308 20 female R 1 1 24 moralOther moralOther match m m 1 0.6414 
10-May-2018_14:12:29 Exp 7308 20 female R 1 2 1 immoralOther immoralOther match m m 1 0.5712 
10-May-2018_14:12:31 Exp 7308 20 female R 1 2 2 moralOther moralOther match m m 1 0.6116 
10-May-2018_14:12:34 Exp 7308 20 female R 1 2 3 immoralOther immoralOther match m m 1 0.6194 
10-May-2018_14:12:36 Exp 7308 20 female R 1 2 4 moralSelf moralSelf match m m 1 0.5941 
10-May-2018_14:12:38 Exp 7308 20 female R 1 2 5 moralSelf moralSelf match m m 1 0.5663 
10-May-2018_14:12:40 Exp 7308 20 female R 1 2 6 immoralSelf moralSelf mismatch n n 1 0.7101 
10-May-2018_14:12:43 Exp 7308 20 female R 1 2 7 immoralSelf immoralOther mismatch n n 1 0.6022 
10-May-2018_14:12:45 Exp 7308 20 female R 1 2 8 immoralOther moralOther mismatch n n 1 0.5970 
10-May-2018_14:12:47 Exp 7308 20 female R 1 2 9 moralSelf immoralSelf mismatch n n 1 0.5184 
10-May-2018_14:12:49 Exp 7308 20 female R 1 2 10 immoralOther immoralOther match m m 1 0.5921 
10-May-2018_14:12:52 Exp 7308 20 female R 1 2 11 moralOther moralOther match m m 1 0.7079 
10-May-2018_14:12:54 Exp 7308 20 female R 1 2 12 moralOther immoralOther mismatch n n 1 0.6333 
10-May-2018_14:12:56 Exp 7308 20 female R 1 2 13 moralSelf moralOther mismatch n n 1 0.6210 
10-May-2018_14:12:58 Exp 7308 20 female R 1 2 14 immoralSelf immoralOther mismatch n n 1 0.6672 
10-May-2018_14:13:01 Exp 7308 20 female R 1 2 15 moralOther immoralSelf mismatch n n 1 0.7994 
10-May-2018_14:13:03 Exp 7308 20 female R 1 2 16 moralOther moralSelf mismatch n n 1 0.6091 
10-May-2018_14:13:05 Exp 7308 20 female R 1 2 17 immoralOther moralSelf mismatch n n 1 0.5852 
10-May-2018_14:13:08 Exp 7308 20 female R 1 2 18 immoralSelf immoralSelf match m n 0 0.6479 
10-May-2018_14:13:10 Exp 7308 20 female R 1 2 19 moralSelf moralOther mismatch n n 1 0.6239 
10-May-2018_14:13:12 Exp 7308 20 female R 1 2 20 immoralSelf immoralSelf match m m 1 0.6933 
10-May-2018_14:13:14 Exp 7308 20 female R 1 2 21 moralOther moralOther match m m 1 0.7336 
10-May-2018_14:13:17 Exp 7308 20 female R 1 2 22 immoralSelf immoralSelf match m m 1 0.6300 
10-May-2018_14:13:19 Exp 7308 20 female R 1 2 23 moralSelf moralSelf match m m 1 0.5058 
10-May-2018_14:13:21 Exp 7308 20 female R 1 2 24 immoralOther moralSelf mismatch n n 1 0.5693 
