Date Sub Age Sex Hand Block Bin Trial Task Shape corrResp Resp ACC RT
07-Jun-2018_13:59:03 7343 20 female R 1 1 1 self immoralSelf J j 1 0.4173 
07-Jun-2018_13:59:04 7343 20 female R 1 1 2 self moralSelf J j 1 0.3854 
07-Jun-2018_13:59:06 7343 20 female R 1 1 3 self moralSelf J j 1 0.4410 
07-Jun-2018_13:59:08 7343 20 female R 1 1 4 self immoralOther H h 1 0.5394 
07-Jun-2018_13:59:10 7343 20 female R 1 1 5 self moralOther H h 1 0.5682 
07-Jun-2018_13:59:12 7343 20 female R 1 1 6 self immoralSelf J h 0 0.6295 
07-Jun-2018_13:59:14 7343 20 female R 1 1 7 self immoralSelf J j 1 0.5679 
07-Jun-2018_13:59:15 7343 20 female R 1 1 8 self moralSelf J j 1 0.6065 
07-Jun-2018_13:59:17 7343 20 female R 1 1 9 self immoralOther H h 1 0.5473 
07-Jun-2018_13:59:19 7343 20 female R 1 1 10 self moralOther H h 1 0.6750 
07-Jun-2018_13:59:21 7343 20 female R 1 1 11 self moralOther H h 1 0.5762 
07-Jun-2018_13:59:23 7343 20 female R 1 1 12 self moralSelf J h 0 0.8318 
07-Jun-2018_13:59:25 7343 20 female R 1 1 13 self immoralSelf J j 1 0.5533 
07-Jun-2018_13:59:27 7343 20 female R 1 1 14 self immoralOther H h 1 0.6447 
07-Jun-2018_13:59:29 7343 20 female R 1 1 15 self immoralSelf J j 1 0.5577 
07-Jun-2018_13:59:31 7343 20 female R 1 1 16 self moralSelf J j 1 0.4726 
07-Jun-2018_13:59:33 7343 20 female R 1 1 17 self immoralSelf J j 1 0.5028 
07-Jun-2018_13:59:34 7343 20 female R 1 1 18 self moralOther H j 0 0.1122 
07-Jun-2018_13:59:36 7343 20 female R 1 1 19 self immoralOther H h 1 0.3843 
07-Jun-2018_13:59:38 7343 20 female R 1 1 20 self moralSelf J j 1 0.3162 
07-Jun-2018_13:59:39 7343 20 female R 1 1 21 self moralOther H h 1 0.4899 
07-Jun-2018_13:59:41 7343 20 female R 1 1 22 self immoralOther H j 0 0.4011 
07-Jun-2018_13:59:43 7343 20 female R 1 1 23 self moralOther H h 1 0.5173 
07-Jun-2018_13:59:44 7343 20 female R 1 1 24 self immoralOther H h 1 0.5141 
07-Jun-2018_13:59:46 7343 20 female R 1 2 1 self moralOther H h 1 0.4973 
07-Jun-2018_13:59:48 7343 20 female R 1 2 2 self moralOther H h 1 0.3886 
07-Jun-2018_13:59:49 7343 20 female R 1 2 3 self moralSelf J h 0 0.4099 
07-Jun-2018_13:59:51 7343 20 female R 1 2 4 self moralSelf J j 1 0.5158 
07-Jun-2018_13:59:53 7343 20 female R 1 2 5 self immoralSelf J j 1 0.5681 
07-Jun-2018_13:59:54 7343 20 female R 1 2 6 self immoralSelf J j 1 0.4920 
07-Jun-2018_13:59:56 7343 20 female R 1 2 7 self immoralSelf J j 1 0.2779 
07-Jun-2018_13:59:58 7343 20 female R 1 2 8 self moralSelf J j 1 0.3401 
07-Jun-2018_14:00:00 7343 20 female R 1 2 9 self immoralSelf J h 0 0.2804 
07-Jun-2018_14:00:01 7343 20 female R 1 2 10 self moralOther H j 0 0.3482 
07-Jun-2018_14:00:03 7343 20 female R 1 2 11 self immoralOther H h 1 0.6406 
07-Jun-2018_14:00:05 7343 20 female R 1 2 12 self moralOther H h 1 0.5805 
07-Jun-2018_14:00:06 7343 20 female R 1 2 13 self immoralOther H h 1 0.4294 
07-Jun-2018_14:00:08 7343 20 female R 1 2 14 self immoralOther H h 1 0.4874 
07-Jun-2018_14:00:10 7343 20 female R 1 2 15 self moralSelf J j 1 0.6112 
07-Jun-2018_14:00:12 7343 20 female R 1 2 16 self moralSelf J j 1 0.4715 
07-Jun-2018_14:00:14 7343 20 female R 1 2 17 self immoralSelf J j 1 0.4462 
07-Jun-2018_14:00:15 7343 20 female R 1 2 18 self immoralOther H j 0 0.4142 
07-Jun-2018_14:00:17 7343 20 female R 1 2 19 self immoralOther H h 1 0.4119 
07-Jun-2018_14:00:19 7343 20 female R 1 2 20 self moralSelf J h 0 0.3743 
07-Jun-2018_14:00:20 7343 20 female R 1 2 21 self immoralSelf J j 1 0.3876 
07-Jun-2018_14:00:22 7343 20 female R 1 2 22 self moralOther H h 1 0.5016 
07-Jun-2018_14:00:24 7343 20 female R 1 2 23 self moralOther H h 1 0.6442 
07-Jun-2018_14:00:26 7343 20 female R 1 2 24 self immoralOther H h 1 0.5149 
07-Jun-2018_14:01:15 7343 20 female R 1 3 1 self moralSelf J j 1 0.4746 
07-Jun-2018_14:01:17 7343 20 female R 1 3 2 self moralOther H h 1 0.5725 
07-Jun-2018_14:01:18 7343 20 female R 1 3 3 self immoralSelf J j 1 0.3693 
07-Jun-2018_14:01:20 7343 20 female R 1 3 4 self moralOther H j 0 0.5060 
07-Jun-2018_14:01:22 7343 20 female R 1 3 5 self moralSelf J j 1 0.5953 
07-Jun-2018_14:01:24 7343 20 female R 1 3 6 self immoralSelf J j 1 0.3060 
07-Jun-2018_14:01:25 7343 20 female R 1 3 7 self immoralOther H h 1 0.3564 
07-Jun-2018_14:01:27 7343 20 female R 1 3 8 self immoralOther H h 1 0.3848 
07-Jun-2018_14:01:28 7343 20 female R 1 3 9 self immoralOther H h 1 0.3448 
07-Jun-2018_14:01:29 7343 20 female R 1 3 10 self immoralSelf J j 1 0.4281 
07-Jun-2018_14:01:31 7343 20 female R 1 3 11 self immoralSelf J j 1 0.3872 
07-Jun-2018_14:01:33 7343 20 female R 1 3 12 self immoralOther H h 1 0.5953 
07-Jun-2018_14:01:34 7343 20 female R 1 3 13 self immoralOther H h 1 0.5493 
07-Jun-2018_14:01:36 7343 20 female R 1 3 14 self immoralOther H h 1 0.4139 
07-Jun-2018_14:01:37 7343 20 female R 1 3 15 self immoralSelf J j 1 0.4732 
07-Jun-2018_14:01:39 7343 20 female R 1 3 16 self moralSelf J j 1 0.4808 
07-Jun-2018_14:01:41 7343 20 female R 1 3 17 self moralOther H h 1 0.4921 
07-Jun-2018_14:01:43 7343 20 female R 1 3 18 self moralSelf J j 1 0.4084 
07-Jun-2018_14:01:45 7343 20 female R 1 3 19 self moralOther H h 1 0.5022 
07-Jun-2018_14:01:46 7343 20 female R 1 3 20 self immoralSelf J j 1 0.4218 
07-Jun-2018_14:01:48 7343 20 female R 1 3 21 self moralSelf J j 1 0.4849 
07-Jun-2018_14:01:50 7343 20 female R 1 3 22 self moralOther H h 1 0.4718 
07-Jun-2018_14:01:51 7343 20 female R 1 3 23 self moralSelf J j 1 0.4092 
07-Jun-2018_14:01:53 7343 20 female R 1 3 24 self moralOther H h 1 0.5232 
07-Jun-2018_14:01:55 7343 20 female R 1 4 1 self moralOther H h 1 0.5087 
07-Jun-2018_14:01:56 7343 20 female R 1 4 2 self moralOther H h 1 0.3412 
07-Jun-2018_14:01:58 7343 20 female R 1 4 3 self immoralOther H h 1 0.6039 
07-Jun-2018_14:02:00 7343 20 female R 1 4 4 self immoralSelf J j 1 0.3889 
07-Jun-2018_14:02:02 7343 20 female R 1 4 5 self moralOther H h 1 0.4854 
07-Jun-2018_14:02:03 7343 20 female R 1 4 6 self immoralSelf J j 1 0.4766 
07-Jun-2018_14:02:05 7343 20 female R 1 4 7 self immoralOther H h 1 0.4268 
07-Jun-2018_14:02:07 7343 20 female R 1 4 8 self moralSelf J h 0 0.3609 
07-Jun-2018_14:02:08 7343 20 female R 1 4 9 self moralSelf J h 0 0.4236 
07-Jun-2018_14:02:10 7343 20 female R 1 4 10 self moralOther H h 1 0.5262 
07-Jun-2018_14:02:12 7343 20 female R 1 4 11 self immoralOther H h 1 0.6526 
07-Jun-2018_14:02:13 7343 20 female R 1 4 12 self immoralSelf J j 1 0.4917 
07-Jun-2018_14:02:15 7343 20 female R 1 4 13 self immoralOther H h 1 0.6371 
07-Jun-2018_14:02:17 7343 20 female R 1 4 14 self moralSelf J j 1 0.5144 
07-Jun-2018_14:02:19 7343 20 female R 1 4 15 self immoralSelf J j 1 0.4946 
07-Jun-2018_14:02:20 7343 20 female R 1 4 16 self immoralSelf J j 1 0.3813 
07-Jun-2018_14:02:22 7343 20 female R 1 4 17 self immoralOther H h 1 0.5108 
07-Jun-2018_14:02:24 7343 20 female R 1 4 18 self immoralOther H h 1 0.5640 
07-Jun-2018_14:02:26 7343 20 female R 1 4 19 self moralOther H h 1 0.7463 
07-Jun-2018_14:02:27 7343 20 female R 1 4 20 self moralSelf J j 1 0.4800 
07-Jun-2018_14:02:29 7343 20 female R 1 4 21 self moralOther H h 1 0.5915 
07-Jun-2018_14:02:31 7343 20 female R 1 4 22 self moralSelf J j 1 0.5093 
07-Jun-2018_14:02:33 7343 20 female R 1 4 23 self immoralSelf J j 1 0.3131 
07-Jun-2018_14:02:35 7343 20 female R 1 4 24 self moralSelf J j 1 0.4557 
07-Jun-2018_14:02:44 7343 20 female R 1 5 1 self moralSelf J j 1 0.5291 
07-Jun-2018_14:02:46 7343 20 female R 1 5 2 self moralOther H h 1 0.6031 
07-Jun-2018_14:02:47 7343 20 female R 1 5 3 self immoralSelf J j 1 0.3979 
07-Jun-2018_14:02:49 7343 20 female R 1 5 4 self moralSelf J j 1 0.4625 
07-Jun-2018_14:02:51 7343 20 female R 1 5 5 self moralSelf J j 1 0.4174 
07-Jun-2018_14:02:52 7343 20 female R 1 5 6 self moralSelf J j 1 0.3488 
07-Jun-2018_14:02:54 7343 20 female R 1 5 7 self immoralSelf J j 1 0.5776 
07-Jun-2018_14:02:56 7343 20 female R 1 5 8 self immoralOther H h 1 0.5626 
07-Jun-2018_14:02:58 7343 20 female R 1 5 9 self moralSelf J j 1 0.4981 
07-Jun-2018_14:03:00 7343 20 female R 1 5 10 self immoralOther H h 1 0.4686 
07-Jun-2018_14:03:01 7343 20 female R 1 5 11 self immoralSelf J j 1 0.3731 
07-Jun-2018_14:03:03 7343 20 female R 1 5 12 self moralOther H h 1 0.5492 
07-Jun-2018_14:03:05 7343 20 female R 1 5 13 self immoralOther H h 1 0.4302 
07-Jun-2018_14:03:07 7343 20 female R 1 5 14 self moralSelf J j 1 0.5357 
07-Jun-2018_14:03:09 7343 20 female R 1 5 15 self immoralSelf J j 1 0.5194 
07-Jun-2018_14:03:11 7343 20 female R 1 5 16 self moralOther H h 1 0.6879 
07-Jun-2018_14:03:13 7343 20 female R 1 5 17 self moralOther H h 1 0.6089 
07-Jun-2018_14:03:14 7343 20 female R 1 5 18 self moralOther H h 1 0.4527 
07-Jun-2018_14:03:16 7343 20 female R 1 5 19 self immoralSelf J j 1 0.5605 
07-Jun-2018_14:03:18 7343 20 female R 1 5 20 self immoralSelf J j 1 0.4312 
07-Jun-2018_14:03:20 7343 20 female R 1 5 21 self immoralOther H h 1 0.5437 
07-Jun-2018_14:03:21 7343 20 female R 1 5 22 self moralOther H h 1 0.6007 
07-Jun-2018_14:03:23 7343 20 female R 1 5 23 self immoralOther H h 1 0.4903 
07-Jun-2018_14:03:25 7343 20 female R 1 5 24 self immoralOther H h 1 0.3929 
Date Sub Age Sex Hand Block Bin Trial Task Shape corrResp Resp ACC RT
07-Jun-2018_14:06:49 7343 20 female R 2 1 1 moral immoralSelf Y y 1 0.7802 
07-Jun-2018_14:06:51 7343 20 female R 2 1 2 moral moralOther U u 1 1.0335 
07-Jun-2018_14:06:53 7343 20 female R 2 1 3 moral moralOther U u 1 0.5394 
07-Jun-2018_14:06:55 7343 20 female R 2 1 4 moral immoralSelf Y y 1 0.7650 
07-Jun-2018_14:06:57 7343 20 female R 2 1 5 moral moralOther U u 1 0.9326 
07-Jun-2018_14:06:59 7343 20 female R 2 1 6 moral moralSelf U u 1 0.9425 
07-Jun-2018_14:07:02 7343 20 female R 2 1 7 moral immoralSelf Y y 1 0.8034 
07-Jun-2018_14:07:04 7343 20 female R 2 1 8 moral moralSelf U u 1 0.6435 
07-Jun-2018_14:07:06 7343 20 female R 2 1 9 moral moralSelf U u 1 0.4826 
07-Jun-2018_14:07:08 7343 20 female R 2 1 10 moral immoralOther Y y 1 0.7862 
07-Jun-2018_14:07:10 7343 20 female R 2 1 11 moral immoralOther Y y 1 0.4117 
07-Jun-2018_14:07:11 7343 20 female R 2 1 12 moral immoralOther Y y 1 0.4339 
07-Jun-2018_14:07:13 7343 20 female R 2 1 13 moral moralSelf U u 1 0.5120 
07-Jun-2018_14:07:15 7343 20 female R 2 1 14 moral immoralSelf Y y 1 0.7032 
07-Jun-2018_14:07:17 7343 20 female R 2 1 15 moral moralSelf U u 1 0.5927 
07-Jun-2018_14:07:18 7343 20 female R 2 1 16 moral immoralOther Y y 1 0.7067 
07-Jun-2018_14:07:21 7343 20 female R 2 1 17 moral moralOther U u 1 0.6625 
07-Jun-2018_14:07:23 7343 20 female R 2 1 18 moral moralSelf U u 1 0.6052 
07-Jun-2018_14:07:24 7343 20 female R 2 1 19 moral moralOther U u 1 0.5869 
07-Jun-2018_14:07:26 7343 20 female R 2 1 20 moral immoralOther Y y 1 0.8435 
07-Jun-2018_14:07:28 7343 20 female R 2 1 21 moral immoralOther Y y 1 0.6299 
07-Jun-2018_14:07:30 7343 20 female R 2 1 22 moral moralOther U u 1 0.6860 
07-Jun-2018_14:07:32 7343 20 female R 2 1 23 moral immoralSelf Y y 1 0.6442 
07-Jun-2018_14:07:34 7343 20 female R 2 1 24 moral immoralSelf Y y 1 0.7294 
07-Jun-2018_14:07:36 7343 20 female R 2 2 1 moral moralOther U u 1 0.6980 
07-Jun-2018_14:07:38 7343 20 female R 2 2 2 moral moralSelf U u 1 0.5517 
07-Jun-2018_14:07:40 7343 20 female R 2 2 3 moral immoralOther Y y 1 0.7212 
07-Jun-2018_14:07:42 7343 20 female R 2 2 4 moral moralSelf U u 1 0.5171 
07-Jun-2018_14:07:44 7343 20 female R 2 2 5 moral moralSelf U u 1 0.5147 
07-Jun-2018_14:07:46 7343 20 female R 2 2 6 moral immoralSelf Y y 1 0.6852 
07-Jun-2018_14:07:48 7343 20 female R 2 2 7 moral immoralOther Y y 1 0.6227 
07-Jun-2018_14:07:50 7343 20 female R 2 2 8 moral moralOther U u 1 0.5771 
07-Jun-2018_14:07:51 7343 20 female R 2 2 9 moral moralOther U u 1 0.4384 
07-Jun-2018_14:07:53 7343 20 female R 2 2 10 moral immoralSelf Y y 1 0.5128 
07-Jun-2018_14:07:54 7343 20 female R 2 2 11 moral immoralSelf Y y 1 0.3585 
07-Jun-2018_14:07:56 7343 20 female R 2 2 12 moral immoralSelf Y y 1 0.3746 
07-Jun-2018_14:07:57 7343 20 female R 2 2 13 moral immoralSelf Y y 1 0.4443 
07-Jun-2018_14:07:59 7343 20 female R 2 2 14 moral immoralOther Y y 1 0.6825 
07-Jun-2018_14:08:01 7343 20 female R 2 2 15 moral moralOther U u 1 0.6812 
07-Jun-2018_14:08:03 7343 20 female R 2 2 16 moral immoralOther Y y 1 0.6233 
07-Jun-2018_14:08:05 7343 20 female R 2 2 17 moral immoralOther Y y 1 0.6173 
07-Jun-2018_14:08:07 7343 20 female R 2 2 18 moral moralSelf U u 1 0.5045 
07-Jun-2018_14:08:08 7343 20 female R 2 2 19 moral moralSelf U u 1 0.4189 
07-Jun-2018_14:08:10 7343 20 female R 2 2 20 moral immoralSelf Y y 1 0.4679 
07-Jun-2018_14:08:12 7343 20 female R 2 2 21 moral moralSelf U u 1 0.6157 
07-Jun-2018_14:08:13 7343 20 female R 2 2 22 moral moralOther U u 1 0.7329 
07-Jun-2018_14:08:15 7343 20 female R 2 2 23 moral moralOther U u 1 0.3692 
07-Jun-2018_14:08:17 7343 20 female R 2 2 24 moral immoralOther Y y 1 0.6370 
07-Jun-2018_14:08:25 7343 20 female R 2 3 1 moral moralSelf U u 1 0.4727 
07-Jun-2018_14:08:27 7343 20 female R 2 3 2 moral immoralOther Y y 1 0.5589 
07-Jun-2018_14:08:29 7343 20 female R 2 3 3 moral moralOther U u 1 0.5713 
07-Jun-2018_14:08:31 7343 20 female R 2 3 4 moral immoralSelf Y y 1 0.4908 
07-Jun-2018_14:08:33 7343 20 female R 2 3 5 moral moralSelf U u 1 0.7709 
07-Jun-2018_14:08:35 7343 20 female R 2 3 6 moral immoralSelf Y y 1 0.4929 
07-Jun-2018_14:08:36 7343 20 female R 2 3 7 moral moralOther U u 1 0.5734 
07-Jun-2018_14:08:38 7343 20 female R 2 3 8 moral immoralOther Y y 1 0.6206 
07-Jun-2018_14:08:41 7343 20 female R 2 3 9 moral moralOther U u 1 0.8093 
07-Jun-2018_14:08:43 7343 20 female R 2 3 10 moral moralSelf U u 1 0.5121 
07-Jun-2018_14:08:44 7343 20 female R 2 3 11 moral immoralSelf Y y 1 0.5004 
07-Jun-2018_14:08:46 7343 20 female R 2 3 12 moral immoralOther Y y 1 0.6200 
07-Jun-2018_14:08:48 7343 20 female R 2 3 13 moral moralSelf U u 1 0.5029 
07-Jun-2018_14:08:49 7343 20 female R 2 3 14 moral moralSelf U u 1 0.4135 
07-Jun-2018_14:08:51 7343 20 female R 2 3 15 moral immoralSelf Y y 1 0.4842 
07-Jun-2018_14:08:53 7343 20 female R 2 3 16 moral immoralSelf Y y 1 0.4353 
07-Jun-2018_14:08:55 7343 20 female R 2 3 17 moral moralOther U u 1 0.6566 
07-Jun-2018_14:08:57 7343 20 female R 2 3 18 moral immoralOther Y y 1 0.6750 
07-Jun-2018_14:08:58 7343 20 female R 2 3 19 moral immoralOther Y y 1 0.5584 
07-Jun-2018_14:09:00 7343 20 female R 2 3 20 moral moralSelf U u 1 0.4536 
07-Jun-2018_14:09:02 7343 20 female R 2 3 21 moral moralOther U u 1 0.5449 
07-Jun-2018_14:09:04 7343 20 female R 2 3 22 moral immoralOther Y y 1 0.6245 
07-Jun-2018_14:09:05 7343 20 female R 2 3 23 moral immoralSelf Y y 1 0.5229 
07-Jun-2018_14:09:07 7343 20 female R 2 3 24 moral moralOther U u 1 0.6909 
07-Jun-2018_14:09:10 7343 20 female R 2 4 1 moral immoralOther Y y 1 0.7258 
07-Jun-2018_14:09:11 7343 20 female R 2 4 2 moral moralSelf U u 1 0.5730 
07-Jun-2018_14:09:13 7343 20 female R 2 4 3 moral moralSelf U u 1 0.4023 
07-Jun-2018_14:09:15 7343 20 female R 2 4 4 moral immoralOther Y y 1 0.5872 
07-Jun-2018_14:09:17 7343 20 female R 2 4 5 moral immoralSelf Y y 1 0.5177 
07-Jun-2018_14:09:19 7343 20 female R 2 4 6 moral moralOther U u 1 0.5418 
07-Jun-2018_14:09:21 7343 20 female R 2 4 7 moral immoralOther Y y 1 0.7574 
07-Jun-2018_14:09:23 7343 20 female R 2 4 8 moral immoralSelf Y y 1 0.6220 
07-Jun-2018_14:09:25 7343 20 female R 2 4 9 moral immoralSelf Y y 1 0.4607 
07-Jun-2018_14:09:27 7343 20 female R 2 4 10 moral moralSelf U u 1 0.5279 
07-Jun-2018_14:09:28 7343 20 female R 2 4 11 moral moralSelf U u 1 0.4797 
07-Jun-2018_14:09:30 7343 20 female R 2 4 12 moral immoralOther Y y 1 0.5860 
07-Jun-2018_14:09:32 7343 20 female R 2 4 13 moral moralOther U u 1 0.6990 
07-Jun-2018_14:09:34 7343 20 female R 2 4 14 moral immoralOther Y y 1 0.6855 
07-Jun-2018_14:09:36 7343 20 female R 2 4 15 moral immoralOther Y y 1 0.4958 
07-Jun-2018_14:09:37 7343 20 female R 2 4 16 moral moralOther U u 1 0.4616 
07-Jun-2018_14:09:39 7343 20 female R 2 4 17 moral moralOther U u 1 0.4208 
07-Jun-2018_14:09:41 7343 20 female R 2 4 18 moral immoralSelf Y y 1 0.6312 
07-Jun-2018_14:09:42 7343 20 female R 2 4 19 moral immoralSelf Y y 1 0.4981 
07-Jun-2018_14:09:44 7343 20 female R 2 4 20 moral immoralSelf Y y 1 0.4148 
07-Jun-2018_14:09:46 7343 20 female R 2 4 21 moral moralOther U u 1 0.5947 
07-Jun-2018_14:09:48 7343 20 female R 2 4 22 moral moralSelf U u 1 0.5788 
07-Jun-2018_14:09:49 7343 20 female R 2 4 23 moral moralSelf U u 1 0.4108 
07-Jun-2018_14:09:51 7343 20 female R 2 4 24 moral moralOther U u 1 0.6994 
07-Jun-2018_14:10:10 7343 20 female R 2 5 1 moral immoralSelf Y y 1 0.5674 
07-Jun-2018_14:10:12 7343 20 female R 2 5 2 moral moralOther U u 1 0.5708 
07-Jun-2018_14:10:13 7343 20 female R 2 5 3 moral moralSelf U u 1 0.5163 
07-Jun-2018_14:10:15 7343 20 female R 2 5 4 moral moralSelf U u 1 0.4454 
07-Jun-2018_14:10:17 7343 20 female R 2 5 5 moral moralOther U u 1 0.4520 
07-Jun-2018_14:10:19 7343 20 female R 2 5 6 moral moralSelf U u 1 0.4299 
07-Jun-2018_14:10:20 7343 20 female R 2 5 7 moral immoralSelf Y y 1 0.3985 
07-Jun-2018_14:10:22 7343 20 female R 2 5 8 moral moralSelf U u 1 0.4649 
07-Jun-2018_14:10:24 7343 20 female R 2 5 9 moral moralSelf U u 1 0.4551 
07-Jun-2018_14:10:26 7343 20 female R 2 5 10 moral immoralSelf Y y 1 0.4703 
07-Jun-2018_14:10:28 7343 20 female R 2 5 11 moral moralOther U u 1 0.7014 
07-Jun-2018_14:10:30 7343 20 female R 2 5 12 moral immoralOther Y y 1 0.6078 
07-Jun-2018_14:10:31 7343 20 female R 2 5 13 moral moralSelf U u 1 0.5401 
07-Jun-2018_14:10:33 7343 20 female R 2 5 14 moral immoralSelf Y y 1 0.5727 
07-Jun-2018_14:10:35 7343 20 female R 2 5 15 moral moralOther U u 1 0.6584 
07-Jun-2018_14:10:37 7343 20 female R 2 5 16 moral immoralOther Y y 1 0.5823 
07-Jun-2018_14:10:38 7343 20 female R 2 5 17 moral moralOther U u 1 0.6453 
07-Jun-2018_14:10:40 7343 20 female R 2 5 18 moral immoralSelf Y y 1 0.4996 
07-Jun-2018_14:10:42 7343 20 female R 2 5 19 moral immoralOther Y y 1 0.7453 
07-Jun-2018_14:10:44 7343 20 female R 2 5 20 moral immoralOther Y y 1 0.4800 
07-Jun-2018_14:10:46 7343 20 female R 2 5 21 moral immoralOther Y y 1 0.4114 
07-Jun-2018_14:10:48 7343 20 female R 2 5 22 moral moralOther U u 1 0.4354 
07-Jun-2018_14:10:49 7343 20 female R 2 5 23 moral immoralSelf Y y 1 0.5089 
07-Jun-2018_14:10:51 7343 20 female R 2 5 24 moral immoralOther Y y 1 0.5329 
Date Sub Age Sex Hand Block Bin Trial Task Shape corrResp Resp ACC RT
07-Jun-2018_14:14:18 7343 20 female R 3 1 1 moral moralOther U u 1 0.7273 
07-Jun-2018_14:14:20 7343 20 female R 3 1 2 moral moralSelf U u 1 0.5073 
07-Jun-2018_14:14:22 7343 20 female R 3 1 3 moral moralOther U u 1 0.6411 
07-Jun-2018_14:14:23 7343 20 female R 3 1 4 moral moralOther U u 1 0.4763 
07-Jun-2018_14:14:25 7343 20 female R 3 1 5 moral immoralOther Y y 1 0.5272 
07-Jun-2018_14:14:27 7343 20 female R 3 1 6 moral moralOther U y 0 0.5175 
07-Jun-2018_14:14:29 7343 20 female R 3 1 7 moral immoralOther Y y 1 0.6625 
07-Jun-2018_14:14:31 7343 20 female R 3 1 8 moral immoralOther Y y 1 0.7185 
07-Jun-2018_14:14:32 7343 20 female R 3 1 9 moral immoralSelf Y y 1 0.4979 
07-Jun-2018_14:14:34 7343 20 female R 3 1 10 moral immoralOther Y y 1 0.5709 
07-Jun-2018_14:14:36 7343 20 female R 3 1 11 moral immoralSelf Y y 1 0.7094 
07-Jun-2018_14:14:38 7343 20 female R 3 1 12 moral moralSelf U u 1 0.5447 
07-Jun-2018_14:14:40 7343 20 female R 3 1 13 moral immoralOther Y y 1 0.6404 
07-Jun-2018_14:14:42 7343 20 female R 3 1 14 moral moralSelf U u 1 0.5891 
07-Jun-2018_14:14:44 7343 20 female R 3 1 15 moral immoralSelf Y y 1 0.5073 
07-Jun-2018_14:14:45 7343 20 female R 3 1 16 moral immoralOther Y y 1 0.7017 
07-Jun-2018_14:14:48 7343 20 female R 3 1 17 moral immoralSelf Y y 1 0.5932 
07-Jun-2018_14:14:49 7343 20 female R 3 1 18 moral immoralSelf Y y 1 0.4911 
07-Jun-2018_14:14:51 7343 20 female R 3 1 19 moral immoralSelf Y y 1 0.4535 
07-Jun-2018_14:14:53 7343 20 female R 3 1 20 moral moralOther U u 1 0.7915 
07-Jun-2018_14:14:55 7343 20 female R 3 1 21 moral moralSelf U u 1 0.4523 
07-Jun-2018_14:14:56 7343 20 female R 3 1 22 moral moralSelf U u 1 0.4848 
07-Jun-2018_14:14:58 7343 20 female R 3 1 23 moral moralSelf U u 1 0.4091 
07-Jun-2018_14:15:00 7343 20 female R 3 1 24 moral moralOther U u 1 0.5560 
07-Jun-2018_14:15:02 7343 20 female R 3 2 1 moral immoralSelf Y y 1 0.5372 
07-Jun-2018_14:15:03 7343 20 female R 3 2 2 moral moralSelf U u 1 0.5887 
07-Jun-2018_14:15:05 7343 20 female R 3 2 3 moral moralSelf U u 1 0.5345 
07-Jun-2018_14:15:07 7343 20 female R 3 2 4 moral moralSelf U u 1 0.3691 
07-Jun-2018_14:15:09 7343 20 female R 3 2 5 moral moralOther U u 1 0.6524 
07-Jun-2018_14:15:11 7343 20 female R 3 2 6 moral immoralOther Y y 1 0.6031 
07-Jun-2018_14:15:12 7343 20 female R 3 2 7 moral immoralOther Y y 1 0.4516 
07-Jun-2018_14:15:14 7343 20 female R 3 2 8 moral moralSelf U u 1 0.5854 
07-Jun-2018_14:15:16 7343 20 female R 3 2 9 moral immoralSelf Y y 1 0.6037 
07-Jun-2018_14:15:18 7343 20 female R 3 2 10 moral immoralOther Y y 1 0.8335 
07-Jun-2018_14:15:20 7343 20 female R 3 2 11 moral immoralSelf Y y 1 0.6011 
07-Jun-2018_14:15:22 7343 20 female R 3 2 12 moral moralOther U u 1 0.5926 
07-Jun-2018_14:15:24 7343 20 female R 3 2 13 moral moralOther U u 1 0.4017 
07-Jun-2018_14:15:25 7343 20 female R 3 2 14 moral immoralSelf Y y 1 0.4710 
07-Jun-2018_14:15:27 7343 20 female R 3 2 15 moral immoralSelf Y y 1 0.4489 
07-Jun-2018_14:15:29 7343 20 female R 3 2 16 moral immoralOther Y y 1 0.7492 
07-Jun-2018_14:15:31 7343 20 female R 3 2 17 moral immoralOther Y y 1 0.5423 
07-Jun-2018_14:15:32 7343 20 female R 3 2 18 moral moralSelf U u 1 0.5268 
07-Jun-2018_14:15:34 7343 20 female R 3 2 19 moral moralOther U u 1 0.5824 
07-Jun-2018_14:15:36 7343 20 female R 3 2 20 moral moralOther U u 1 0.4121 
07-Jun-2018_14:15:38 7343 20 female R 3 2 21 moral moralOther U u 1 0.3991 
07-Jun-2018_14:15:40 7343 20 female R 3 2 22 moral immoralOther Y y 1 0.6739 
07-Jun-2018_14:15:41 7343 20 female R 3 2 23 moral immoralSelf Y y 1 0.5163 
07-Jun-2018_14:15:43 7343 20 female R 3 2 24 moral moralSelf U u 1 0.4797 
07-Jun-2018_14:15:50 7343 20 female R 3 3 1 moral moralOther U u 1 0.6024 
07-Jun-2018_14:15:52 7343 20 female R 3 3 2 moral moralOther U u 1 0.3747 
07-Jun-2018_14:15:53 7343 20 female R 3 3 3 moral immoralSelf Y u 0 0.3653 
07-Jun-2018_14:15:55 7343 20 female R 3 3 4 moral immoralOther Y y 1 0.5672 
07-Jun-2018_14:15:57 7343 20 female R 3 3 5 moral immoralOther Y y 1 0.4821 
07-Jun-2018_14:15:59 7343 20 female R 3 3 6 moral immoralOther Y y 1 0.4285 
07-Jun-2018_14:16:01 7343 20 female R 3 3 7 moral moralSelf U u 1 0.6776 
07-Jun-2018_14:16:03 7343 20 female R 3 3 8 moral moralOther U u 1 0.7333 
07-Jun-2018_14:16:04 7343 20 female R 3 3 9 moral moralSelf U u 1 0.5460 
07-Jun-2018_14:16:06 7343 20 female R 3 3 10 moral moralSelf U u 1 0.5362 
07-Jun-2018_14:16:08 7343 20 female R 3 3 11 moral moralOther U u 1 0.5621 
07-Jun-2018_14:16:10 7343 20 female R 3 3 12 moral immoralSelf Y y 1 0.6258 
07-Jun-2018_14:16:12 7343 20 female R 3 3 13 moral immoralOther Y y 1 0.6870 
07-Jun-2018_14:16:14 7343 20 female R 3 3 14 moral immoralSelf Y y 1 0.4655 
07-Jun-2018_14:16:16 7343 20 female R 3 3 15 moral immoralSelf Y y 1 0.5837 
07-Jun-2018_14:16:17 7343 20 female R 3 3 16 moral moralOther U u 1 0.5903 
07-Jun-2018_14:16:20 7343 20 female R 3 3 17 moral immoralSelf Y y 1 0.5773 
07-Jun-2018_14:16:22 7343 20 female R 3 3 18 moral moralSelf U u 1 0.5702 
07-Jun-2018_14:16:24 7343 20 female R 3 3 19 moral moralSelf U u 1 0.6150 
07-Jun-2018_14:16:25 7343 20 female R 3 3 20 moral moralSelf U u 1 0.4152 
07-Jun-2018_14:16:27 7343 20 female R 3 3 21 moral immoralSelf Y y 1 0.5182 
07-Jun-2018_14:16:29 7343 20 female R 3 3 22 moral moralOther U u 1 0.6119 
07-Jun-2018_14:16:30 7343 20 female R 3 3 23 moral immoralOther Y y 1 0.4219 
07-Jun-2018_14:16:32 7343 20 female R 3 3 24 moral immoralOther Y y 1 0.3960 
07-Jun-2018_14:16:34 7343 20 female R 3 4 1 moral moralSelf U u 1 0.5063 
07-Jun-2018_14:16:35 7343 20 female R 3 4 2 moral immoralSelf Y y 1 0.3666 
07-Jun-2018_14:16:37 7343 20 female R 3 4 3 moral immoralSelf Y y 1 0.3892 
07-Jun-2018_14:16:38 7343 20 female R 3 4 4 moral immoralSelf Y y 1 0.3017 
07-Jun-2018_14:16:40 7343 20 female R 3 4 5 moral moralSelf U u 1 0.6533 
07-Jun-2018_14:16:42 7343 20 female R 3 4 6 moral immoralSelf Y y 1 0.4073 
07-Jun-2018_14:16:43 7343 20 female R 3 4 7 moral moralOther U y 0 0.3961 
07-Jun-2018_14:16:45 7343 20 female R 3 4 8 moral immoralOther Y y 1 0.4837 
07-Jun-2018_14:16:47 7343 20 female R 3 4 9 moral moralOther U u 1 0.5741 
07-Jun-2018_14:16:49 7343 20 female R 3 4 10 moral moralSelf U u 1 0.4485 
07-Jun-2018_14:16:51 7343 20 female R 3 4 11 moral immoralSelf Y y 1 0.5197 
07-Jun-2018_14:16:52 7343 20 female R 3 4 12 moral immoralOther Y y 1 0.4078 
07-Jun-2018_14:16:54 7343 20 female R 3 4 13 moral moralSelf U u 1 0.5405 
07-Jun-2018_14:16:55 7343 20 female R 3 4 14 moral immoralOther Y y 1 0.5124 
07-Jun-2018_14:16:57 7343 20 female R 3 4 15 moral moralOther U u 1 0.4630 
07-Jun-2018_14:16:59 7343 20 female R 3 4 16 moral immoralSelf Y y 1 0.4833 
07-Jun-2018_14:17:01 7343 20 female R 3 4 17 moral moralOther U u 1 0.6513 
07-Jun-2018_14:17:02 7343 20 female R 3 4 18 moral moralOther U u 1 0.4458 
07-Jun-2018_14:17:04 7343 20 female R 3 4 19 moral moralSelf U u 1 0.4111 
07-Jun-2018_14:17:06 7343 20 female R 3 4 20 moral immoralOther Y y 1 0.3979 
07-Jun-2018_14:17:07 7343 20 female R 3 4 21 moral moralSelf U y 0 0.3909 
07-Jun-2018_14:17:09 7343 20 female R 3 4 22 moral immoralOther Y y 1 0.5637 
07-Jun-2018_14:17:11 7343 20 female R 3 4 23 moral immoralOther Y y 1 0.3887 
07-Jun-2018_14:17:12 7343 20 female R 3 4 24 moral moralOther U u 1 0.4208 
07-Jun-2018_14:17:22 7343 20 female R 3 5 1 moral immoralSelf Y u 0 0.4998 
07-Jun-2018_14:17:24 7343 20 female R 3 5 2 moral moralOther U u 1 0.7272 
07-Jun-2018_14:17:26 7343 20 female R 3 5 3 moral immoralSelf Y y 1 0.6373 
07-Jun-2018_14:17:28 7343 20 female R 3 5 4 moral immoralSelf Y y 1 0.5867 
07-Jun-2018_14:17:30 7343 20 female R 3 5 5 moral immoralSelf Y y 1 0.5802 
07-Jun-2018_14:17:32 7343 20 female R 3 5 6 moral moralOther U u 1 0.5106 
07-Jun-2018_14:17:34 7343 20 female R 3 5 7 moral moralOther U u 1 0.7384 
07-Jun-2018_14:17:35 7343 20 female R 3 5 8 moral moralSelf U u 1 0.4792 
07-Jun-2018_14:17:37 7343 20 female R 3 5 9 moral immoralSelf Y u 0 0.3160 
07-Jun-2018_14:17:39 7343 20 female R 3 5 10 moral moralSelf U u 1 0.5692 
07-Jun-2018_14:17:41 7343 20 female R 3 5 11 moral moralOther U u 1 0.5062 
07-Jun-2018_14:17:42 7343 20 female R 3 5 12 moral moralSelf U u 1 0.4413 
07-Jun-2018_14:17:44 7343 20 female R 3 5 13 moral moralSelf U u 1 0.4094 
07-Jun-2018_14:17:46 7343 20 female R 3 5 14 moral moralOther U u 1 0.5520 
07-Jun-2018_14:17:47 7343 20 female R 3 5 15 moral immoralOther Y y 1 0.6496 
07-Jun-2018_14:17:49 7343 20 female R 3 5 16 moral immoralOther Y y 1 0.4332 
07-Jun-2018_14:17:51 7343 20 female R 3 5 17 moral immoralOther Y y 1 0.4502 
07-Jun-2018_14:17:53 7343 20 female R 3 5 18 moral immoralOther Y y 1 0.4046 
07-Jun-2018_14:17:55 7343 20 female R 3 5 19 moral moralSelf U u 1 0.4155 
07-Jun-2018_14:17:56 7343 20 female R 3 5 20 moral moralSelf U u 1 0.3441 
07-Jun-2018_14:17:58 7343 20 female R 3 5 21 moral immoralSelf Y y 1 0.4496 
07-Jun-2018_14:17:59 7343 20 female R 3 5 22 moral moralOther U u 1 0.4609 
07-Jun-2018_14:18:01 7343 20 female R 3 5 23 moral immoralOther Y u 0 0.4596 
07-Jun-2018_14:18:03 7343 20 female R 3 5 24 moral immoralOther Y y 1 0.4743 
Date Sub Age Sex Hand Block Bin Trial Task Shape corrResp Resp ACC RT
07-Jun-2018_14:20:25 7343 20 female R 4 1 1 self immoralOther H h 1 0.6010 
07-Jun-2018_14:20:27 7343 20 female R 4 1 2 self immoralOther H h 1 0.4811 
07-Jun-2018_14:20:29 7343 20 female R 4 1 3 self moralOther H j 0 0.8360 
07-Jun-2018_14:20:30 7343 20 female R 4 1 4 self moralOther H h 1 0.5778 
07-Jun-2018_14:20:32 7343 20 female R 4 1 5 self moralOther H h 1 0.4155 
07-Jun-2018_14:20:34 7343 20 female R 4 1 6 self immoralSelf J j 1 0.8875 
07-Jun-2018_14:20:36 7343 20 female R 4 1 7 self moralSelf J j 1 0.5846 
07-Jun-2018_14:20:38 7343 20 female R 4 1 8 self immoralOther H h 1 0.6162 
07-Jun-2018_14:20:40 7343 20 female R 4 1 9 self moralOther H h 1 0.7820 
07-Jun-2018_14:20:42 7343 20 female R 4 1 10 self moralOther H h 1 0.4620 
07-Jun-2018_14:20:44 7343 20 female R 4 1 11 self immoralOther H h 1 0.5256 
07-Jun-2018_14:20:46 7343 20 female R 4 1 12 self immoralSelf J h 0 0.5930 
07-Jun-2018_14:20:48 7343 20 female R 4 1 13 self moralSelf J j 1 0.5158 
07-Jun-2018_14:20:49 7343 20 female R 4 1 14 self moralSelf J j 1 0.4520 
07-Jun-2018_14:20:51 7343 20 female R 4 1 15 self moralSelf J j 1 0.3923 
07-Jun-2018_14:20:53 7343 20 female R 4 1 16 self immoralOther H h 1 0.5594 
07-Jun-2018_14:20:55 7343 20 female R 4 1 17 self immoralSelf J h 0 0.4987 
07-Jun-2018_14:20:56 7343 20 female R 4 1 18 self immoralSelf J j 1 0.2909 
07-Jun-2018_14:20:58 7343 20 female R 4 1 19 self moralOther H j 0 0.1062 
07-Jun-2018_14:21:00 7343 20 female R 4 1 20 self immoralSelf J h 0 0.2529 
07-Jun-2018_14:21:01 7343 20 female R 4 1 21 self immoralSelf J j 1 0.3673 
07-Jun-2018_14:21:03 7343 20 female R 4 1 22 self moralSelf J j 1 0.5844 
07-Jun-2018_14:21:05 7343 20 female R 4 1 23 self moralSelf J j 1 0.3284 
07-Jun-2018_14:21:07 7343 20 female R 4 1 24 self immoralOther H h 1 0.7312 
07-Jun-2018_14:21:09 7343 20 female R 4 2 1 self moralOther H j 0 0.7623 
07-Jun-2018_14:21:11 7343 20 female R 4 2 2 self moralSelf J j 1 0.6910 
07-Jun-2018_14:21:12 7343 20 female R 4 2 3 self moralSelf J j 1 0.4539 
07-Jun-2018_14:21:14 7343 20 female R 4 2 4 self immoralOther H h 1 0.5076 
07-Jun-2018_14:21:16 7343 20 female R 4 2 5 self immoralSelf J h 0 0.6456 
07-Jun-2018_14:21:18 7343 20 female R 4 2 6 self moralSelf J j 1 0.5195 
07-Jun-2018_14:21:20 7343 20 female R 4 2 7 self moralOther H h 1 0.7789 
07-Jun-2018_14:21:22 7343 20 female R 4 2 8 self moralOther H h 1 0.4355 
07-Jun-2018_14:21:24 7343 20 female R 4 2 9 self immoralOther H h 1 0.4736 
07-Jun-2018_14:21:25 7343 20 female R 4 2 10 self immoralSelf J j 1 0.7284 
07-Jun-2018_14:21:27 7343 20 female R 4 2 11 self moralSelf J j 1 0.4775 
07-Jun-2018_14:21:28 7343 20 female R 4 2 12 self immoralOther H j 0 0.3242 
07-Jun-2018_14:21:30 7343 20 female R 4 2 13 self immoralOther H h 1 0.4956 
07-Jun-2018_14:21:32 7343 20 female R 4 2 14 self moralSelf J j 1 0.5667 
07-Jun-2018_14:21:34 7343 20 female R 4 2 15 self moralOther H h 1 0.6727 
07-Jun-2018_14:21:36 7343 20 female R 4 2 16 self immoralOther H h 1 0.5391 
07-Jun-2018_14:21:38 7343 20 female R 4 2 17 self moralOther H h 1 0.5895 
07-Jun-2018_14:21:40 7343 20 female R 4 2 18 self immoralSelf J j 1 0.4903 
07-Jun-2018_14:21:42 7343 20 female R 4 2 19 self moralOther H h 1 0.6857 
07-Jun-2018_14:21:44 7343 20 female R 4 2 20 self immoralOther H h 1 0.9130 
07-Jun-2018_14:21:46 7343 20 female R 4 2 21 self immoralSelf J j 1 0.3636 
07-Jun-2018_14:21:48 7343 20 female R 4 2 22 self immoralSelf J j 1 0.4290 
07-Jun-2018_14:21:49 7343 20 female R 4 2 23 self moralSelf J j 1 0.4644 
07-Jun-2018_14:21:51 7343 20 female R 4 2 24 self immoralSelf J j 1 0.4107 
07-Jun-2018_14:21:57 7343 20 female R 4 3 1 self moralOther H h 1 0.5724 
07-Jun-2018_14:21:59 7343 20 female R 4 3 2 self moralOther H h 1 0.3579 
07-Jun-2018_14:22:01 7343 20 female R 4 3 3 self immoralOther H h 1 0.4921 
07-Jun-2018_14:22:02 7343 20 female R 4 3 4 self immoralSelf J j 1 0.5129 
07-Jun-2018_14:22:04 7343 20 female R 4 3 5 self immoralOther H h 1 0.5398 
07-Jun-2018_14:22:06 7343 20 female R 4 3 6 self moralSelf J j 1 0.5083 
07-Jun-2018_14:22:08 7343 20 female R 4 3 7 self moralOther H h 1 0.7023 
07-Jun-2018_14:22:10 7343 20 female R 4 3 8 self moralSelf J j 1 0.5631 
07-Jun-2018_14:22:12 7343 20 female R 4 3 9 self moralSelf J j 1 0.4413 
07-Jun-2018_14:22:13 7343 20 female R 4 3 10 self immoralOther H h 1 0.4710 
07-Jun-2018_14:22:15 7343 20 female R 4 3 11 self immoralSelf J j 1 0.4537 
07-Jun-2018_14:22:17 7343 20 female R 4 3 12 self immoralSelf J j 1 0.3808 
07-Jun-2018_14:22:19 7343 20 female R 4 3 13 self immoralOther H h 1 0.5530 
07-Jun-2018_14:22:20 7343 20 female R 4 3 14 self immoralSelf J j 1 0.4129 
07-Jun-2018_14:22:22 7343 20 female R 4 3 15 self immoralOther H h 1 0.4859 
07-Jun-2018_14:22:24 7343 20 female R 4 3 16 self moralOther H h 1 0.3843 
07-Jun-2018_14:22:25 7343 20 female R 4 3 17 self immoralSelf J j 1 0.4658 
07-Jun-2018_14:22:27 7343 20 female R 4 3 18 self moralSelf J j 1 0.4287 
07-Jun-2018_14:22:29 7343 20 female R 4 3 19 self moralSelf J j 1 0.3808 
07-Jun-2018_14:22:31 7343 20 female R 4 3 20 self moralOther H h 1 0.5809 
07-Jun-2018_14:22:33 7343 20 female R 4 3 21 self immoralSelf J j 1 0.6789 
07-Jun-2018_14:22:35 7343 20 female R 4 3 22 self moralSelf J j 1 0.4606 
07-Jun-2018_14:22:36 7343 20 female R 4 3 23 self moralOther H h 1 0.5501 
07-Jun-2018_14:22:38 7343 20 female R 4 3 24 self immoralOther H h 1 0.4579 
07-Jun-2018_14:22:40 7343 20 female R 4 4 1 self moralSelf J j 1 0.5502 
07-Jun-2018_14:22:41 7343 20 female R 4 4 2 self immoralSelf J j 1 0.4963 
07-Jun-2018_14:22:43 7343 20 female R 4 4 3 self immoralOther H h 1 0.5419 
07-Jun-2018_14:22:45 7343 20 female R 4 4 4 self moralOther H h 1 0.5193 
07-Jun-2018_14:22:47 7343 20 female R 4 4 5 self immoralOther H h 1 0.5020 
07-Jun-2018_14:22:49 7343 20 female R 4 4 6 self moralOther H h 1 0.4795 
07-Jun-2018_14:22:50 7343 20 female R 4 4 7 self immoralSelf J j 1 0.3723 
07-Jun-2018_14:22:52 7343 20 female R 4 4 8 self immoralOther H h 1 0.5258 
07-Jun-2018_14:22:54 7343 20 female R 4 4 9 self moralSelf J j 1 0.4246 
07-Jun-2018_14:22:55 7343 20 female R 4 4 10 self moralSelf J j 1 0.4704 
07-Jun-2018_14:22:57 7343 20 female R 4 4 11 self moralOther H h 1 0.6243 
07-Jun-2018_14:22:58 7343 20 female R 4 4 12 self moralOther H h 1 0.4380 
07-Jun-2018_14:23:00 7343 20 female R 4 4 13 self moralSelf J j 1 0.5219 
07-Jun-2018_14:23:02 7343 20 female R 4 4 14 self moralSelf J j 1 0.3841 
07-Jun-2018_14:23:03 7343 20 female R 4 4 15 self immoralSelf J j 1 0.4190 
07-Jun-2018_14:23:05 7343 20 female R 4 4 16 self moralOther H h 1 0.5734 
07-Jun-2018_14:23:07 7343 20 female R 4 4 17 self immoralOther H h 1 0.4893 
07-Jun-2018_14:23:09 7343 20 female R 4 4 18 self moralSelf J j 1 0.5702 
07-Jun-2018_14:23:10 7343 20 female R 4 4 19 self immoralSelf J j 1 0.3759 
07-Jun-2018_14:23:12 7343 20 female R 4 4 20 self immoralSelf J j 1 0.3666 
07-Jun-2018_14:23:14 7343 20 female R 4 4 21 self immoralSelf J j 1 0.4387 
07-Jun-2018_14:23:15 7343 20 female R 4 4 22 self immoralOther H h 1 0.4162 
07-Jun-2018_14:23:17 7343 20 female R 4 4 23 self moralOther H h 1 0.4266 
07-Jun-2018_14:23:18 7343 20 female R 4 4 24 self immoralOther H h 1 0.3494 
07-Jun-2018_14:23:40 7343 20 female R 4 5 1 self moralSelf J j 1 0.6262 
07-Jun-2018_14:23:42 7343 20 female R 4 5 2 self moralSelf J j 1 0.5354 
07-Jun-2018_14:23:44 7343 20 female R 4 5 3 self immoralOther H h 1 0.5906 
07-Jun-2018_14:23:46 7343 20 female R 4 5 4 self moralSelf J j 1 0.4912 
07-Jun-2018_14:23:48 7343 20 female R 4 5 5 self moralOther H h 1 0.6100 
07-Jun-2018_14:23:50 7343 20 female R 4 5 6 self immoralSelf J j 1 0.6327 
07-Jun-2018_14:23:52 7343 20 female R 4 5 7 self moralOther H h 1 0.4911 
07-Jun-2018_14:23:54 7343 20 female R 4 5 8 self immoralSelf J j 1 0.4267 
07-Jun-2018_14:23:56 7343 20 female R 4 5 9 self moralSelf J j 1 0.4870 
07-Jun-2018_14:23:58 7343 20 female R 4 5 10 self immoralSelf J j 1 0.4109 
07-Jun-2018_14:23:59 7343 20 female R 4 5 11 self immoralOther H h 1 0.4613 
07-Jun-2018_14:24:01 7343 20 female R 4 5 12 self immoralOther H h 1 0.4350 
07-Jun-2018_14:24:03 7343 20 female R 4 5 13 self immoralSelf J j 1 0.5377 
07-Jun-2018_14:24:05 7343 20 female R 4 5 14 self moralOther H h 1 0.6432 
07-Jun-2018_14:24:07 7343 20 female R 4 5 15 self immoralOther H h 1 0.4042 
07-Jun-2018_14:24:09 7343 20 female R 4 5 16 self moralSelf J j 1 0.5614 
07-Jun-2018_14:24:10 7343 20 female R 4 5 17 self moralOther H h 1 0.5779 
07-Jun-2018_14:24:12 7343 20 female R 4 5 18 self moralOther H h 1 0.6420 
07-Jun-2018_14:24:14 7343 20 female R 4 5 19 self immoralOther H h 1 0.6567 
07-Jun-2018_14:24:16 7343 20 female R 4 5 20 self moralSelf J j 1 0.5670 
07-Jun-2018_14:24:17 7343 20 female R 4 5 21 self immoralSelf J j 1 0.4240 
07-Jun-2018_14:24:19 7343 20 female R 4 5 22 self immoralSelf J j 1 0.3214 
07-Jun-2018_14:24:21 7343 20 female R 4 5 23 self moralOther H h 1 0.5106 
07-Jun-2018_14:24:23 7343 20 female R 4 5 24 self immoralOther H h 1 0.5940 
Date Sub Age Sex Hand Block Bin Trial Task Shape corrResp Resp ACC RT
07-Jun-2018_14:26:50 7343 20 female R 5 1 1 self immoralOther H h 1 0.6660 
07-Jun-2018_14:26:52 7343 20 female R 5 1 2 self immoralOther H h 1 0.4017 
07-Jun-2018_14:26:53 7343 20 female R 5 1 3 self immoralSelf J j 1 0.4906 
07-Jun-2018_14:26:55 7343 20 female R 5 1 4 self immoralOther H j 0 0.2691 
07-Jun-2018_14:26:56 7343 20 female R 5 1 5 self moralOther H h 1 0.5609 
07-Jun-2018_14:26:58 7343 20 female R 5 1 6 self immoralSelf J j 1 0.4745 
07-Jun-2018_14:27:00 7343 20 female R 5 1 7 self moralSelf J j 1 0.3926 
07-Jun-2018_14:27:02 7343 20 female R 5 1 8 self moralOther H h 1 0.7239 
07-Jun-2018_14:27:04 7343 20 female R 5 1 9 self immoralSelf J j 1 0.6840 
07-Jun-2018_14:27:06 7343 20 female R 5 1 10 self moralOther H h 1 0.5904 
07-Jun-2018_14:27:08 7343 20 female R 5 1 11 self immoralSelf J j 1 0.5397 
07-Jun-2018_14:27:10 7343 20 female R 5 1 12 self moralOther H h 1 0.5605 
07-Jun-2018_14:27:11 7343 20 female R 5 1 13 self moralSelf J j 1 0.5380 
07-Jun-2018_14:27:13 7343 20 female R 5 1 14 self moralOther H h 1 0.6147 
07-Jun-2018_14:27:15 7343 20 female R 5 1 15 self moralSelf J j 1 0.5848 
07-Jun-2018_14:27:17 7343 20 female R 5 1 16 self immoralSelf J h 0 0.7613 
07-Jun-2018_14:27:18 7343 20 female R 5 1 17 self immoralSelf J j 1 0.3077 
07-Jun-2018_14:27:20 7343 20 female R 5 1 18 self moralSelf J j 1 0.4602 
07-Jun-2018_14:27:22 7343 20 female R 5 1 19 self immoralOther H h 1 0.5521 
07-Jun-2018_14:27:24 7343 20 female R 5 1 20 self moralSelf J j 1 0.6796 
07-Jun-2018_14:27:26 7343 20 female R 5 1 21 self immoralOther H h 1 0.8681 
07-Jun-2018_14:27:27 7343 20 female R 5 1 22 self immoralOther H h 1 0.3914 
07-Jun-2018_14:27:29 7343 20 female R 5 1 23 self moralSelf J j 1 0.5448 
07-Jun-2018_14:27:31 7343 20 female R 5 1 24 self moralOther H h 1 0.4659 
07-Jun-2018_14:27:32 7343 20 female R 5 2 1 self immoralSelf J j 1 0.4433 
07-Jun-2018_14:27:34 7343 20 female R 5 2 2 self moralOther H h 1 0.3008 
07-Jun-2018_14:27:36 7343 20 female R 5 2 3 self moralSelf J j 1 0.5578 
07-Jun-2018_14:27:37 7343 20 female R 5 2 4 self immoralOther H h 1 0.4841 
07-Jun-2018_14:27:39 7343 20 female R 5 2 5 self immoralSelf J j 1 0.3458 
07-Jun-2018_14:27:41 7343 20 female R 5 2 6 self immoralOther H h 1 0.5147 
07-Jun-2018_14:27:42 7343 20 female R 5 2 7 self immoralSelf J j 1 0.3384 
07-Jun-2018_14:27:45 7343 20 female R 5 2 8 self moralOther H h 1 0.7600 
07-Jun-2018_14:27:46 7343 20 female R 5 2 9 self moralOther H h 1 0.6317 
07-Jun-2018_14:27:48 7343 20 female R 5 2 10 self immoralOther H h 1 0.5654 
07-Jun-2018_14:27:50 7343 20 female R 5 2 11 self immoralOther H h 1 0.4384 
07-Jun-2018_14:27:52 7343 20 female R 5 2 12 self immoralSelf J j 1 0.4954 
07-Jun-2018_14:27:53 7343 20 female R 5 2 13 self moralOther H h 1 0.5412 
07-Jun-2018_14:27:55 7343 20 female R 5 2 14 self immoralSelf J j 1 0.5657 
07-Jun-2018_14:27:57 7343 20 female R 5 2 15 self immoralSelf J j 1 0.3737 
07-Jun-2018_14:27:59 7343 20 female R 5 2 16 self moralSelf J j 1 0.4571 
07-Jun-2018_14:28:00 7343 20 female R 5 2 17 self moralSelf J j 1 0.3476 
07-Jun-2018_14:28:02 7343 20 female R 5 2 18 self moralSelf J j 1 0.3449 
07-Jun-2018_14:28:03 7343 20 female R 5 2 19 self moralSelf J j 1 0.3255 
07-Jun-2018_14:28:05 7343 20 female R 5 2 20 self immoralOther H h 1 0.4094 
07-Jun-2018_14:28:07 7343 20 female R 5 2 21 self moralOther H h 1 0.4644 
07-Jun-2018_14:28:08 7343 20 female R 5 2 22 self moralOther H h 1 0.4717 
07-Jun-2018_14:28:11 7343 20 female R 5 2 23 self moralSelf J j 1 0.5791 
07-Jun-2018_14:28:13 7343 20 female R 5 2 24 self immoralOther H h 1 0.5843 
07-Jun-2018_14:28:20 7343 20 female R 5 3 1 self immoralOther H h 1 0.7027 
07-Jun-2018_14:28:22 7343 20 female R 5 3 2 self moralSelf J j 1 0.5649 
07-Jun-2018_14:28:24 7343 20 female R 5 3 3 self immoralSelf J j 1 0.6968 
07-Jun-2018_14:28:26 7343 20 female R 5 3 4 self immoralOther H h 1 0.5656 
07-Jun-2018_14:28:27 7343 20 female R 5 3 5 self moralSelf J j 1 0.4941 
07-Jun-2018_14:28:29 7343 20 female R 5 3 6 self moralOther H h 1 0.4876 
07-Jun-2018_14:28:31 7343 20 female R 5 3 7 self moralSelf J j 1 0.5094 
07-Jun-2018_14:28:33 7343 20 female R 5 3 8 self immoralOther H h 1 0.5983 
07-Jun-2018_14:28:34 7343 20 female R 5 3 9 self immoralSelf J j 1 0.4413 
07-Jun-2018_14:28:36 7343 20 female R 5 3 10 self immoralOther H h 1 0.6781 
07-Jun-2018_14:28:38 7343 20 female R 5 3 11 self immoralOther H h 1 0.4084 
07-Jun-2018_14:28:40 7343 20 female R 5 3 12 self immoralSelf J j 1 0.4597 
07-Jun-2018_14:28:41 7343 20 female R 5 3 13 self immoralSelf J j 1 0.3917 
07-Jun-2018_14:28:43 7343 20 female R 5 3 14 self immoralSelf J j 1 0.3432 
07-Jun-2018_14:28:45 7343 20 female R 5 3 15 self moralOther H h 1 0.6483 
07-Jun-2018_14:28:47 7343 20 female R 5 3 16 self immoralOther H h 1 0.5735 
07-Jun-2018_14:28:49 7343 20 female R 5 3 17 self moralSelf J j 1 0.5519 
07-Jun-2018_14:28:51 7343 20 female R 5 3 18 self moralOther H h 1 0.6042 
07-Jun-2018_14:28:53 7343 20 female R 5 3 19 self moralSelf J h 0 0.4849 
07-Jun-2018_14:28:54 7343 20 female R 5 3 20 self immoralSelf J j 1 0.4274 
07-Jun-2018_14:28:56 7343 20 female R 5 3 21 self moralOther H h 1 0.6491 
07-Jun-2018_14:28:58 7343 20 female R 5 3 22 self moralSelf J j 1 0.4361 
07-Jun-2018_14:28:59 7343 20 female R 5 3 23 self moralOther H h 1 0.5030 
07-Jun-2018_14:29:01 7343 20 female R 5 3 24 self moralOther H h 1 0.5468 
07-Jun-2018_14:29:03 7343 20 female R 5 4 1 self moralOther H h 1 0.6297 
07-Jun-2018_14:29:05 7343 20 female R 5 4 2 self moralSelf J j 1 0.5064 
07-Jun-2018_14:29:07 7343 20 female R 5 4 3 self moralOther H h 1 0.7560 
07-Jun-2018_14:29:08 7343 20 female R 5 4 4 self immoralSelf J j 1 0.5000 
07-Jun-2018_14:29:10 7343 20 female R 5 4 5 self moralSelf J j 1 0.5218 
07-Jun-2018_14:29:12 7343 20 female R 5 4 6 self moralOther H h 1 0.4127 
07-Jun-2018_14:29:14 7343 20 female R 5 4 7 self moralSelf J j 1 0.7935 
07-Jun-2018_14:29:16 7343 20 female R 5 4 8 self moralOther H h 1 0.3615 
07-Jun-2018_14:29:18 7343 20 female R 5 4 9 self immoralOther H h 1 0.6925 
07-Jun-2018_14:29:20 7343 20 female R 5 4 10 self immoralSelf J j 1 0.5885 
07-Jun-2018_14:29:22 7343 20 female R 5 4 11 self moralOther H h 1 0.6879 
07-Jun-2018_14:29:23 7343 20 female R 5 4 12 self moralSelf J j 1 0.5821 
07-Jun-2018_14:29:25 7343 20 female R 5 4 13 self immoralSelf J j 1 0.5351 
07-Jun-2018_14:29:27 7343 20 female R 5 4 14 self moralSelf J j 1 0.4415 
07-Jun-2018_14:29:29 7343 20 female R 5 4 15 self immoralOther H h 1 0.5649 
07-Jun-2018_14:29:30 7343 20 female R 5 4 16 self immoralSelf J j 1 0.4295 
07-Jun-2018_14:29:32 7343 20 female R 5 4 17 self immoralOther H h 1 0.5476 
07-Jun-2018_14:29:34 7343 20 female R 5 4 18 self immoralOther H h 1 0.4926 
07-Jun-2018_14:29:36 7343 20 female R 5 4 19 self moralSelf J j 1 0.5958 
07-Jun-2018_14:29:37 7343 20 female R 5 4 20 self immoralSelf J j 1 0.4001 
07-Jun-2018_14:29:39 7343 20 female R 5 4 21 self immoralOther H h 1 0.5530 
07-Jun-2018_14:29:41 7343 20 female R 5 4 22 self immoralOther H h 1 0.5658 
07-Jun-2018_14:29:42 7343 20 female R 5 4 23 self moralOther H h 1 0.4704 
07-Jun-2018_14:29:44 7343 20 female R 5 4 24 self immoralSelf J j 1 0.4488 
07-Jun-2018_14:29:49 7343 20 female R 5 5 1 self moralSelf J j 1 0.6076 
07-Jun-2018_14:29:51 7343 20 female R 5 5 2 self moralOther H h 1 0.4788 
07-Jun-2018_14:29:53 7343 20 female R 5 5 3 self moralOther H h 1 0.5523 
07-Jun-2018_14:29:54 7343 20 female R 5 5 4 self immoralOther H j 0 0.5165 
07-Jun-2018_14:29:56 7343 20 female R 5 5 5 self immoralSelf J j 1 0.4319 
07-Jun-2018_14:29:58 7343 20 female R 5 5 6 self moralSelf J j 1 0.4211 
07-Jun-2018_14:29:59 7343 20 female R 5 5 7 self immoralOther H h 1 0.5535 
07-Jun-2018_14:30:01 7343 20 female R 5 5 8 self moralSelf J j 1 0.5013 
07-Jun-2018_14:30:03 7343 20 female R 5 5 9 self immoralOther H h 1 0.5212 
07-Jun-2018_14:30:05 7343 20 female R 5 5 10 self immoralOther H h 1 0.5194 
07-Jun-2018_14:30:07 7343 20 female R 5 5 11 self moralOther H h 1 0.5514 
07-Jun-2018_14:30:09 7343 20 female R 5 5 12 self moralOther H h 1 0.4160 
07-Jun-2018_14:30:10 7343 20 female R 5 5 13 self moralSelf J j 1 0.5431 
07-Jun-2018_14:30:12 7343 20 female R 5 5 14 self immoralSelf J j 1 0.4047 
07-Jun-2018_14:30:14 7343 20 female R 5 5 15 self moralSelf J j 1 0.5249 
07-Jun-2018_14:30:16 7343 20 female R 5 5 16 self immoralSelf J j 1 0.3377 
07-Jun-2018_14:30:17 7343 20 female R 5 5 17 self immoralSelf J j 1 0.3603 
07-Jun-2018_14:30:19 7343 20 female R 5 5 18 self immoralOther H h 1 0.6912 
07-Jun-2018_14:30:21 7343 20 female R 5 5 19 self immoralSelf J j 1 0.6545 
07-Jun-2018_14:30:23 7343 20 female R 5 5 20 self immoralSelf J j 1 0.3619 
07-Jun-2018_14:30:25 7343 20 female R 5 5 21 self moralSelf J h 0 0.4500 
07-Jun-2018_14:30:26 7343 20 female R 5 5 22 self moralOther H h 1 0.6106 
07-Jun-2018_14:30:28 7343 20 female R 5 5 23 self moralOther H h 1 0.3377 
07-Jun-2018_14:30:29 7343 20 female R 5 5 24 self immoralOther H h 1 0.4055 
Date Sub Age Sex Hand Block Bin Trial Task Shape corrResp Resp ACC RT
07-Jun-2018_14:33:33 7343 20 female R 6 1 1 moral immoralSelf Y NA -1 1.0841 
07-Jun-2018_14:33:36 7343 20 female R 6 1 2 moral moralOther U NA -1 1.0841 
07-Jun-2018_14:33:38 7343 20 female R 6 1 3 moral immoralOther Y y 1 0.7080 
07-Jun-2018_14:33:40 7343 20 female R 6 1 4 moral moralOther U u 1 0.7024 
07-Jun-2018_14:33:42 7343 20 female R 6 1 5 moral moralSelf U u 1 0.8653 
07-Jun-2018_14:33:44 7343 20 female R 6 1 6 moral moralSelf U u 1 0.4193 
07-Jun-2018_14:33:46 7343 20 female R 6 1 7 moral immoralOther Y y 1 0.7958 
07-Jun-2018_14:33:48 7343 20 female R 6 1 8 moral immoralOther Y y 1 0.5554 
07-Jun-2018_14:33:50 7343 20 female R 6 1 9 moral immoralOther Y y 1 0.4247 
07-Jun-2018_14:33:51 7343 20 female R 6 1 10 moral immoralSelf Y y 1 0.3829 
07-Jun-2018_14:33:53 7343 20 female R 6 1 11 moral moralSelf U u 1 0.4112 
07-Jun-2018_14:33:54 7343 20 female R 6 1 12 moral moralSelf U u 1 0.3219 
07-Jun-2018_14:33:56 7343 20 female R 6 1 13 moral moralOther U y 0 0.6677 
07-Jun-2018_14:33:58 7343 20 female R 6 1 14 moral immoralSelf Y y 1 0.8707 
07-Jun-2018_14:34:00 7343 20 female R 6 1 15 moral moralSelf U u 1 0.6642 
07-Jun-2018_14:34:02 7343 20 female R 6 1 16 moral moralOther U u 1 0.7810 
07-Jun-2018_14:34:04 7343 20 female R 6 1 17 moral immoralOther Y y 1 0.7203 
07-Jun-2018_14:34:06 7343 20 female R 6 1 18 moral moralOther U u 1 0.7872 
07-Jun-2018_14:34:08 7343 20 female R 6 1 19 moral immoralSelf Y u 0 0.5328 
07-Jun-2018_14:34:10 7343 20 female R 6 1 20 moral immoralSelf Y y 1 0.4330 
07-Jun-2018_14:34:11 7343 20 female R 6 1 21 moral immoralSelf Y y 1 0.3178 
07-Jun-2018_14:34:13 7343 20 female R 6 1 22 moral moralSelf U u 1 0.6379 
07-Jun-2018_14:34:15 7343 20 female R 6 1 23 moral immoralOther Y y 1 0.3534 
07-Jun-2018_14:34:16 7343 20 female R 6 1 24 moral moralOther U y 0 0.4762 
07-Jun-2018_14:34:18 7343 20 female R 6 2 1 moral immoralSelf Y y 1 0.4655 
07-Jun-2018_14:34:20 7343 20 female R 6 2 2 moral immoralSelf Y y 1 0.5197 
07-Jun-2018_14:34:22 7343 20 female R 6 2 3 moral moralOther U u 1 0.5140 
07-Jun-2018_14:34:23 7343 20 female R 6 2 4 moral moralOther U y 0 0.4643 
07-Jun-2018_14:34:25 7343 20 female R 6 2 5 moral immoralOther Y y 1 0.6073 
07-Jun-2018_14:34:27 7343 20 female R 6 2 6 moral immoralOther Y y 1 0.4729 
07-Jun-2018_14:34:28 7343 20 female R 6 2 7 moral immoralOther Y y 1 0.3858 
07-Jun-2018_14:34:30 7343 20 female R 6 2 8 moral moralSelf U u 1 0.4853 
07-Jun-2018_14:34:32 7343 20 female R 6 2 9 moral moralOther U u 1 0.7653 
07-Jun-2018_14:34:34 7343 20 female R 6 2 10 moral immoralSelf Y y 1 0.6327 
07-Jun-2018_14:34:36 7343 20 female R 6 2 11 moral moralOther U u 1 0.4624 
07-Jun-2018_14:34:38 7343 20 female R 6 2 12 moral immoralOther Y y 1 0.7735 
07-Jun-2018_14:34:39 7343 20 female R 6 2 13 moral moralSelf U u 1 0.5910 
07-Jun-2018_14:34:41 7343 20 female R 6 2 14 moral immoralOther Y y 1 0.6701 
07-Jun-2018_14:34:43 7343 20 female R 6 2 15 moral moralSelf U u 1 0.4589 
07-Jun-2018_14:34:45 7343 20 female R 6 2 16 moral immoralOther Y y 1 0.5819 
07-Jun-2018_14:34:47 7343 20 female R 6 2 17 moral moralOther U u 1 0.6389 
07-Jun-2018_14:34:49 7343 20 female R 6 2 18 moral immoralSelf Y y 1 1.0432 
07-Jun-2018_14:34:51 7343 20 female R 6 2 19 moral immoralSelf Y y 1 0.6776 
07-Jun-2018_14:34:53 7343 20 female R 6 2 20 moral moralSelf U u 1 0.5948 
07-Jun-2018_14:34:55 7343 20 female R 6 2 21 moral immoralSelf Y y 1 0.4585 
07-Jun-2018_14:34:57 7343 20 female R 6 2 22 moral moralSelf U u 1 0.5762 
07-Jun-2018_14:34:59 7343 20 female R 6 2 23 moral moralSelf U u 1 0.5466 
07-Jun-2018_14:35:00 7343 20 female R 6 2 24 moral moralOther U y 0 0.5712 
07-Jun-2018_14:35:09 7343 20 female R 6 3 1 moral moralSelf U u 1 0.5198 
07-Jun-2018_14:35:11 7343 20 female R 6 3 2 moral moralOther U u 1 0.7321 
07-Jun-2018_14:35:13 7343 20 female R 6 3 3 moral moralOther U u 1 0.3712 
07-Jun-2018_14:35:15 7343 20 female R 6 3 4 moral immoralSelf Y u 0 0.4528 
07-Jun-2018_14:35:17 7343 20 female R 6 3 5 moral immoralSelf Y y 1 0.8796 
07-Jun-2018_14:35:19 7343 20 female R 6 3 6 moral immoralOther Y y 1 0.4623 
07-Jun-2018_14:35:21 7343 20 female R 6 3 7 moral immoralOther Y y 1 0.7089 
07-Jun-2018_14:35:23 7343 20 female R 6 3 8 moral immoralOther Y y 1 0.4474 
07-Jun-2018_14:35:25 7343 20 female R 6 3 9 moral immoralOther Y y 1 0.8093 
07-Jun-2018_14:35:26 7343 20 female R 6 3 10 moral immoralOther Y y 1 0.3624 
07-Jun-2018_14:35:28 7343 20 female R 6 3 11 moral moralSelf U u 1 0.4932 
07-Jun-2018_14:35:30 7343 20 female R 6 3 12 moral moralSelf U u 1 0.3494 
07-Jun-2018_14:35:32 7343 20 female R 6 3 13 moral moralOther U u 1 0.7593 
07-Jun-2018_14:35:33 7343 20 female R 6 3 14 moral moralOther U u 1 0.3274 
07-Jun-2018_14:35:35 7343 20 female R 6 3 15 moral immoralSelf Y u 0 0.3698 
07-Jun-2018_14:35:37 7343 20 female R 6 3 16 moral moralSelf U u 1 0.6099 
07-Jun-2018_14:35:39 7343 20 female R 6 3 17 moral moralOther U u 1 0.4518 
07-Jun-2018_14:35:41 7343 20 female R 6 3 18 moral immoralSelf Y y 1 0.5163 
07-Jun-2018_14:35:43 7343 20 female R 6 3 19 moral immoralOther Y y 1 0.4633 
07-Jun-2018_14:35:44 7343 20 female R 6 3 20 moral moralSelf U u 1 0.6021 
07-Jun-2018_14:35:47 7343 20 female R 6 3 21 moral moralOther U y 0 0.9552 
07-Jun-2018_14:35:49 7343 20 female R 6 3 22 moral immoralSelf Y y 1 0.8348 
07-Jun-2018_14:35:51 7343 20 female R 6 3 23 moral immoralSelf Y y 1 0.4335 
07-Jun-2018_14:35:53 7343 20 female R 6 3 24 moral moralSelf U u 1 0.5235 
07-Jun-2018_14:35:55 7343 20 female R 6 4 1 moral immoralSelf Y y 1 0.5014 
07-Jun-2018_14:35:56 7343 20 female R 6 4 2 moral moralSelf U u 1 0.7006 
07-Jun-2018_14:35:58 7343 20 female R 6 4 3 moral immoralOther Y y 1 0.3835 
07-Jun-2018_14:36:00 7343 20 female R 6 4 4 moral moralSelf U u 1 0.6197 
07-Jun-2018_14:36:01 7343 20 female R 6 4 5 moral immoralOther Y y 1 0.5813 
07-Jun-2018_14:36:04 7343 20 female R 6 4 6 moral immoralSelf Y y 1 1.0707 
07-Jun-2018_14:36:06 7343 20 female R 6 4 7 moral immoralOther Y y 1 0.4538 
07-Jun-2018_14:36:08 7343 20 female R 6 4 8 moral moralOther U NA -1 1.0841 
07-Jun-2018_14:36:10 7343 20 female R 6 4 9 moral moralOther U u 1 0.5073 
07-Jun-2018_14:36:12 7343 20 female R 6 4 10 moral immoralSelf Y y 1 0.6635 
07-Jun-2018_14:36:14 7343 20 female R 6 4 11 moral immoralOther Y y 1 0.6137 
07-Jun-2018_14:36:16 7343 20 female R 6 4 12 moral moralSelf U u 1 0.5710 
07-Jun-2018_14:36:17 7343 20 female R 6 4 13 moral immoralSelf Y u 0 0.3932 
07-Jun-2018_14:36:19 7343 20 female R 6 4 14 moral immoralSelf Y y 1 0.3768 
07-Jun-2018_14:36:20 7343 20 female R 6 4 15 moral moralOther U u 1 0.6281 
07-Jun-2018_14:36:23 7343 20 female R 6 4 16 moral moralOther U u 1 0.6155 
07-Jun-2018_14:36:24 7343 20 female R 6 4 17 moral moralSelf U u 1 0.5977 
07-Jun-2018_14:36:26 7343 20 female R 6 4 18 moral immoralSelf Y y 1 0.8731 
07-Jun-2018_14:36:28 7343 20 female R 6 4 19 moral moralSelf U u 1 0.4604 
07-Jun-2018_14:36:30 7343 20 female R 6 4 20 moral moralSelf U u 1 0.5217 
07-Jun-2018_14:36:32 7343 20 female R 6 4 21 moral moralOther U y 0 0.7199 
07-Jun-2018_14:36:34 7343 20 female R 6 4 22 moral immoralOther Y y 1 0.5736 
07-Jun-2018_14:36:35 7343 20 female R 6 4 23 moral moralOther U u 1 0.6165 
07-Jun-2018_14:36:37 7343 20 female R 6 4 24 moral immoralOther Y y 1 0.6773 
07-Jun-2018_14:36:54 7343 20 female R 6 5 1 moral moralSelf U u 1 0.5778 
07-Jun-2018_14:36:56 7343 20 female R 6 5 2 moral moralSelf U u 1 0.4782 
07-Jun-2018_14:36:58 7343 20 female R 6 5 3 moral moralSelf U u 1 0.3610 
07-Jun-2018_14:37:00 7343 20 female R 6 5 4 moral moralOther U y 0 0.4937 
07-Jun-2018_14:37:01 7343 20 female R 6 5 5 moral moralOther U u 1 0.4487 
07-Jun-2018_14:37:03 7343 20 female R 6 5 6 moral moralOther U u 1 0.3607 
07-Jun-2018_14:37:05 7343 20 female R 6 5 7 moral immoralSelf Y u 0 0.9444 
07-Jun-2018_14:37:08 7343 20 female R 6 5 8 moral moralOther U u 1 0.6169 
07-Jun-2018_14:37:09 7343 20 female R 6 5 9 moral immoralOther Y y 1 0.6151 
07-Jun-2018_14:37:11 7343 20 female R 6 5 10 moral moralSelf U u 1 0.5644 
07-Jun-2018_14:37:13 7343 20 female R 6 5 11 moral immoralSelf Y y 1 0.4775 
07-Jun-2018_14:37:14 7343 20 female R 6 5 12 moral immoralSelf Y y 1 0.3819 
07-Jun-2018_14:37:16 7343 20 female R 6 5 13 moral immoralOther Y y 1 0.5707 
07-Jun-2018_14:37:18 7343 20 female R 6 5 14 moral immoralOther Y y 1 0.3614 
07-Jun-2018_14:37:19 7343 20 female R 6 5 15 moral immoralOther Y y 1 0.3308 
07-Jun-2018_14:37:21 7343 20 female R 6 5 16 moral moralSelf U u 1 0.4678 
07-Jun-2018_14:37:23 7343 20 female R 6 5 17 moral moralOther U u 1 0.5569 
07-Jun-2018_14:37:25 7343 20 female R 6 5 18 moral moralSelf U u 1 0.4892 
07-Jun-2018_14:37:26 7343 20 female R 6 5 19 moral immoralSelf Y u 0 0.7086 
07-Jun-2018_14:37:28 7343 20 female R 6 5 20 moral immoralSelf Y y 1 0.5561 
07-Jun-2018_14:37:30 7343 20 female R 6 5 21 moral immoralOther Y y 1 0.7092 
07-Jun-2018_14:37:32 7343 20 female R 6 5 22 moral moralOther U NA -1 1.0841 
07-Jun-2018_14:37:34 7343 20 female R 6 5 23 moral immoralSelf Y y 1 0.5969 
07-Jun-2018_14:37:36 7343 20 female R 6 5 24 moral immoralOther Y y 1 0.5066 
