Date Sub Age Sex Hand Block Bin Trial Task Shape corrResp Resp ACC RT
09-May-2018_14:03:06 7307 22 female R 1 1 1 self moralSelf J j 1 0.5853 
09-May-2018_14:03:08 7307 22 female R 1 1 2 self moralOther H h 1 0.7436 
09-May-2018_14:03:10 7307 22 female R 1 1 3 self immoralOther H h 1 0.6594 
09-May-2018_14:03:12 7307 22 female R 1 1 4 self moralSelf J j 1 0.5504 
09-May-2018_14:03:14 7307 22 female R 1 1 5 self moralOther H h 1 0.6139 
09-May-2018_14:03:16 7307 22 female R 1 1 6 self moralSelf J j 1 0.4575 
09-May-2018_14:03:18 7307 22 female R 1 1 7 self moralOther H h 1 0.7107 
09-May-2018_14:03:20 7307 22 female R 1 1 8 self moralOther H h 1 0.6425 
09-May-2018_14:03:22 7307 22 female R 1 1 9 self immoralSelf J j 1 0.5004 
09-May-2018_14:03:24 7307 22 female R 1 1 10 self immoralSelf J j 1 0.5955 
09-May-2018_14:03:25 7307 22 female R 1 1 11 self immoralOther H h 1 0.5900 
09-May-2018_14:03:27 7307 22 female R 1 1 12 self immoralSelf J j 1 0.3595 
09-May-2018_14:03:28 7307 22 female R 1 1 13 self moralSelf J j 1 0.3850 
09-May-2018_14:03:30 7307 22 female R 1 1 14 self moralOther H j 0 0.4749 
09-May-2018_14:03:32 7307 22 female R 1 1 15 self immoralSelf J j 1 0.8491 
09-May-2018_14:03:34 7307 22 female R 1 1 16 self moralSelf J j 1 0.6436 
09-May-2018_14:03:36 7307 22 female R 1 1 17 self immoralSelf J j 1 0.6187 
09-May-2018_14:03:37 7307 22 female R 1 1 18 self immoralOther H h 1 0.4286 
09-May-2018_14:03:39 7307 22 female R 1 1 19 self moralSelf J j 1 0.4649 
09-May-2018_14:03:41 7307 22 female R 1 1 20 self immoralOther H h 1 0.6067 
09-May-2018_14:03:43 7307 22 female R 1 1 21 self immoralSelf J j 1 0.4448 
09-May-2018_14:03:45 7307 22 female R 1 1 22 self immoralOther H h 1 0.4596 
09-May-2018_14:03:47 7307 22 female R 1 1 23 self moralOther H h 1 0.7518 
09-May-2018_14:03:49 7307 22 female R 1 1 24 self immoralOther H h 1 0.5891 
09-May-2018_14:03:51 7307 22 female R 1 2 1 self immoralSelf J j 1 0.3850 
09-May-2018_14:03:52 7307 22 female R 1 2 2 self immoralSelf J h 0 0.3920 
09-May-2018_14:03:55 7307 22 female R 1 2 3 self immoralOther H h 1 1.0196 
09-May-2018_14:03:57 7307 22 female R 1 2 4 self moralSelf J j 1 0.6078 
09-May-2018_14:03:58 7307 22 female R 1 2 5 self moralOther H j 0 0.4591 
09-May-2018_14:04:00 7307 22 female R 1 2 6 self moralSelf J j 1 0.5208 
09-May-2018_14:04:02 7307 22 female R 1 2 7 self moralSelf J j 1 0.4561 
09-May-2018_14:04:04 7307 22 female R 1 2 8 self moralSelf J j 1 0.7667 
09-May-2018_14:04:06 7307 22 female R 1 2 9 self moralSelf J j 1 0.4581 
09-May-2018_14:04:08 7307 22 female R 1 2 10 self moralOther H h 1 0.6200 
09-May-2018_14:04:09 7307 22 female R 1 2 11 self immoralSelf J j 1 0.4643 
09-May-2018_14:04:11 7307 22 female R 1 2 12 self immoralOther H h 1 0.5448 
09-May-2018_14:04:13 7307 22 female R 1 2 13 self immoralOther H h 1 0.5793 
09-May-2018_14:04:15 7307 22 female R 1 2 14 self moralSelf J j 1 0.5854 
09-May-2018_14:04:17 7307 22 female R 1 2 15 self immoralOther H h 1 0.5084 
09-May-2018_14:04:18 7307 22 female R 1 2 16 self immoralOther H h 1 0.4896 
09-May-2018_14:04:20 7307 22 female R 1 2 17 self immoralOther H h 1 0.4483 
09-May-2018_14:04:22 7307 22 female R 1 2 18 self moralOther H h 1 0.5918 
09-May-2018_14:04:23 7307 22 female R 1 2 19 self moralOther H h 1 0.4743 
09-May-2018_14:04:25 7307 22 female R 1 2 20 self immoralSelf J j 1 0.3860 
09-May-2018_14:04:27 7307 22 female R 1 2 21 self moralOther H h 1 0.6703 
09-May-2018_14:04:29 7307 22 female R 1 2 22 self immoralSelf J j 1 0.4320 
09-May-2018_14:04:31 7307 22 female R 1 2 23 self moralOther H h 1 0.5142 
09-May-2018_14:04:32 7307 22 female R 1 2 24 self immoralSelf J j 1 0.4737 
09-May-2018_14:04:46 7307 22 female R 1 3 1 self immoralOther H h 1 0.6333 
09-May-2018_14:04:48 7307 22 female R 1 3 2 self immoralSelf J j 1 0.4678 
09-May-2018_14:04:50 7307 22 female R 1 3 3 self moralOther H h 1 0.6015 
09-May-2018_14:04:51 7307 22 female R 1 3 4 self immoralSelf J j 1 0.3272 
09-May-2018_14:04:53 7307 22 female R 1 3 5 self moralOther H h 1 0.5353 
09-May-2018_14:04:55 7307 22 female R 1 3 6 self moralSelf J j 1 0.3932 
09-May-2018_14:04:57 7307 22 female R 1 3 7 self moralSelf J j 1 0.6155 
09-May-2018_14:04:59 7307 22 female R 1 3 8 self moralOther H h 1 0.5916 
09-May-2018_14:05:01 7307 22 female R 1 3 9 self moralSelf J j 1 0.5050 
09-May-2018_14:05:02 7307 22 female R 1 3 10 self immoralSelf J j 1 0.3767 
09-May-2018_14:05:04 7307 22 female R 1 3 11 self immoralSelf J j 1 0.3678 
09-May-2018_14:05:06 7307 22 female R 1 3 12 self immoralOther H h 1 0.7260 
09-May-2018_14:05:08 7307 22 female R 1 3 13 self immoralOther H h 1 0.4131 
09-May-2018_14:05:10 7307 22 female R 1 3 14 self moralOther H h 1 0.3576 
09-May-2018_14:05:11 7307 22 female R 1 3 15 self immoralSelf J j 1 0.2965 
09-May-2018_14:05:13 7307 22 female R 1 3 16 self moralSelf J j 1 0.4391 
09-May-2018_14:05:15 7307 22 female R 1 3 17 self moralOther H h 1 0.7475 
09-May-2018_14:05:17 7307 22 female R 1 3 18 self immoralSelf J j 1 0.4243 
09-May-2018_14:05:19 7307 22 female R 1 3 19 self moralOther H h 1 0.6070 
09-May-2018_14:05:20 7307 22 female R 1 3 20 self immoralOther H h 1 0.6127 
09-May-2018_14:05:22 7307 22 female R 1 3 21 self immoralOther H h 1 0.4326 
09-May-2018_14:05:24 7307 22 female R 1 3 22 self immoralOther H h 1 0.3837 
09-May-2018_14:05:26 7307 22 female R 1 3 23 self moralSelf J h 0 0.4670 
09-May-2018_14:05:27 7307 22 female R 1 3 24 self moralSelf J j 1 0.6280 
09-May-2018_14:05:29 7307 22 female R 1 4 1 self moralOther H h 1 0.5410 
09-May-2018_14:05:31 7307 22 female R 1 4 2 self immoralOther H h 1 0.5815 
09-May-2018_14:05:33 7307 22 female R 1 4 3 self immoralOther H h 1 0.4419 
09-May-2018_14:05:34 7307 22 female R 1 4 4 self moralOther H h 1 0.5083 
09-May-2018_14:05:36 7307 22 female R 1 4 5 self moralSelf J j 1 0.5366 
09-May-2018_14:05:38 7307 22 female R 1 4 6 self immoralOther H h 1 0.6154 
09-May-2018_14:05:40 7307 22 female R 1 4 7 self moralOther H h 1 0.4878 
09-May-2018_14:05:42 7307 22 female R 1 4 8 self moralSelf J j 1 0.5270 
09-May-2018_14:05:44 7307 22 female R 1 4 9 self moralSelf J j 1 0.5228 
09-May-2018_14:05:45 7307 22 female R 1 4 10 self moralOther H h 1 0.5422 
09-May-2018_14:05:47 7307 22 female R 1 4 11 self moralSelf J j 1 0.4688 
09-May-2018_14:05:49 7307 22 female R 1 4 12 self moralOther H h 1 0.4829 
09-May-2018_14:05:51 7307 22 female R 1 4 13 self moralSelf J j 1 0.5226 
09-May-2018_14:05:53 7307 22 female R 1 4 14 self moralSelf J j 1 0.4658 
09-May-2018_14:05:54 7307 22 female R 1 4 15 self immoralOther H h 1 0.4809 
09-May-2018_14:05:56 7307 22 female R 1 4 16 self immoralSelf J j 1 0.3968 
09-May-2018_14:05:58 7307 22 female R 1 4 17 self immoralSelf J j 1 0.4237 
09-May-2018_14:06:00 7307 22 female R 1 4 18 self immoralOther H h 1 0.5743 
09-May-2018_14:06:01 7307 22 female R 1 4 19 self immoralSelf J j 1 0.4370 
09-May-2018_14:06:03 7307 22 female R 1 4 20 self immoralOther H h 1 0.4935 
09-May-2018_14:06:05 7307 22 female R 1 4 21 self immoralSelf J j 1 0.3539 
09-May-2018_14:06:06 7307 22 female R 1 4 22 self immoralSelf J j 1 0.4494 
09-May-2018_14:06:08 7307 22 female R 1 4 23 self immoralSelf J j 1 0.3789 
09-May-2018_14:06:10 7307 22 female R 1 4 24 self moralOther H h 1 0.5436 
09-May-2018_14:06:18 7307 22 female R 1 5 1 self immoralSelf J j 1 0.4734 
09-May-2018_14:06:20 7307 22 female R 1 5 2 self immoralOther H h 1 0.4570 
09-May-2018_14:06:21 7307 22 female R 1 5 3 self immoralOther H h 1 0.3898 
09-May-2018_14:06:23 7307 22 female R 1 5 4 self immoralSelf J j 1 0.4332 
09-May-2018_14:06:25 7307 22 female R 1 5 5 self immoralSelf J j 1 0.9108 
09-May-2018_14:06:27 7307 22 female R 1 5 6 self moralSelf J j 1 0.4752 
09-May-2018_14:06:29 7307 22 female R 1 5 7 self immoralOther H h 1 0.4616 
09-May-2018_14:06:31 7307 22 female R 1 5 8 self moralOther H h 1 0.9084 
09-May-2018_14:06:33 7307 22 female R 1 5 9 self immoralSelf J j 1 0.3987 
09-May-2018_14:06:35 7307 22 female R 1 5 10 self moralSelf J j 1 0.4219 
09-May-2018_14:06:36 7307 22 female R 1 5 11 self immoralSelf J h 0 0.5001 
09-May-2018_14:06:38 7307 22 female R 1 5 12 self immoralOther H h 1 0.5402 
09-May-2018_14:06:40 7307 22 female R 1 5 13 self immoralOther H h 1 0.5506 
09-May-2018_14:06:42 7307 22 female R 1 5 14 self moralOther H h 1 0.5784 
09-May-2018_14:06:44 7307 22 female R 1 5 15 self immoralSelf J j 1 0.4227 
09-May-2018_14:06:46 7307 22 female R 1 5 16 self moralSelf J j 1 0.4562 
09-May-2018_14:06:47 7307 22 female R 1 5 17 self immoralOther H h 1 0.5914 
09-May-2018_14:06:49 7307 22 female R 1 5 18 self moralSelf J h 0 0.3702 
09-May-2018_14:06:51 7307 22 female R 1 5 19 self moralSelf J h 0 0.3935 
09-May-2018_14:06:53 7307 22 female R 1 5 20 self moralOther H h 1 0.5426 
09-May-2018_14:06:55 7307 22 female R 1 5 21 self moralOther H h 1 0.6843 
09-May-2018_14:06:56 7307 22 female R 1 5 22 self moralOther H h 1 0.4455 
09-May-2018_14:06:58 7307 22 female R 1 5 23 self moralOther H h 1 0.4440 
09-May-2018_14:06:59 7307 22 female R 1 5 24 self moralSelf J j 1 0.5580 
Date Sub Age Sex Hand Block Bin Trial Task Shape corrResp Resp ACC RT
09-May-2018_14:10:04 7307 22 female R 2 1 1 moral immoralSelf U u 1 0.3968 
09-May-2018_14:10:06 7307 22 female R 2 1 2 moral moralSelf Y y 1 0.4443 
09-May-2018_14:10:08 7307 22 female R 2 1 3 moral moralSelf Y y 1 0.6010 
09-May-2018_14:10:10 7307 22 female R 2 1 4 moral immoralOther U u 1 0.4506 
09-May-2018_14:10:11 7307 22 female R 2 1 5 moral moralOther Y y 1 0.5895 
09-May-2018_14:10:13 7307 22 female R 2 1 6 moral immoralSelf U u 1 0.3872 
09-May-2018_14:10:15 7307 22 female R 2 1 7 moral immoralSelf U u 1 0.4889 
09-May-2018_14:10:17 7307 22 female R 2 1 8 moral moralSelf Y y 1 0.6819 
09-May-2018_14:10:19 7307 22 female R 2 1 9 moral immoralOther U u 1 0.5442 
09-May-2018_14:10:21 7307 22 female R 2 1 10 moral moralOther Y y 1 0.5117 
09-May-2018_14:10:22 7307 22 female R 2 1 11 moral moralOther Y y 1 0.5254 
09-May-2018_14:10:25 7307 22 female R 2 1 12 moral moralSelf Y y 1 0.8836 
09-May-2018_14:10:26 7307 22 female R 2 1 13 moral immoralSelf U u 1 0.3501 
09-May-2018_14:10:28 7307 22 female R 2 1 14 moral immoralOther U u 1 0.4335 
09-May-2018_14:10:30 7307 22 female R 2 1 15 moral immoralSelf U u 1 0.3423 
09-May-2018_14:10:31 7307 22 female R 2 1 16 moral moralSelf Y y 1 0.4326 
09-May-2018_14:10:33 7307 22 female R 2 1 17 moral immoralSelf U u 1 0.3979 
09-May-2018_14:10:35 7307 22 female R 2 1 18 moral moralOther Y y 1 0.4333 
09-May-2018_14:10:37 7307 22 female R 2 1 19 moral immoralOther U u 1 0.4357 
09-May-2018_14:10:39 7307 22 female R 2 1 20 moral moralSelf Y y 1 0.3926 
09-May-2018_14:10:40 7307 22 female R 2 1 21 moral moralOther Y y 1 0.5997 
09-May-2018_14:10:42 7307 22 female R 2 1 22 moral immoralOther U u 1 0.6571 
09-May-2018_14:10:44 7307 22 female R 2 1 23 moral moralOther Y y 1 0.5386 
09-May-2018_14:10:46 7307 22 female R 2 1 24 moral immoralOther U u 1 0.5077 
09-May-2018_14:10:47 7307 22 female R 2 2 1 moral moralOther Y y 1 0.4909 
09-May-2018_14:10:49 7307 22 female R 2 2 2 moral moralOther Y y 1 0.4221 
09-May-2018_14:10:51 7307 22 female R 2 2 3 moral moralSelf Y y 1 0.5921 
09-May-2018_14:10:53 7307 22 female R 2 2 4 moral moralSelf Y y 1 0.6496 
09-May-2018_14:10:54 7307 22 female R 2 2 5 moral immoralSelf U u 1 0.3004 
09-May-2018_14:10:56 7307 22 female R 2 2 6 moral immoralSelf U u 1 0.4506 
09-May-2018_14:10:58 7307 22 female R 2 2 7 moral immoralSelf U u 1 0.4836 
09-May-2018_14:11:00 7307 22 female R 2 2 8 moral moralSelf Y y 1 0.3981 
09-May-2018_14:11:01 7307 22 female R 2 2 9 moral immoralSelf U u 1 0.3436 
09-May-2018_14:11:03 7307 22 female R 2 2 10 moral moralOther Y y 1 0.4246 
09-May-2018_14:11:05 7307 22 female R 2 2 11 moral immoralOther U u 1 0.4505 
09-May-2018_14:11:06 7307 22 female R 2 2 12 moral moralOther Y y 1 0.4585 
09-May-2018_14:11:08 7307 22 female R 2 2 13 moral immoralOther U u 1 0.3890 
09-May-2018_14:11:09 7307 22 female R 2 2 14 moral immoralOther U u 1 0.3462 
09-May-2018_14:11:11 7307 22 female R 2 2 15 moral moralSelf Y y 1 0.4353 
09-May-2018_14:11:13 7307 22 female R 2 2 16 moral moralSelf Y y 1 0.5040 
09-May-2018_14:11:15 7307 22 female R 2 2 17 moral immoralSelf U u 1 0.3234 
09-May-2018_14:11:16 7307 22 female R 2 2 18 moral immoralOther U u 1 0.3447 
09-May-2018_14:11:18 7307 22 female R 2 2 19 moral immoralOther U u 1 0.3730 
09-May-2018_14:11:20 7307 22 female R 2 2 20 moral moralSelf Y y 1 0.4821 
09-May-2018_14:11:21 7307 22 female R 2 2 21 moral immoralSelf U u 1 0.3176 
09-May-2018_14:11:23 7307 22 female R 2 2 22 moral moralOther Y y 1 0.4783 
09-May-2018_14:11:25 7307 22 female R 2 2 23 moral moralOther Y y 1 0.4683 
09-May-2018_14:11:27 7307 22 female R 2 2 24 moral immoralOther U y 0 0.3795 
09-May-2018_14:11:47 7307 22 female R 2 3 1 moral moralSelf Y y 1 0.5572 
09-May-2018_14:11:49 7307 22 female R 2 3 2 moral moralOther Y y 1 0.5648 
09-May-2018_14:11:50 7307 22 female R 2 3 3 moral immoralSelf U u 1 0.5216 
09-May-2018_14:11:52 7307 22 female R 2 3 4 moral moralOther Y y 1 0.4892 
09-May-2018_14:11:54 7307 22 female R 2 3 5 moral moralSelf Y y 1 0.6902 
09-May-2018_14:11:56 7307 22 female R 2 3 6 moral immoralSelf U u 1 0.3586 
09-May-2018_14:11:57 7307 22 female R 2 3 7 moral immoralOther U u 1 0.3897 
09-May-2018_14:11:59 7307 22 female R 2 3 8 moral immoralOther U u 1 0.5785 
09-May-2018_14:12:00 7307 22 female R 2 3 9 moral immoralOther U u 1 0.3423 
09-May-2018_14:12:02 7307 22 female R 2 3 10 moral immoralSelf U u 1 0.4134 
09-May-2018_14:12:03 7307 22 female R 2 3 11 moral immoralSelf U u 1 0.3721 
09-May-2018_14:12:05 7307 22 female R 2 3 12 moral immoralOther U u 1 0.4117 
09-May-2018_14:12:06 7307 22 female R 2 3 13 moral immoralOther U u 1 0.3261 
09-May-2018_14:12:08 7307 22 female R 2 3 14 moral immoralOther U u 1 0.3181 
09-May-2018_14:12:09 7307 22 female R 2 3 15 moral immoralSelf U u 1 0.2877 
09-May-2018_14:12:11 7307 22 female R 2 3 16 moral moralSelf Y y 1 0.4914 
09-May-2018_14:12:12 7307 22 female R 2 3 17 moral moralOther Y y 1 0.4910 
09-May-2018_14:12:14 7307 22 female R 2 3 18 moral moralSelf Y y 1 0.4954 
09-May-2018_14:12:16 7307 22 female R 2 3 19 moral moralOther Y u 0 0.4305 
09-May-2018_14:12:18 7307 22 female R 2 3 20 moral immoralSelf U u 1 0.4526 
09-May-2018_14:12:20 7307 22 female R 2 3 21 moral moralSelf Y y 1 0.4842 
09-May-2018_14:12:21 7307 22 female R 2 3 22 moral moralOther Y y 1 0.4631 
09-May-2018_14:12:23 7307 22 female R 2 3 23 moral moralSelf Y y 1 0.4363 
09-May-2018_14:12:24 7307 22 female R 2 3 24 moral moralOther Y y 1 0.4586 
09-May-2018_14:12:26 7307 22 female R 2 4 1 moral moralOther Y y 1 0.4186 
09-May-2018_14:12:28 7307 22 female R 2 4 2 moral moralOther Y y 1 0.4691 
09-May-2018_14:12:30 7307 22 female R 2 4 3 moral immoralOther U u 1 0.5501 
09-May-2018_14:12:32 7307 22 female R 2 4 4 moral immoralSelf U u 1 0.5459 
09-May-2018_14:12:34 7307 22 female R 2 4 5 moral moralOther Y y 1 0.5215 
09-May-2018_14:12:35 7307 22 female R 2 4 6 moral immoralSelf U u 1 0.5575 
09-May-2018_14:12:37 7307 22 female R 2 4 7 moral immoralOther U u 1 0.6492 
09-May-2018_14:12:39 7307 22 female R 2 4 8 moral moralSelf Y y 1 0.5679 
09-May-2018_14:12:41 7307 22 female R 2 4 9 moral moralSelf Y y 1 0.4669 
09-May-2018_14:12:42 7307 22 female R 2 4 10 moral moralOther Y y 1 0.5261 
09-May-2018_14:12:44 7307 22 female R 2 4 11 moral immoralOther U y 0 0.6124 
09-May-2018_14:12:46 7307 22 female R 2 4 12 moral immoralSelf U u 1 0.4627 
09-May-2018_14:12:47 7307 22 female R 2 4 13 moral immoralOther U u 1 0.4595 
09-May-2018_14:12:49 7307 22 female R 2 4 14 moral moralSelf Y y 1 0.5810 
09-May-2018_14:12:51 7307 22 female R 2 4 15 moral immoralSelf U u 1 0.4182 
09-May-2018_14:12:52 7307 22 female R 2 4 16 moral immoralSelf U u 1 0.4433 
09-May-2018_14:12:54 7307 22 female R 2 4 17 moral immoralOther U u 1 0.4179 
09-May-2018_14:12:56 7307 22 female R 2 4 18 moral immoralOther U u 1 0.4213 
09-May-2018_14:12:57 7307 22 female R 2 4 19 moral moralOther Y y 1 0.5804 
09-May-2018_14:12:59 7307 22 female R 2 4 20 moral moralSelf Y y 1 0.4826 
09-May-2018_14:13:01 7307 22 female R 2 4 21 moral moralOther Y y 1 0.4823 
09-May-2018_14:13:03 7307 22 female R 2 4 22 moral moralSelf Y y 1 0.4338 
09-May-2018_14:13:05 7307 22 female R 2 4 23 moral immoralSelf U u 1 0.4682 
09-May-2018_14:13:06 7307 22 female R 2 4 24 moral moralSelf Y y 1 0.5182 
09-May-2018_14:13:12 7307 22 female R 2 5 1 moral moralSelf Y y 1 0.6685 
09-May-2018_14:13:14 7307 22 female R 2 5 2 moral moralOther Y y 1 0.4573 
09-May-2018_14:13:15 7307 22 female R 2 5 3 moral immoralSelf U u 1 0.3695 
09-May-2018_14:13:17 7307 22 female R 2 5 4 moral moralSelf Y y 1 0.4292 
09-May-2018_14:13:18 7307 22 female R 2 5 5 moral moralSelf Y y 1 0.4354 
09-May-2018_14:13:20 7307 22 female R 2 5 6 moral moralSelf Y y 1 0.3511 
09-May-2018_14:13:22 7307 22 female R 2 5 7 moral immoralSelf U u 1 0.4201 
09-May-2018_14:13:23 7307 22 female R 2 5 8 moral immoralOther U u 1 0.3377 
09-May-2018_14:13:25 7307 22 female R 2 5 9 moral moralSelf Y y 1 0.5646 
09-May-2018_14:13:27 7307 22 female R 2 5 10 moral immoralOther U u 1 0.5045 
09-May-2018_14:13:29 7307 22 female R 2 5 11 moral immoralSelf U u 1 0.3897 
09-May-2018_14:13:31 7307 22 female R 2 5 12 moral moralOther Y y 1 0.5102 
09-May-2018_14:13:32 7307 22 female R 2 5 13 moral immoralOther U y 0 0.5663 
09-May-2018_14:13:34 7307 22 female R 2 5 14 moral moralSelf Y y 1 0.5147 
09-May-2018_14:13:36 7307 22 female R 2 5 15 moral immoralSelf U u 1 0.4897 
09-May-2018_14:13:38 7307 22 female R 2 5 16 moral moralOther Y y 1 0.4937 
09-May-2018_14:13:40 7307 22 female R 2 5 17 moral moralOther Y y 1 0.5266 
09-May-2018_14:13:41 7307 22 female R 2 5 18 moral moralOther Y y 1 0.4608 
09-May-2018_14:13:43 7307 22 female R 2 5 19 moral immoralSelf U u 1 0.3490 
09-May-2018_14:13:45 7307 22 female R 2 5 20 moral immoralSelf U u 1 0.3514 
09-May-2018_14:13:46 7307 22 female R 2 5 21 moral immoralOther U u 1 0.3664 
09-May-2018_14:13:48 7307 22 female R 2 5 22 moral moralOther Y y 1 0.4719 
09-May-2018_14:13:49 7307 22 female R 2 5 23 moral immoralOther U u 1 0.5068 
09-May-2018_14:13:51 7307 22 female R 2 5 24 moral immoralOther U u 1 0.4499 
Date Sub Age Sex Hand Block Bin Trial Task Shape corrResp Resp ACC RT
09-May-2018_14:16:37 7307 22 female R 3 1 1 moral immoralSelf U u 1 0.3613 
09-May-2018_14:16:39 7307 22 female R 3 1 2 moral moralOther Y y 1 0.6584 
09-May-2018_14:16:41 7307 22 female R 3 1 3 moral moralOther Y y 1 0.3526 
09-May-2018_14:16:42 7307 22 female R 3 1 4 moral immoralSelf U u 1 0.4063 
09-May-2018_14:16:44 7307 22 female R 3 1 5 moral moralOther Y y 1 0.4905 
09-May-2018_14:16:46 7307 22 female R 3 1 6 moral moralSelf Y y 1 0.7236 
09-May-2018_14:16:48 7307 22 female R 3 1 7 moral immoralSelf U u 1 0.5040 
09-May-2018_14:16:50 7307 22 female R 3 1 8 moral moralSelf Y y 1 0.8659 
09-May-2018_14:16:52 7307 22 female R 3 1 9 moral moralSelf Y y 1 0.5173 
09-May-2018_14:16:54 7307 22 female R 3 1 10 moral immoralOther U y 0 0.4656 
09-May-2018_14:16:56 7307 22 female R 3 1 11 moral immoralOther U u 1 0.5724 
09-May-2018_14:16:58 7307 22 female R 3 1 12 moral immoralOther U u 1 0.5297 
09-May-2018_14:16:59 7307 22 female R 3 1 13 moral moralSelf Y y 1 0.5938 
09-May-2018_14:17:01 7307 22 female R 3 1 14 moral immoralSelf U u 1 0.4504 
09-May-2018_14:17:03 7307 22 female R 3 1 15 moral moralSelf Y y 1 0.4867 
09-May-2018_14:17:04 7307 22 female R 3 1 16 moral immoralOther U u 1 0.4584 
09-May-2018_14:17:06 7307 22 female R 3 1 17 moral moralOther Y y 1 0.5653 
09-May-2018_14:17:08 7307 22 female R 3 1 18 moral moralSelf Y y 1 0.4779 
09-May-2018_14:17:10 7307 22 female R 3 1 19 moral moralOther Y y 1 0.5410 
09-May-2018_14:17:12 7307 22 female R 3 1 20 moral immoralOther U u 1 0.4804 
09-May-2018_14:17:14 7307 22 female R 3 1 21 moral immoralOther U u 1 0.4838 
09-May-2018_14:17:15 7307 22 female R 3 1 22 moral moralOther Y y 1 0.5408 
09-May-2018_14:17:17 7307 22 female R 3 1 23 moral immoralSelf U u 1 0.5762 
09-May-2018_14:17:19 7307 22 female R 3 1 24 moral immoralSelf U u 1 0.4520 
09-May-2018_14:17:20 7307 22 female R 3 2 1 moral moralOther Y y 1 0.4988 
09-May-2018_14:17:22 7307 22 female R 3 2 2 moral moralSelf Y y 1 0.4282 
09-May-2018_14:17:24 7307 22 female R 3 2 3 moral immoralOther U u 1 0.3549 
09-May-2018_14:17:26 7307 22 female R 3 2 4 moral moralSelf Y y 1 0.5111 
09-May-2018_14:17:27 7307 22 female R 3 2 5 moral moralSelf Y y 1 0.4167 
09-May-2018_14:17:29 7307 22 female R 3 2 6 moral immoralSelf U u 1 0.3570 
09-May-2018_14:17:31 7307 22 female R 3 2 7 moral immoralOther U u 1 0.3956 
09-May-2018_14:17:33 7307 22 female R 3 2 8 moral moralOther Y y 1 0.5533 
09-May-2018_14:17:35 7307 22 female R 3 2 9 moral moralOther Y y 1 0.4861 
09-May-2018_14:17:36 7307 22 female R 3 2 10 moral immoralSelf U u 1 0.4175 
09-May-2018_14:17:37 7307 22 female R 3 2 11 moral immoralSelf U u 1 0.2570 
09-May-2018_14:17:39 7307 22 female R 3 2 12 moral immoralSelf U u 1 0.4472 
09-May-2018_14:17:40 7307 22 female R 3 2 13 moral immoralSelf U u 1 0.3583 
09-May-2018_14:17:42 7307 22 female R 3 2 14 moral immoralOther U u 1 0.3147 
09-May-2018_14:17:43 7307 22 female R 3 2 15 moral moralOther Y u 0 0.3420 
09-May-2018_14:17:45 7307 22 female R 3 2 16 moral immoralOther U u 1 0.4254 
09-May-2018_14:17:47 7307 22 female R 3 2 17 moral immoralOther U u 1 0.3233 
09-May-2018_14:17:48 7307 22 female R 3 2 18 moral moralSelf Y y 1 0.4604 
09-May-2018_14:17:50 7307 22 female R 3 2 19 moral moralSelf Y y 1 0.4378 
09-May-2018_14:17:51 7307 22 female R 3 2 20 moral immoralSelf U u 1 0.4510 
09-May-2018_14:17:53 7307 22 female R 3 2 21 moral moralSelf Y y 1 0.4624 
09-May-2018_14:17:55 7307 22 female R 3 2 22 moral moralOther Y u 0 0.3923 
09-May-2018_14:17:56 7307 22 female R 3 2 23 moral moralOther Y y 1 0.4018 
09-May-2018_14:17:58 7307 22 female R 3 2 24 moral immoralOther U y 0 0.3261 
09-May-2018_14:18:06 7307 22 female R 3 3 1 moral moralSelf Y y 1 0.5528 
09-May-2018_14:18:08 7307 22 female R 3 3 2 moral immoralOther U u 1 0.4846 
09-May-2018_14:18:10 7307 22 female R 3 3 3 moral moralOther Y y 1 0.5596 
09-May-2018_14:18:11 7307 22 female R 3 3 4 moral immoralSelf U u 1 0.4029 
09-May-2018_14:18:13 7307 22 female R 3 3 5 moral moralSelf Y y 1 0.4091 
09-May-2018_14:18:15 7307 22 female R 3 3 6 moral immoralSelf U u 1 0.3000 
09-May-2018_14:18:16 7307 22 female R 3 3 7 moral moralOther Y y 1 0.4525 
09-May-2018_14:18:18 7307 22 female R 3 3 8 moral immoralOther U u 1 0.3570 
09-May-2018_14:18:20 7307 22 female R 3 3 9 moral moralOther Y y 1 0.4246 
09-May-2018_14:18:22 7307 22 female R 3 3 10 moral moralSelf Y y 1 0.4593 
09-May-2018_14:18:23 7307 22 female R 3 3 11 moral immoralSelf U u 1 0.3187 
09-May-2018_14:18:25 7307 22 female R 3 3 12 moral immoralOther U u 1 0.3827 
09-May-2018_14:18:26 7307 22 female R 3 3 13 moral moralSelf Y y 1 0.3889 
09-May-2018_14:18:28 7307 22 female R 3 3 14 moral moralSelf Y y 1 0.3372 
09-May-2018_14:18:29 7307 22 female R 3 3 15 moral immoralSelf U u 1 0.2663 
09-May-2018_14:18:31 7307 22 female R 3 3 16 moral immoralSelf U u 1 0.4649 
09-May-2018_14:18:33 7307 22 female R 3 3 17 moral moralOther Y y 1 0.4583 
09-May-2018_14:18:35 7307 22 female R 3 3 18 moral immoralOther U u 1 0.4208 
09-May-2018_14:18:36 7307 22 female R 3 3 19 moral immoralOther U u 1 0.3471 
09-May-2018_14:18:38 7307 22 female R 3 3 20 moral moralSelf Y y 1 0.4459 
09-May-2018_14:18:39 7307 22 female R 3 3 21 moral moralOther Y y 1 0.4732 
09-May-2018_14:18:41 7307 22 female R 3 3 22 moral immoralOther U u 1 0.4794 
09-May-2018_14:18:43 7307 22 female R 3 3 23 moral immoralSelf U u 1 0.3430 
09-May-2018_14:18:44 7307 22 female R 3 3 24 moral moralOther Y y 1 0.4113 
09-May-2018_14:18:46 7307 22 female R 3 4 1 moral immoralOther U u 1 0.3686 
09-May-2018_14:18:48 7307 22 female R 3 4 2 moral moralSelf Y y 1 0.4684 
09-May-2018_14:18:49 7307 22 female R 3 4 3 moral moralSelf Y y 1 0.4158 
09-May-2018_14:18:51 7307 22 female R 3 4 4 moral immoralOther U u 1 0.5091 
09-May-2018_14:18:53 7307 22 female R 3 4 5 moral immoralSelf U u 1 0.3175 
09-May-2018_14:18:55 7307 22 female R 3 4 6 moral moralOther Y y 1 0.4296 
09-May-2018_14:18:57 7307 22 female R 3 4 7 moral immoralOther U u 1 0.3309 
09-May-2018_14:18:58 7307 22 female R 3 4 8 moral immoralSelf U u 1 0.2868 
09-May-2018_14:19:00 7307 22 female R 3 4 9 moral immoralSelf U u 1 0.3066 
09-May-2018_14:19:02 7307 22 female R 3 4 10 moral moralSelf Y y 1 0.3590 
09-May-2018_14:19:03 7307 22 female R 3 4 11 moral moralSelf Y y 1 0.3788 
09-May-2018_14:19:05 7307 22 female R 3 4 12 moral immoralOther U u 1 0.4630 
09-May-2018_14:19:07 7307 22 female R 3 4 13 moral moralOther Y y 1 0.4014 
09-May-2018_14:19:08 7307 22 female R 3 4 14 moral immoralOther U y 0 0.3657 
09-May-2018_14:19:10 7307 22 female R 3 4 15 moral immoralOther U u 1 0.5258 
09-May-2018_14:19:11 7307 22 female R 3 4 16 moral moralOther Y y 1 0.4761 
09-May-2018_14:19:13 7307 22 female R 3 4 17 moral moralOther Y y 1 0.5113 
09-May-2018_14:19:15 7307 22 female R 3 4 18 moral immoralSelf U u 1 0.4432 
09-May-2018_14:19:16 7307 22 female R 3 4 19 moral immoralSelf U u 1 0.4983 
09-May-2018_14:19:18 7307 22 female R 3 4 20 moral immoralSelf U u 1 0.5191 
09-May-2018_14:19:20 7307 22 female R 3 4 21 moral moralOther Y y 1 0.5290 
09-May-2018_14:19:22 7307 22 female R 3 4 22 moral moralSelf Y y 1 0.4761 
09-May-2018_14:19:23 7307 22 female R 3 4 23 moral moralSelf Y y 1 0.3937 
09-May-2018_14:19:25 7307 22 female R 3 4 24 moral moralOther Y y 1 0.4898 
09-May-2018_14:19:32 7307 22 female R 3 5 1 moral immoralSelf U u 1 0.3917 
09-May-2018_14:19:34 7307 22 female R 3 5 2 moral moralOther Y y 1 0.4393 
09-May-2018_14:19:36 7307 22 female R 3 5 3 moral moralSelf Y y 1 0.3942 
09-May-2018_14:19:37 7307 22 female R 3 5 4 moral moralSelf Y y 1 0.3487 
09-May-2018_14:19:39 7307 22 female R 3 5 5 moral moralOther Y u 0 0.4051 
09-May-2018_14:19:41 7307 22 female R 3 5 6 moral moralSelf Y y 1 0.4099 
09-May-2018_14:19:42 7307 22 female R 3 5 7 moral immoralSelf U u 1 0.4820 
09-May-2018_14:19:44 7307 22 female R 3 5 8 moral moralSelf Y y 1 0.5940 
09-May-2018_14:19:46 7307 22 female R 3 5 9 moral moralSelf Y y 1 0.3828 
09-May-2018_14:19:48 7307 22 female R 3 5 10 moral immoralSelf U u 1 0.3565 
09-May-2018_14:19:50 7307 22 female R 3 5 11 moral moralOther Y y 1 0.4733 
09-May-2018_14:19:52 7307 22 female R 3 5 12 moral immoralOther U u 1 0.8274 
09-May-2018_14:19:53 7307 22 female R 3 5 13 moral moralSelf Y y 1 0.4961 
09-May-2018_14:19:55 7307 22 female R 3 5 14 moral immoralSelf U u 1 0.2796 
09-May-2018_14:19:56 7307 22 female R 3 5 15 moral moralOther Y y 1 0.4717 
09-May-2018_14:19:58 7307 22 female R 3 5 16 moral immoralOther U u 1 0.4756 
09-May-2018_14:19:59 7307 22 female R 3 5 17 moral moralOther Y y 1 0.4207 
09-May-2018_14:20:01 7307 22 female R 3 5 18 moral immoralSelf U u 1 0.4343 
09-May-2018_14:20:03 7307 22 female R 3 5 19 moral immoralOther U u 1 0.3549 
09-May-2018_14:20:05 7307 22 female R 3 5 20 moral immoralOther U u 1 0.5498 
09-May-2018_14:20:07 7307 22 female R 3 5 21 moral immoralOther U u 1 0.4585 
09-May-2018_14:20:08 7307 22 female R 3 5 22 moral moralOther Y y 1 0.4873 
09-May-2018_14:20:10 7307 22 female R 3 5 23 moral immoralSelf U u 1 0.3816 
09-May-2018_14:20:12 7307 22 female R 3 5 24 moral immoralOther U u 1 0.4870 
Date Sub Age Sex Hand Block Bin Trial Task Shape corrResp Resp ACC RT
09-May-2018_14:24:01 7307 22 female R 4 1 1 self moralOther H h 1 0.5763 
09-May-2018_14:24:03 7307 22 female R 4 1 2 self moralSelf J j 1 0.6693 
09-May-2018_14:24:04 7307 22 female R 4 1 3 self moralOther H h 1 0.5264 
09-May-2018_14:24:06 7307 22 female R 4 1 4 self moralOther H h 1 0.5315 
09-May-2018_14:24:08 7307 22 female R 4 1 5 self immoralOther H j 0 0.5557 
09-May-2018_14:24:09 7307 22 female R 4 1 6 self moralOther H h 1 0.4861 
09-May-2018_14:24:11 7307 22 female R 4 1 7 self immoralOther H j 0 0.5784 
09-May-2018_14:24:13 7307 22 female R 4 1 8 self immoralOther H h 1 0.4208 
09-May-2018_14:24:15 7307 22 female R 4 1 9 self immoralSelf J j 1 0.8382 
09-May-2018_14:24:16 7307 22 female R 4 1 10 self immoralOther H h 1 0.5222 
09-May-2018_14:24:18 7307 22 female R 4 1 11 self immoralSelf J j 1 0.5156 
09-May-2018_14:24:21 7307 22 female R 4 1 12 self moralSelf J j 1 0.9232 
09-May-2018_14:24:23 7307 22 female R 4 1 13 self immoralOther H h 1 0.6024 
09-May-2018_14:24:25 7307 22 female R 4 1 14 self moralSelf J j 1 0.9422 
09-May-2018_14:24:27 7307 22 female R 4 1 15 self immoralSelf J j 1 0.3475 
09-May-2018_14:24:28 7307 22 female R 4 1 16 self immoralOther H h 1 0.3505 
09-May-2018_14:24:30 7307 22 female R 4 1 17 self immoralSelf J j 1 0.4309 
09-May-2018_14:24:32 7307 22 female R 4 1 18 self immoralSelf J j 1 0.5257 
09-May-2018_14:24:33 7307 22 female R 4 1 19 self immoralSelf J j 1 0.3968 
09-May-2018_14:24:35 7307 22 female R 4 1 20 self moralOther H h 1 0.5295 
09-May-2018_14:24:37 7307 22 female R 4 1 21 self moralSelf J j 1 0.4731 
09-May-2018_14:24:38 7307 22 female R 4 1 22 self moralSelf J j 1 0.4421 
09-May-2018_14:24:40 7307 22 female R 4 1 23 self moralSelf J j 1 0.4375 
09-May-2018_14:24:42 7307 22 female R 4 1 24 self moralOther H h 1 0.4648 
09-May-2018_14:24:43 7307 22 female R 4 2 1 self immoralSelf J j 1 0.3082 
09-May-2018_14:24:45 7307 22 female R 4 2 2 self moralSelf J j 1 0.3549 
09-May-2018_14:24:47 7307 22 female R 4 2 3 self moralSelf J j 1 0.5079 
09-May-2018_14:24:48 7307 22 female R 4 2 4 self moralSelf J j 1 0.4298 
09-May-2018_14:24:50 7307 22 female R 4 2 5 self moralOther H h 1 0.4943 
09-May-2018_14:24:52 7307 22 female R 4 2 6 self immoralOther H h 1 0.4060 
09-May-2018_14:24:54 7307 22 female R 4 2 7 self immoralOther H h 1 0.4065 
09-May-2018_14:24:55 7307 22 female R 4 2 8 self moralSelf J j 1 0.5271 
09-May-2018_14:24:57 7307 22 female R 4 2 9 self immoralSelf J j 1 0.2923 
09-May-2018_14:24:59 7307 22 female R 4 2 10 self immoralOther H h 1 0.3800 
09-May-2018_14:25:01 7307 22 female R 4 2 11 self immoralSelf J j 1 0.6144 
09-May-2018_14:25:02 7307 22 female R 4 2 12 self moralOther H h 1 0.4501 
09-May-2018_14:25:04 7307 22 female R 4 2 13 self moralOther H h 1 0.4484 
09-May-2018_14:25:06 7307 22 female R 4 2 14 self immoralSelf J j 1 0.5063 
09-May-2018_14:25:07 7307 22 female R 4 2 15 self immoralSelf J j 1 0.4490 
09-May-2018_14:25:09 7307 22 female R 4 2 16 self immoralOther H j 0 0.4612 
09-May-2018_14:25:11 7307 22 female R 4 2 17 self immoralOther H h 1 0.5206 
09-May-2018_14:25:12 7307 22 female R 4 2 18 self moralSelf J j 1 0.4765 
09-May-2018_14:25:14 7307 22 female R 4 2 19 self moralOther H h 1 0.4629 
09-May-2018_14:25:16 7307 22 female R 4 2 20 self moralOther H h 1 0.5704 
09-May-2018_14:25:18 7307 22 female R 4 2 21 self moralOther H h 1 0.5323 
09-May-2018_14:25:20 7307 22 female R 4 2 22 self immoralOther H h 1 0.5258 
09-May-2018_14:25:21 7307 22 female R 4 2 23 self immoralSelf J j 1 0.3211 
09-May-2018_14:25:23 7307 22 female R 4 2 24 self moralSelf J j 1 0.3122 
09-May-2018_14:25:42 7307 22 female R 4 3 1 self moralOther H h 1 0.5694 
09-May-2018_14:25:44 7307 22 female R 4 3 2 self moralOther H h 1 0.4448 
09-May-2018_14:25:46 7307 22 female R 4 3 3 self immoralSelf J j 1 0.4289 
09-May-2018_14:25:48 7307 22 female R 4 3 4 self immoralOther H h 1 0.7160 
09-May-2018_14:25:50 7307 22 female R 4 3 5 self immoralOther H h 1 0.7740 
09-May-2018_14:25:52 7307 22 female R 4 3 6 self immoralOther H h 1 0.4301 
09-May-2018_14:25:53 7307 22 female R 4 3 7 self moralSelf J j 1 0.5752 
09-May-2018_14:25:55 7307 22 female R 4 3 8 self moralOther H h 1 0.5047 
09-May-2018_14:25:57 7307 22 female R 4 3 9 self moralSelf J j 1 0.6726 
09-May-2018_14:25:59 7307 22 female R 4 3 10 self moralSelf J j 1 0.4972 
09-May-2018_14:26:01 7307 22 female R 4 3 11 self moralOther H h 1 0.5424 
09-May-2018_14:26:03 7307 22 female R 4 3 12 self immoralSelf J j 1 0.5576 
09-May-2018_14:26:05 7307 22 female R 4 3 13 self immoralOther H h 1 0.6095 
09-May-2018_14:26:06 7307 22 female R 4 3 14 self immoralSelf J j 1 0.4505 
09-May-2018_14:26:08 7307 22 female R 4 3 15 self immoralSelf J j 1 0.5245 
09-May-2018_14:26:10 7307 22 female R 4 3 16 self moralOther H h 1 0.5099 
09-May-2018_14:26:12 7307 22 female R 4 3 17 self immoralSelf J h 0 0.4831 
09-May-2018_14:26:14 7307 22 female R 4 3 18 self moralSelf J j 1 0.5303 
09-May-2018_14:26:15 7307 22 female R 4 3 19 self moralSelf J j 1 0.3463 
09-May-2018_14:26:17 7307 22 female R 4 3 20 self moralSelf J j 1 0.3930 
09-May-2018_14:26:19 7307 22 female R 4 3 21 self immoralSelf J j 1 0.4157 
09-May-2018_14:26:20 7307 22 female R 4 3 22 self moralOther H h 1 0.5711 
09-May-2018_14:26:22 7307 22 female R 4 3 23 self immoralOther H j 0 0.4761 
09-May-2018_14:26:24 7307 22 female R 4 3 24 self immoralOther H h 1 0.5110 
09-May-2018_14:26:25 7307 22 female R 4 4 1 self moralSelf J j 1 0.4993 
09-May-2018_14:26:27 7307 22 female R 4 4 2 self immoralSelf J j 1 0.2833 
09-May-2018_14:26:28 7307 22 female R 4 4 3 self immoralSelf J j 1 0.3243 
09-May-2018_14:26:30 7307 22 female R 4 4 4 self immoralSelf J j 1 0.3593 
09-May-2018_14:26:31 7307 22 female R 4 4 5 self moralSelf J j 1 0.4200 
09-May-2018_14:26:33 7307 22 female R 4 4 6 self immoralSelf J j 1 0.4008 
09-May-2018_14:26:35 7307 22 female R 4 4 7 self moralOther H h 1 0.6254 
09-May-2018_14:26:37 7307 22 female R 4 4 8 self immoralOther H j 0 0.6696 
09-May-2018_14:26:39 7307 22 female R 4 4 9 self moralOther H h 1 0.4518 
09-May-2018_14:26:40 7307 22 female R 4 4 10 self moralSelf J h 0 0.3517 
09-May-2018_14:26:42 7307 22 female R 4 4 11 self immoralSelf J j 1 0.4449 
09-May-2018_14:26:44 7307 22 female R 4 4 12 self immoralOther H h 1 0.4837 
09-May-2018_14:26:45 7307 22 female R 4 4 13 self moralSelf J j 1 0.4700 
09-May-2018_14:26:47 7307 22 female R 4 4 14 self immoralOther H h 1 0.6521 
09-May-2018_14:26:49 7307 22 female R 4 4 15 self moralOther H h 1 0.6937 
09-May-2018_14:26:51 7307 22 female R 4 4 16 self immoralSelf J j 1 0.4867 
09-May-2018_14:26:52 7307 22 female R 4 4 17 self moralOther H h 1 0.5589 
09-May-2018_14:26:55 7307 22 female R 4 4 18 self moralOther H h 1 0.7032 
09-May-2018_14:26:56 7307 22 female R 4 4 19 self moralSelf J j 1 0.5698 
09-May-2018_14:26:58 7307 22 female R 4 4 20 self immoralOther H h 1 0.7994 
09-May-2018_14:27:00 7307 22 female R 4 4 21 self moralSelf J j 1 0.4164 
09-May-2018_14:27:01 7307 22 female R 4 4 22 self immoralOther H h 1 0.4698 
09-May-2018_14:27:03 7307 22 female R 4 4 23 self immoralOther H h 1 0.3888 
09-May-2018_14:27:05 7307 22 female R 4 4 24 self moralOther H h 1 0.5410 
09-May-2018_14:27:20 7307 22 female R 4 5 1 self immoralSelf J j 1 0.4728 
09-May-2018_14:27:22 7307 22 female R 4 5 2 self moralOther H h 1 0.4235 
09-May-2018_14:27:23 7307 22 female R 4 5 3 self immoralSelf J j 1 0.3517 
09-May-2018_14:27:25 7307 22 female R 4 5 4 self immoralSelf J j 1 0.3709 
09-May-2018_14:27:26 7307 22 female R 4 5 5 self immoralSelf J j 1 0.3161 
09-May-2018_14:27:28 7307 22 female R 4 5 6 self moralOther H h 1 0.6011 
09-May-2018_14:27:30 7307 22 female R 4 5 7 self moralOther H h 1 0.4949 
09-May-2018_14:27:32 7307 22 female R 4 5 8 self moralSelf J j 1 0.5468 
09-May-2018_14:27:34 7307 22 female R 4 5 9 self immoralSelf J j 1 0.4406 
09-May-2018_14:27:36 7307 22 female R 4 5 10 self moralSelf J j 1 0.4481 
09-May-2018_14:27:37 7307 22 female R 4 5 11 self moralOther H h 1 0.4708 
09-May-2018_14:27:39 7307 22 female R 4 5 12 self moralSelf J j 1 0.4972 
09-May-2018_14:27:40 7307 22 female R 4 5 13 self moralSelf J j 1 0.4144 
09-May-2018_14:27:42 7307 22 female R 4 5 14 self moralOther H h 1 0.4249 
09-May-2018_14:27:44 7307 22 female R 4 5 15 self immoralOther H h 1 0.9477 
09-May-2018_14:27:46 7307 22 female R 4 5 16 self immoralOther H h 1 0.6132 
09-May-2018_14:27:48 7307 22 female R 4 5 17 self immoralOther H h 1 0.3899 
09-May-2018_14:27:50 7307 22 female R 4 5 18 self immoralOther H h 1 0.3828 
09-May-2018_14:27:51 7307 22 female R 4 5 19 self moralSelf J j 1 0.4012 
09-May-2018_14:27:53 7307 22 female R 4 5 20 self moralSelf J j 1 0.4535 
09-May-2018_14:27:55 7307 22 female R 4 5 21 self immoralSelf J j 1 0.3411 
09-May-2018_14:27:56 7307 22 female R 4 5 22 self moralOther H h 1 0.3624 
09-May-2018_14:27:58 7307 22 female R 4 5 23 self immoralOther H h 1 0.4551 
09-May-2018_14:28:00 7307 22 female R 4 5 24 self immoralOther H h 1 0.3295 
Date Sub Age Sex Hand Block Bin Trial Task Shape corrResp Resp ACC RT
09-May-2018_14:30:59 7307 22 female R 5 1 1 self immoralOther H h 1 0.6635 
09-May-2018_14:31:01 7307 22 female R 5 1 2 self immoralOther H h 1 0.3926 
09-May-2018_14:31:03 7307 22 female R 5 1 3 self moralOther H h 1 0.5296 
09-May-2018_14:31:04 7307 22 female R 5 1 4 self moralOther H h 1 0.3932 
09-May-2018_14:31:06 7307 22 female R 5 1 5 self moralOther H h 1 0.3953 
09-May-2018_14:31:08 7307 22 female R 5 1 6 self immoralSelf J j 1 0.4306 
09-May-2018_14:31:09 7307 22 female R 5 1 7 self moralSelf J j 1 0.3224 
09-May-2018_14:31:11 7307 22 female R 5 1 8 self immoralOther H h 1 0.4928 
09-May-2018_14:31:13 7307 22 female R 5 1 9 self moralOther H h 1 0.4359 
09-May-2018_14:31:15 7307 22 female R 5 1 10 self moralOther H h 1 0.4252 
09-May-2018_14:31:16 7307 22 female R 5 1 11 self immoralOther H h 1 0.4521 
09-May-2018_14:31:18 7307 22 female R 5 1 12 self immoralSelf J j 1 0.3298 
09-May-2018_14:31:20 7307 22 female R 5 1 13 self moralSelf J j 1 0.3676 
09-May-2018_14:31:21 7307 22 female R 5 1 14 self moralSelf J j 1 0.4284 
09-May-2018_14:31:23 7307 22 female R 5 1 15 self moralSelf J j 1 0.4002 
09-May-2018_14:31:25 7307 22 female R 5 1 16 self immoralOther H h 1 0.4916 
09-May-2018_14:31:26 7307 22 female R 5 1 17 self immoralSelf J j 1 0.3656 
09-May-2018_14:31:28 7307 22 female R 5 1 18 self immoralSelf J j 1 0.3467 
09-May-2018_14:31:30 7307 22 female R 5 1 19 self moralOther H h 1 0.5628 
09-May-2018_14:31:32 7307 22 female R 5 1 20 self immoralSelf J j 1 0.4109 
09-May-2018_14:31:34 7307 22 female R 5 1 21 self immoralSelf J j 1 0.5964 
09-May-2018_14:31:36 7307 22 female R 5 1 22 self moralSelf J j 1 0.4298 
09-May-2018_14:31:37 7307 22 female R 5 1 23 self moralSelf J j 1 0.3749 
09-May-2018_14:31:39 7307 22 female R 5 1 24 self immoralOther H h 1 0.6267 
09-May-2018_14:31:41 7307 22 female R 5 2 1 self moralOther H h 1 0.5355 
09-May-2018_14:31:43 7307 22 female R 5 2 2 self moralSelf J j 1 0.5271 
09-May-2018_14:31:44 7307 22 female R 5 2 3 self moralSelf J j 1 0.3508 
09-May-2018_14:31:46 7307 22 female R 5 2 4 self immoralOther H h 1 0.6105 
09-May-2018_14:31:48 7307 22 female R 5 2 5 self immoralSelf J j 1 0.3226 
09-May-2018_14:31:50 7307 22 female R 5 2 6 self moralSelf J j 1 0.3100 
09-May-2018_14:31:51 7307 22 female R 5 2 7 self moralOther H h 1 0.4771 
09-May-2018_14:31:53 7307 22 female R 5 2 8 self moralOther H h 1 0.5755 
09-May-2018_14:31:55 7307 22 female R 5 2 9 self immoralOther H h 1 0.6363 
09-May-2018_14:31:57 7307 22 female R 5 2 10 self immoralSelf J j 1 0.3344 
09-May-2018_14:31:58 7307 22 female R 5 2 11 self moralSelf J j 1 0.4596 
09-May-2018_14:32:00 7307 22 female R 5 2 12 self immoralOther H h 1 0.3979 
09-May-2018_14:32:02 7307 22 female R 5 2 13 self immoralOther H h 1 0.8949 
09-May-2018_14:32:04 7307 22 female R 5 2 14 self moralSelf J j 1 0.4940 
09-May-2018_14:32:06 7307 22 female R 5 2 15 self moralOther H h 1 0.6146 
09-May-2018_14:32:07 7307 22 female R 5 2 16 self immoralOther H h 1 0.4919 
09-May-2018_14:32:09 7307 22 female R 5 2 17 self moralOther H h 1 0.4091 
09-May-2018_14:32:11 7307 22 female R 5 2 18 self immoralSelf J j 1 0.4223 
09-May-2018_14:32:13 7307 22 female R 5 2 19 self moralOther H h 1 0.4686 
09-May-2018_14:32:15 7307 22 female R 5 2 20 self immoralOther H h 1 0.5958 
09-May-2018_14:32:17 7307 22 female R 5 2 21 self immoralSelf J h 0 0.4677 
09-May-2018_14:32:18 7307 22 female R 5 2 22 self immoralSelf J h 0 0.3553 
09-May-2018_14:32:20 7307 22 female R 5 2 23 self moralSelf J j 1 0.5253 
09-May-2018_14:32:22 7307 22 female R 5 2 24 self immoralSelf J j 1 0.4210 
09-May-2018_14:32:26 7307 22 female R 5 3 1 self moralOther H h 1 0.4715 
09-May-2018_14:32:28 7307 22 female R 5 3 2 self moralOther H h 1 0.3910 
09-May-2018_14:32:30 7307 22 female R 5 3 3 self immoralOther H h 1 0.3737 
09-May-2018_14:32:31 7307 22 female R 5 3 4 self immoralSelf J j 1 0.3761 
09-May-2018_14:32:33 7307 22 female R 5 3 5 self immoralOther H h 1 0.4606 
09-May-2018_14:32:35 7307 22 female R 5 3 6 self moralSelf J j 1 0.5033 
09-May-2018_14:32:36 7307 22 female R 5 3 7 self moralOther H h 1 0.3773 
09-May-2018_14:32:38 7307 22 female R 5 3 8 self moralSelf J j 1 0.5995 
09-May-2018_14:32:40 7307 22 female R 5 3 9 self moralSelf J j 1 0.3546 
09-May-2018_14:32:42 7307 22 female R 5 3 10 self immoralOther H h 1 0.5305 
09-May-2018_14:32:44 7307 22 female R 5 3 11 self immoralSelf J j 1 0.4383 
09-May-2018_14:32:45 7307 22 female R 5 3 12 self immoralSelf J j 1 0.3331 
09-May-2018_14:32:47 7307 22 female R 5 3 13 self immoralOther H j 0 0.5401 
09-May-2018_14:32:49 7307 22 female R 5 3 14 self immoralSelf J j 1 0.4117 
09-May-2018_14:32:50 7307 22 female R 5 3 15 self immoralOther H h 1 0.5728 
09-May-2018_14:32:52 7307 22 female R 5 3 16 self moralOther H h 1 0.5727 
09-May-2018_14:32:54 7307 22 female R 5 3 17 self immoralSelf J j 1 0.3898 
09-May-2018_14:32:56 7307 22 female R 5 3 18 self moralSelf J j 1 0.2712 
09-May-2018_14:32:57 7307 22 female R 5 3 19 self moralSelf J j 1 0.3443 
09-May-2018_14:32:59 7307 22 female R 5 3 20 self moralOther H h 1 0.5195 
09-May-2018_14:33:01 7307 22 female R 5 3 21 self immoralSelf J j 1 0.6282 
09-May-2018_14:33:03 7307 22 female R 5 3 22 self moralSelf J j 1 0.5530 
09-May-2018_14:33:05 7307 22 female R 5 3 23 self moralOther H h 1 0.4684 
09-May-2018_14:33:07 7307 22 female R 5 3 24 self immoralOther H h 1 0.7786 
09-May-2018_14:33:08 7307 22 female R 5 4 1 self moralSelf J j 1 0.5053 
09-May-2018_14:33:10 7307 22 female R 5 4 2 self immoralSelf J j 1 0.5580 
09-May-2018_14:33:12 7307 22 female R 5 4 3 self immoralOther H j 0 0.4089 
09-May-2018_14:33:14 7307 22 female R 5 4 4 self moralOther H h 1 0.5195 
09-May-2018_14:33:15 7307 22 female R 5 4 5 self immoralOther H h 1 0.5182 
09-May-2018_14:33:17 7307 22 female R 5 4 6 self moralOther H j 0 0.4562 
09-May-2018_14:33:19 7307 22 female R 5 4 7 self immoralSelf J j 1 0.5245 
09-May-2018_14:33:21 7307 22 female R 5 4 8 self immoralOther H h 1 0.4691 
09-May-2018_14:33:22 7307 22 female R 5 4 9 self moralSelf J j 1 0.5190 
09-May-2018_14:33:24 7307 22 female R 5 4 10 self moralSelf J j 1 0.3586 
09-May-2018_14:33:25 7307 22 female R 5 4 11 self moralOther H h 1 0.5022 
09-May-2018_14:33:27 7307 22 female R 5 4 12 self moralOther H h 1 0.3893 
09-May-2018_14:33:29 7307 22 female R 5 4 13 self moralSelf J j 1 0.5443 
09-May-2018_14:33:30 7307 22 female R 5 4 14 self moralSelf J j 1 0.4230 
09-May-2018_14:33:32 7307 22 female R 5 4 15 self immoralSelf J j 1 0.3985 
09-May-2018_14:33:33 7307 22 female R 5 4 16 self moralOther H h 1 0.4724 
09-May-2018_14:33:35 7307 22 female R 5 4 17 self immoralOther H h 1 0.5981 
09-May-2018_14:33:37 7307 22 female R 5 4 18 self moralSelf J j 1 0.5135 
09-May-2018_14:33:39 7307 22 female R 5 4 19 self immoralSelf J j 1 0.3939 
09-May-2018_14:33:40 7307 22 female R 5 4 20 self immoralSelf J j 1 0.2727 
09-May-2018_14:33:42 7307 22 female R 5 4 21 self immoralSelf J j 1 0.3189 
09-May-2018_14:33:43 7307 22 female R 5 4 22 self immoralOther H h 1 0.4540 
09-May-2018_14:33:45 7307 22 female R 5 4 23 self moralOther H h 1 0.4532 
09-May-2018_14:33:47 7307 22 female R 5 4 24 self immoralOther H h 1 0.4762 
09-May-2018_14:33:57 7307 22 female R 5 5 1 self moralSelf J j 1 0.5092 
09-May-2018_14:33:58 7307 22 female R 5 5 2 self moralSelf J j 1 0.4162 
09-May-2018_14:34:00 7307 22 female R 5 5 3 self immoralOther H h 1 0.4406 
09-May-2018_14:34:02 7307 22 female R 5 5 4 self moralSelf J j 1 0.5023 
09-May-2018_14:34:04 7307 22 female R 5 5 5 self moralOther H h 1 0.4887 
09-May-2018_14:34:06 7307 22 female R 5 5 6 self immoralSelf J j 1 0.4126 
09-May-2018_14:34:08 7307 22 female R 5 5 7 self moralOther H h 1 0.4904 
09-May-2018_14:34:10 7307 22 female R 5 5 8 self immoralSelf J j 1 0.5774 
09-May-2018_14:34:11 7307 22 female R 5 5 9 self moralSelf J j 1 0.5808 
09-May-2018_14:34:13 7307 22 female R 5 5 10 self immoralSelf J j 1 0.3822 
09-May-2018_14:34:15 7307 22 female R 5 5 11 self immoralOther H h 1 0.5278 
09-May-2018_14:34:17 7307 22 female R 5 5 12 self immoralOther H h 1 0.5110 
09-May-2018_14:34:19 7307 22 female R 5 5 13 self immoralSelf J j 1 0.3351 
09-May-2018_14:34:21 7307 22 female R 5 5 14 self moralOther H h 1 0.4405 
09-May-2018_14:34:22 7307 22 female R 5 5 15 self immoralOther H h 1 0.5972 
09-May-2018_14:34:24 7307 22 female R 5 5 16 self moralSelf J j 1 0.5503 
09-May-2018_14:34:26 7307 22 female R 5 5 17 self moralOther H h 1 0.4868 
09-May-2018_14:34:27 7307 22 female R 5 5 18 self moralOther H h 1 0.3810 
09-May-2018_14:34:29 7307 22 female R 5 5 19 self immoralOther H j 0 0.4705 
09-May-2018_14:34:31 7307 22 female R 5 5 20 self moralSelf J j 1 0.5209 
09-May-2018_14:34:32 7307 22 female R 5 5 21 self immoralSelf J j 1 0.4010 
09-May-2018_14:34:34 7307 22 female R 5 5 22 self immoralSelf J j 1 0.4341 
09-May-2018_14:34:36 7307 22 female R 5 5 23 self moralOther H h 1 0.5376 
09-May-2018_14:34:38 7307 22 female R 5 5 24 self immoralOther H h 1 0.4935 
Date Sub Age Sex Hand Block Bin Trial Task Shape corrResp Resp ACC RT
09-May-2018_14:37:26 7307 22 female R 6 1 1 moral immoralOther U u 1 0.6777 
09-May-2018_14:37:28 7307 22 female R 6 1 2 moral immoralOther U u 1 0.4136 
09-May-2018_14:37:29 7307 22 female R 6 1 3 moral immoralSelf U u 1 0.3505 
09-May-2018_14:37:31 7307 22 female R 6 1 4 moral immoralOther U u 1 0.5501 
09-May-2018_14:37:32 7307 22 female R 6 1 5 moral moralOther Y y 1 0.3755 
09-May-2018_14:37:34 7307 22 female R 6 1 6 moral immoralSelf U u 1 0.3012 
09-May-2018_14:37:36 7307 22 female R 6 1 7 moral moralSelf Y y 1 0.5159 
09-May-2018_14:37:38 7307 22 female R 6 1 8 moral moralOther Y y 1 0.6059 
09-May-2018_14:37:40 7307 22 female R 6 1 9 moral immoralSelf U u 1 0.4837 
09-May-2018_14:37:42 7307 22 female R 6 1 10 moral moralOther Y y 1 0.6418 
09-May-2018_14:37:43 7307 22 female R 6 1 11 moral immoralSelf U u 1 0.4800 
09-May-2018_14:37:45 7307 22 female R 6 1 12 moral moralOther Y y 1 0.5356 
09-May-2018_14:37:47 7307 22 female R 6 1 13 moral moralSelf Y u 0 0.4726 
09-May-2018_14:37:48 7307 22 female R 6 1 14 moral moralOther Y y 1 0.4642 
09-May-2018_14:37:50 7307 22 female R 6 1 15 moral moralSelf Y y 1 0.3711 
09-May-2018_14:37:52 7307 22 female R 6 1 16 moral immoralSelf U u 1 0.5312 
09-May-2018_14:37:54 7307 22 female R 6 1 17 moral immoralSelf U u 1 0.4809 
09-May-2018_14:37:55 7307 22 female R 6 1 18 moral moralSelf Y y 1 0.6409 
09-May-2018_14:37:57 7307 22 female R 6 1 19 moral immoralOther U u 1 0.6482 
09-May-2018_14:37:59 7307 22 female R 6 1 20 moral moralSelf Y u 0 0.4775 
09-May-2018_14:38:01 7307 22 female R 6 1 21 moral immoralOther U u 1 0.5494 
09-May-2018_14:38:02 7307 22 female R 6 1 22 moral immoralOther U u 1 0.3863 
09-May-2018_14:38:04 7307 22 female R 6 1 23 moral moralSelf Y u 0 0.4677 
09-May-2018_14:38:05 7307 22 female R 6 1 24 moral moralOther Y y 1 0.5831 
09-May-2018_14:38:07 7307 22 female R 6 2 1 moral immoralSelf U u 1 0.5229 
09-May-2018_14:38:09 7307 22 female R 6 2 2 moral moralOther Y y 1 0.4021 
09-May-2018_14:38:11 7307 22 female R 6 2 3 moral moralSelf Y y 1 0.9691 
09-May-2018_14:38:13 7307 22 female R 6 2 4 moral immoralOther U u 1 0.5636 
09-May-2018_14:38:15 7307 22 female R 6 2 5 moral immoralSelf U u 1 0.3867 
09-May-2018_14:38:16 7307 22 female R 6 2 6 moral immoralOther U u 1 0.4127 
09-May-2018_14:38:18 7307 22 female R 6 2 7 moral immoralSelf U u 1 0.3582 
09-May-2018_14:38:20 7307 22 female R 6 2 8 moral moralOther Y u 0 0.3441 
09-May-2018_14:38:21 7307 22 female R 6 2 9 moral moralOther Y y 1 0.4195 
09-May-2018_14:38:23 7307 22 female R 6 2 10 moral immoralOther U u 1 0.5169 
09-May-2018_14:38:25 7307 22 female R 6 2 11 moral immoralOther U u 1 0.6690 
09-May-2018_14:38:27 7307 22 female R 6 2 12 moral immoralSelf U u 1 0.4747 
09-May-2018_14:38:28 7307 22 female R 6 2 13 moral moralOther Y y 1 0.4998 
09-May-2018_14:38:30 7307 22 female R 6 2 14 moral immoralSelf U u 1 0.3474 
09-May-2018_14:38:31 7307 22 female R 6 2 15 moral immoralSelf U u 1 0.3151 
09-May-2018_14:38:33 7307 22 female R 6 2 16 moral moralSelf Y y 1 0.5692 
09-May-2018_14:38:35 7307 22 female R 6 2 17 moral moralSelf Y y 1 0.4375 
09-May-2018_14:38:36 7307 22 female R 6 2 18 moral moralSelf Y y 1 0.3924 
09-May-2018_14:38:38 7307 22 female R 6 2 19 moral moralSelf Y y 1 0.4018 
09-May-2018_14:38:40 7307 22 female R 6 2 20 moral immoralOther U u 1 0.5233 
09-May-2018_14:38:42 7307 22 female R 6 2 21 moral moralOther Y y 1 0.4683 
09-May-2018_14:38:44 7307 22 female R 6 2 22 moral moralOther Y y 1 0.4637 
09-May-2018_14:38:45 7307 22 female R 6 2 23 moral moralSelf Y y 1 0.3828 
09-May-2018_14:38:47 7307 22 female R 6 2 24 moral immoralOther U u 1 0.4361 
09-May-2018_14:38:52 7307 22 female R 6 3 1 moral immoralOther U u 1 0.4669 
09-May-2018_14:38:54 7307 22 female R 6 3 2 moral moralSelf Y y 1 0.5281 
09-May-2018_14:38:55 7307 22 female R 6 3 3 moral immoralSelf U u 1 0.3673 
09-May-2018_14:38:57 7307 22 female R 6 3 4 moral immoralOther U u 1 0.3052 
09-May-2018_14:38:59 7307 22 female R 6 3 5 moral moralSelf Y y 1 0.4926 
09-May-2018_14:39:01 7307 22 female R 6 3 6 moral moralOther Y y 1 0.5378 
09-May-2018_14:39:02 7307 22 female R 6 3 7 moral moralSelf Y y 1 0.5363 
09-May-2018_14:39:04 7307 22 female R 6 3 8 moral immoralOther U u 1 0.4019 
09-May-2018_14:39:06 7307 22 female R 6 3 9 moral immoralSelf U u 1 0.6208 
09-May-2018_14:39:07 7307 22 female R 6 3 10 moral immoralOther U u 1 0.3894 
09-May-2018_14:39:09 7307 22 female R 6 3 11 moral immoralOther U u 1 0.5659 
09-May-2018_14:39:11 7307 22 female R 6 3 12 moral immoralSelf U u 1 0.4004 
09-May-2018_14:39:13 7307 22 female R 6 3 13 moral immoralSelf U u 1 0.4268 
09-May-2018_14:39:15 7307 22 female R 6 3 14 moral immoralSelf U u 1 0.8152 
09-May-2018_14:39:17 7307 22 female R 6 3 15 moral moralOther Y y 1 0.4975 
09-May-2018_14:39:19 7307 22 female R 6 3 16 moral immoralOther U y 0 0.9874 
09-May-2018_14:39:21 7307 22 female R 6 3 17 moral moralSelf Y y 1 0.4423 
09-May-2018_14:39:23 7307 22 female R 6 3 18 moral moralOther Y y 1 0.5199 
09-May-2018_14:39:24 7307 22 female R 6 3 19 moral moralSelf Y y 1 0.4226 
09-May-2018_14:39:26 7307 22 female R 6 3 20 moral immoralSelf U u 1 0.3841 
09-May-2018_14:39:27 7307 22 female R 6 3 21 moral moralOther Y y 1 0.4609 
09-May-2018_14:39:29 7307 22 female R 6 3 22 moral moralSelf Y y 1 0.4360 
09-May-2018_14:39:31 7307 22 female R 6 3 23 moral moralOther Y y 1 0.4948 
09-May-2018_14:39:32 7307 22 female R 6 3 24 moral moralOther Y y 1 0.3664 
09-May-2018_14:39:34 7307 22 female R 6 4 1 moral moralOther Y y 1 0.4697 
09-May-2018_14:39:36 7307 22 female R 6 4 2 moral moralSelf Y y 1 0.3793 
09-May-2018_14:39:37 7307 22 female R 6 4 3 moral moralOther Y y 1 0.4142 
09-May-2018_14:39:39 7307 22 female R 6 4 4 moral immoralSelf U u 1 0.4674 
09-May-2018_14:39:41 7307 22 female R 6 4 5 moral moralSelf Y y 1 0.5367 
09-May-2018_14:39:43 7307 22 female R 6 4 6 moral moralOther Y y 1 0.4078 
09-May-2018_14:39:44 7307 22 female R 6 4 7 moral moralSelf Y y 1 0.3524 
09-May-2018_14:39:46 7307 22 female R 6 4 8 moral moralOther Y y 1 0.3995 
09-May-2018_14:39:48 7307 22 female R 6 4 9 moral immoralOther U y 0 0.3271 
09-May-2018_14:39:49 7307 22 female R 6 4 10 moral immoralSelf U u 1 0.4359 
09-May-2018_14:39:51 7307 22 female R 6 4 11 moral moralOther Y y 1 0.3762 
09-May-2018_14:39:53 7307 22 female R 6 4 12 moral moralSelf Y y 1 0.6242 
09-May-2018_14:39:55 7307 22 female R 6 4 13 moral immoralSelf U u 1 0.5020 
09-May-2018_14:39:56 7307 22 female R 6 4 14 moral moralSelf Y y 1 0.4475 
09-May-2018_14:39:58 7307 22 female R 6 4 15 moral immoralOther U u 1 0.4630 
09-May-2018_14:39:59 7307 22 female R 6 4 16 moral immoralSelf U u 1 0.3573 
09-May-2018_14:40:01 7307 22 female R 6 4 17 moral immoralOther U u 1 0.4378 
09-May-2018_14:40:03 7307 22 female R 6 4 18 moral immoralOther U u 1 0.3527 
09-May-2018_14:40:04 7307 22 female R 6 4 19 moral moralSelf Y y 1 0.5250 
09-May-2018_14:40:06 7307 22 female R 6 4 20 moral immoralSelf U u 1 0.3039 
09-May-2018_14:40:07 7307 22 female R 6 4 21 moral immoralOther U u 1 0.3468 
09-May-2018_14:40:09 7307 22 female R 6 4 22 moral immoralOther U u 1 0.3393 
09-May-2018_14:40:11 7307 22 female R 6 4 23 moral moralOther Y y 1 0.5153 
09-May-2018_14:40:12 7307 22 female R 6 4 24 moral immoralSelf U u 1 0.2947 
09-May-2018_14:40:22 7307 22 female R 6 5 1 moral moralSelf Y y 1 0.5540 
09-May-2018_14:40:23 7307 22 female R 6 5 2 moral moralOther Y y 1 0.4080 
09-May-2018_14:40:25 7307 22 female R 6 5 3 moral moralOther Y y 1 0.4802 
09-May-2018_14:40:27 7307 22 female R 6 5 4 moral immoralOther U u 1 0.5748 
09-May-2018_14:40:28 7307 22 female R 6 5 5 moral immoralSelf U u 1 0.4953 
09-May-2018_14:40:30 7307 22 female R 6 5 6 moral moralSelf Y y 1 0.5100 
09-May-2018_14:40:32 7307 22 female R 6 5 7 moral immoralOther U u 1 0.5318 
09-May-2018_14:40:34 7307 22 female R 6 5 8 moral moralSelf Y y 1 0.5511 
09-May-2018_14:40:35 7307 22 female R 6 5 9 moral immoralOther U u 1 0.3601 
09-May-2018_14:40:37 7307 22 female R 6 5 10 moral immoralOther U u 1 0.5630 
09-May-2018_14:40:39 7307 22 female R 6 5 11 moral moralOther Y y 1 0.3961 
09-May-2018_14:40:41 7307 22 female R 6 5 12 moral moralOther Y y 1 0.4493 
09-May-2018_14:40:42 7307 22 female R 6 5 13 moral moralSelf Y y 1 0.4729 
09-May-2018_14:40:44 7307 22 female R 6 5 14 moral immoralSelf U u 1 0.4132 
09-May-2018_14:40:46 7307 22 female R 6 5 15 moral moralSelf Y y 1 0.4613 
09-May-2018_14:40:48 7307 22 female R 6 5 16 moral immoralSelf U u 1 0.4486 
09-May-2018_14:40:49 7307 22 female R 6 5 17 moral immoralSelf U u 1 0.3495 
09-May-2018_14:40:51 7307 22 female R 6 5 18 moral immoralOther U u 1 0.6041 
09-May-2018_14:40:53 7307 22 female R 6 5 19 moral immoralSelf U u 1 0.4216 
09-May-2018_14:40:54 7307 22 female R 6 5 20 moral immoralSelf U u 1 0.3962 
09-May-2018_14:40:56 7307 22 female R 6 5 21 moral moralSelf Y y 1 0.4166 
09-May-2018_14:40:58 7307 22 female R 6 5 22 moral moralOther Y y 1 0.4043 
09-May-2018_14:40:59 7307 22 female R 6 5 23 moral moralOther Y y 1 0.4473 
09-May-2018_14:41:01 7307 22 female R 6 5 24 moral immoralOther U u 1 0.5174 
