Date Sub Age Sex Hand Block Bin Trial Task Shape corrResp Resp ACC RT
05-Jun-2018_14:01:41 7340 21 female R 1 1 1 self immoralSelf H NA -1 1.0841 
05-Jun-2018_14:01:43 7340 21 female R 1 1 2 self moralOther J NA -1 1.0841 
05-Jun-2018_14:01:46 7340 21 female R 1 1 3 self immoralSelf H h 1 0.8631 
05-Jun-2018_14:01:48 7340 21 female R 1 1 4 self moralSelf H h 1 0.7545 
05-Jun-2018_14:01:50 7340 21 female R 1 1 5 self moralOther J j 1 0.5852 
05-Jun-2018_14:01:52 7340 21 female R 1 1 6 self immoralOther J j 1 0.6338 
05-Jun-2018_14:01:54 7340 21 female R 1 1 7 self moralSelf H h 1 0.5543 
05-Jun-2018_14:01:56 7340 21 female R 1 1 8 self moralOther J NA -1 1.0841 
05-Jun-2018_14:01:58 7340 21 female R 1 1 9 self moralSelf H h 1 0.6171 
05-Jun-2018_14:02:00 7340 21 female R 1 1 10 self immoralOther J j 1 0.6134 
05-Jun-2018_14:02:02 7340 21 female R 1 1 11 self immoralSelf H h 1 0.7085 
05-Jun-2018_14:02:03 7340 21 female R 1 1 12 self moralOther J j 1 0.5458 
05-Jun-2018_14:02:05 7340 21 female R 1 1 13 self immoralOther J j 1 0.7232 
05-Jun-2018_14:02:07 7340 21 female R 1 1 14 self moralSelf H h 1 0.5412 
05-Jun-2018_14:02:09 7340 21 female R 1 1 15 self immoralOther J j 1 0.5428 
05-Jun-2018_14:02:12 7340 21 female R 1 1 16 self moralOther J NA -1 1.0841 
05-Jun-2018_14:02:14 7340 21 female R 1 1 17 self moralOther J j 1 0.9603 
05-Jun-2018_14:02:15 7340 21 female R 1 1 18 self immoralOther J j 1 0.5561 
05-Jun-2018_14:02:17 7340 21 female R 1 1 19 self immoralSelf H h 1 0.4390 
05-Jun-2018_14:02:19 7340 21 female R 1 1 20 self immoralOther J j 1 0.4768 
05-Jun-2018_14:02:21 7340 21 female R 1 1 21 self moralSelf H h 1 0.5291 
05-Jun-2018_14:02:22 7340 21 female R 1 1 22 self immoralSelf H j 0 0.4553 
05-Jun-2018_14:02:24 7340 21 female R 1 1 23 self immoralSelf H h 1 0.5692 
05-Jun-2018_14:02:26 7340 21 female R 1 1 24 self moralSelf H h 1 0.5236 
05-Jun-2018_14:02:28 7340 21 female R 1 2 1 self immoralOther J j 1 0.4338 
05-Jun-2018_14:02:29 7340 21 female R 1 2 2 self immoralOther J j 1 0.4815 
05-Jun-2018_14:02:31 7340 21 female R 1 2 3 self moralSelf H h 1 0.5017 
05-Jun-2018_14:02:33 7340 21 female R 1 2 4 self immoralSelf H h 1 0.4040 
05-Jun-2018_14:02:34 7340 21 female R 1 2 5 self moralSelf H h 1 0.3136 
05-Jun-2018_14:02:36 7340 21 female R 1 2 6 self immoralSelf H h 1 0.3028 
05-Jun-2018_14:02:37 7340 21 female R 1 2 7 self immoralOther J j 1 0.3840 
05-Jun-2018_14:02:39 7340 21 female R 1 2 8 self moralOther J j 1 0.3430 
05-Jun-2018_14:02:40 7340 21 female R 1 2 9 self moralSelf H h 1 0.3717 
05-Jun-2018_14:02:42 7340 21 female R 1 2 10 self moralOther J j 1 0.4589 
05-Jun-2018_14:02:43 7340 21 female R 1 2 11 self immoralSelf H h 1 0.4057 
05-Jun-2018_14:02:45 7340 21 female R 1 2 12 self immoralSelf H h 1 0.5550 
05-Jun-2018_14:02:47 7340 21 female R 1 2 13 self immoralSelf H h 1 0.4633 
05-Jun-2018_14:02:49 7340 21 female R 1 2 14 self moralOther J j 1 0.4262 
05-Jun-2018_14:02:50 7340 21 female R 1 2 15 self immoralSelf H h 1 0.5431 
05-Jun-2018_14:02:52 7340 21 female R 1 2 16 self immoralOther J j 1 0.5825 
05-Jun-2018_14:02:54 7340 21 female R 1 2 17 self moralSelf H h 1 0.4500 
05-Jun-2018_14:02:56 7340 21 female R 1 2 18 self moralSelf H h 1 0.4867 
05-Jun-2018_14:02:58 7340 21 female R 1 2 19 self immoralOther J j 1 0.5607 
05-Jun-2018_14:03:00 7340 21 female R 1 2 20 self moralOther J j 1 0.6658 
05-Jun-2018_14:03:02 7340 21 female R 1 2 21 self moralOther J j 1 0.6103 
05-Jun-2018_14:03:03 7340 21 female R 1 2 22 self moralSelf H h 1 0.5077 
05-Jun-2018_14:03:05 7340 21 female R 1 2 23 self moralOther J j 1 0.6749 
05-Jun-2018_14:03:07 7340 21 female R 1 2 24 self immoralOther J j 1 0.7677 
05-Jun-2018_14:03:21 7340 21 female R 1 3 1 self moralOther J j 1 0.7390 
05-Jun-2018_14:03:23 7340 21 female R 1 3 2 self moralSelf H h 1 0.4822 
05-Jun-2018_14:03:24 7340 21 female R 1 3 3 self immoralSelf H h 1 0.4761 
05-Jun-2018_14:03:26 7340 21 female R 1 3 4 self immoralSelf H h 1 0.5087 
05-Jun-2018_14:03:27 7340 21 female R 1 3 5 self immoralSelf H h 1 0.3925 
05-Jun-2018_14:03:29 7340 21 female R 1 3 6 self moralSelf H h 1 0.6128 
05-Jun-2018_14:03:31 7340 21 female R 1 3 7 self moralOther J j 1 0.7550 
05-Jun-2018_14:03:33 7340 21 female R 1 3 8 self immoralOther J j 1 0.6454 
05-Jun-2018_14:03:36 7340 21 female R 1 3 9 self moralSelf H h 1 0.5642 
05-Jun-2018_14:03:37 7340 21 female R 1 3 10 self immoralOther J j 1 0.4936 
05-Jun-2018_14:03:39 7340 21 female R 1 3 11 self immoralOther J j 1 0.4029 
05-Jun-2018_14:03:41 7340 21 female R 1 3 12 self immoralOther J j 1 0.2872 
05-Jun-2018_14:03:42 7340 21 female R 1 3 13 self moralSelf H h 1 0.4181 
05-Jun-2018_14:03:44 7340 21 female R 1 3 14 self immoralOther J j 1 0.4088 
05-Jun-2018_14:03:46 7340 21 female R 1 3 15 self moralSelf H h 1 0.4902 
05-Jun-2018_14:03:48 7340 21 female R 1 3 16 self moralSelf H h 1 0.3896 
05-Jun-2018_14:03:50 7340 21 female R 1 3 17 self immoralOther J j 1 0.5073 
05-Jun-2018_14:03:52 7340 21 female R 1 3 18 self moralOther J j 1 0.4011 
05-Jun-2018_14:03:53 7340 21 female R 1 3 19 self moralOther J j 1 0.4632 
05-Jun-2018_14:03:55 7340 21 female R 1 3 20 self moralOther J j 1 0.3969 
05-Jun-2018_14:03:56 7340 21 female R 1 3 21 self immoralSelf H h 1 0.4935 
05-Jun-2018_14:03:58 7340 21 female R 1 3 22 self immoralSelf H h 1 0.3622 
05-Jun-2018_14:04:00 7340 21 female R 1 3 23 self immoralSelf H h 1 0.3670 
05-Jun-2018_14:04:02 7340 21 female R 1 3 24 self moralOther J j 1 0.4584 
05-Jun-2018_14:04:04 7340 21 female R 1 4 1 self moralSelf H h 1 0.4772 
05-Jun-2018_14:04:06 7340 21 female R 1 4 2 self immoralSelf H h 1 0.5719 
05-Jun-2018_14:04:07 7340 21 female R 1 4 3 self immoralOther J j 1 0.5688 
05-Jun-2018_14:04:09 7340 21 female R 1 4 4 self immoralSelf H j 0 0.3660 
05-Jun-2018_14:04:11 7340 21 female R 1 4 5 self immoralOther J j 1 0.5157 
05-Jun-2018_14:04:13 7340 21 female R 1 4 6 self moralSelf H h 1 0.4560 
05-Jun-2018_14:04:14 7340 21 female R 1 4 7 self moralSelf H h 1 0.4626 
05-Jun-2018_14:04:16 7340 21 female R 1 4 8 self immoralSelf H h 1 0.3686 
05-Jun-2018_14:04:18 7340 21 female R 1 4 9 self moralOther J j 1 0.5584 
05-Jun-2018_14:04:20 7340 21 female R 1 4 10 self moralSelf H h 1 0.5269 
05-Jun-2018_14:04:22 7340 21 female R 1 4 11 self immoralSelf H h 1 0.4535 
05-Jun-2018_14:04:23 7340 21 female R 1 4 12 self immoralOther J j 1 0.4278 
05-Jun-2018_14:04:25 7340 21 female R 1 4 13 self immoralSelf H h 1 0.6194 
05-Jun-2018_14:04:27 7340 21 female R 1 4 14 self immoralOther J j 1 0.3907 
05-Jun-2018_14:04:29 7340 21 female R 1 4 15 self moralSelf H h 1 0.4336 
05-Jun-2018_14:04:30 7340 21 female R 1 4 16 self immoralSelf H j 0 0.3560 
05-Jun-2018_14:04:32 7340 21 female R 1 4 17 self moralOther J j 1 0.5956 
05-Jun-2018_14:04:34 7340 21 female R 1 4 18 self moralOther J j 1 0.4465 
05-Jun-2018_14:04:35 7340 21 female R 1 4 19 self immoralOther J j 1 0.6470 
05-Jun-2018_14:04:37 7340 21 female R 1 4 20 self moralOther J j 1 0.4712 
05-Jun-2018_14:04:39 7340 21 female R 1 4 21 self moralSelf H h 1 0.5498 
05-Jun-2018_14:04:41 7340 21 female R 1 4 22 self immoralOther J j 1 0.6294 
05-Jun-2018_14:04:43 7340 21 female R 1 4 23 self moralOther J j 1 0.5623 
05-Jun-2018_14:04:45 7340 21 female R 1 4 24 self moralOther J j 1 0.5189 
05-Jun-2018_14:05:05 7340 21 female R 1 5 1 self moralOther J j 1 0.6731 
05-Jun-2018_14:05:07 7340 21 female R 1 5 2 self moralSelf H h 1 0.5166 
05-Jun-2018_14:05:09 7340 21 female R 1 5 3 self immoralOther J j 1 0.4225 
05-Jun-2018_14:05:11 7340 21 female R 1 5 4 self moralSelf H h 1 0.5073 
05-Jun-2018_14:05:12 7340 21 female R 1 5 5 self immoralOther J j 1 0.3503 
05-Jun-2018_14:05:14 7340 21 female R 1 5 6 self immoralOther J j 1 0.3390 
05-Jun-2018_14:05:15 7340 21 female R 1 5 7 self immoralOther J j 1 0.3348 
05-Jun-2018_14:05:16 7340 21 female R 1 5 8 self moralSelf H h 1 0.3947 
05-Jun-2018_14:05:18 7340 21 female R 1 5 9 self moralSelf H h 1 0.3923 
05-Jun-2018_14:05:20 7340 21 female R 1 5 10 self moralOther J j 1 0.5238 
05-Jun-2018_14:05:21 7340 21 female R 1 5 11 self moralOther J j 1 0.3934 
05-Jun-2018_14:05:23 7340 21 female R 1 5 12 self immoralSelf H h 1 0.5496 
05-Jun-2018_14:05:24 7340 21 female R 1 5 13 self immoralSelf H h 1 0.4744 
05-Jun-2018_14:05:26 7340 21 female R 1 5 14 self immoralSelf H h 1 0.3531 
05-Jun-2018_14:05:28 7340 21 female R 1 5 15 self immoralOther J j 1 0.3621 
05-Jun-2018_14:05:30 7340 21 female R 1 5 16 self moralOther J j 1 0.6681 
05-Jun-2018_14:05:32 7340 21 female R 1 5 17 self immoralSelf H h 1 0.4945 
05-Jun-2018_14:05:34 7340 21 female R 1 5 18 self moralOther J j 1 0.5106 
05-Jun-2018_14:05:36 7340 21 female R 1 5 19 self immoralSelf H h 1 0.4589 
05-Jun-2018_14:05:37 7340 21 female R 1 5 20 self moralOther J j 1 0.4665 
05-Jun-2018_14:05:39 7340 21 female R 1 5 21 self immoralOther J h 0 0.8256 
05-Jun-2018_14:05:41 7340 21 female R 1 5 22 self moralSelf H h 1 0.4196 
05-Jun-2018_14:05:43 7340 21 female R 1 5 23 self moralSelf H h 1 0.4155 
05-Jun-2018_14:05:44 7340 21 female R 1 5 24 self immoralSelf H h 1 0.4965 
Date Sub Age Sex Hand Block Bin Trial Task Shape corrResp Resp ACC RT
05-Jun-2018_14:08:27 7340 21 female R 2 1 1 moral immoralOther U u 1 0.5886 
05-Jun-2018_14:08:29 7340 21 female R 2 1 2 moral immoralOther U u 1 0.5616 
05-Jun-2018_14:08:31 7340 21 female R 2 1 3 moral immoralSelf U u 1 1.0214 
05-Jun-2018_14:08:32 7340 21 female R 2 1 4 moral moralSelf Y y 1 0.3400 
05-Jun-2018_14:08:34 7340 21 female R 2 1 5 moral moralOther Y u 0 0.4836 
05-Jun-2018_14:08:36 7340 21 female R 2 1 6 moral immoralSelf U y 0 0.5712 
05-Jun-2018_14:08:38 7340 21 female R 2 1 7 moral moralOther Y y 1 0.7553 
05-Jun-2018_14:08:40 7340 21 female R 2 1 8 moral moralOther Y u 0 0.6284 
05-Jun-2018_14:08:43 7340 21 female R 2 1 9 moral immoralSelf U y 0 1.0610 
05-Jun-2018_14:08:44 7340 21 female R 2 1 10 moral moralSelf Y y 1 0.5307 
05-Jun-2018_14:08:46 7340 21 female R 2 1 11 moral moralSelf Y y 1 0.3925 
05-Jun-2018_14:08:48 7340 21 female R 2 1 12 moral immoralOther U u 1 0.5995 
05-Jun-2018_14:08:50 7340 21 female R 2 1 13 moral immoralSelf U y 0 0.5704 
05-Jun-2018_14:08:52 7340 21 female R 2 1 14 moral moralSelf Y y 1 0.4237 
05-Jun-2018_14:08:53 7340 21 female R 2 1 15 moral moralOther Y u 0 0.5588 
05-Jun-2018_14:08:55 7340 21 female R 2 1 16 moral moralSelf Y y 1 0.3499 
05-Jun-2018_14:08:57 7340 21 female R 2 1 17 moral immoralOther U u 1 0.7636 
05-Jun-2018_14:08:59 7340 21 female R 2 1 18 moral moralOther Y u 0 0.5910 
05-Jun-2018_14:09:01 7340 21 female R 2 1 19 moral immoralOther U u 1 0.4641 
05-Jun-2018_14:09:03 7340 21 female R 2 1 20 moral immoralSelf U y 0 0.5103 
05-Jun-2018_14:09:04 7340 21 female R 2 1 21 moral moralSelf Y y 1 0.2967 
05-Jun-2018_14:09:06 7340 21 female R 2 1 22 moral immoralSelf U y 0 0.4821 
05-Jun-2018_14:09:08 7340 21 female R 2 1 23 moral moralOther Y u 0 0.5382 
05-Jun-2018_14:09:10 7340 21 female R 2 1 24 moral immoralOther U u 1 0.4705 
05-Jun-2018_14:09:11 7340 21 female R 2 2 1 moral moralSelf Y y 1 0.4335 
05-Jun-2018_14:09:13 7340 21 female R 2 2 2 moral immoralSelf U y 0 0.3244 
05-Jun-2018_14:09:14 7340 21 female R 2 2 3 moral moralSelf Y y 1 0.4787 
05-Jun-2018_14:09:16 7340 21 female R 2 2 4 moral moralSelf Y y 1 0.3343 
05-Jun-2018_14:09:17 7340 21 female R 2 2 5 moral immoralSelf U y 0 0.5213 
05-Jun-2018_14:09:19 7340 21 female R 2 2 6 moral moralSelf Y u 0 0.3311 
05-Jun-2018_14:09:21 7340 21 female R 2 2 7 moral immoralSelf U y 0 0.3330 
05-Jun-2018_14:09:23 7340 21 female R 2 2 8 moral immoralSelf U y 0 0.4264 
05-Jun-2018_14:09:24 7340 21 female R 2 2 9 moral immoralOther U u 1 0.6006 
05-Jun-2018_14:09:26 7340 21 female R 2 2 10 moral moralOther Y u 0 0.5733 
05-Jun-2018_14:09:28 7340 21 female R 2 2 11 moral moralSelf Y y 1 0.4482 
05-Jun-2018_14:09:30 7340 21 female R 2 2 12 moral moralSelf Y y 1 0.3227 
05-Jun-2018_14:09:31 7340 21 female R 2 2 13 moral immoralOther U u 1 0.4530 
05-Jun-2018_14:09:33 7340 21 female R 2 2 14 moral moralOther Y u 0 0.4701 
05-Jun-2018_14:09:35 7340 21 female R 2 2 15 moral immoralSelf U y 0 0.4857 
05-Jun-2018_14:09:37 7340 21 female R 2 2 16 moral immoralOther U u 1 0.5271 
05-Jun-2018_14:09:38 7340 21 female R 2 2 17 moral immoralOther U u 1 0.4087 
05-Jun-2018_14:09:40 7340 21 female R 2 2 18 moral immoralSelf U y 0 0.6826 
05-Jun-2018_14:09:42 7340 21 female R 2 2 19 moral moralOther Y u 0 0.5138 
05-Jun-2018_14:09:43 7340 21 female R 2 2 20 moral moralOther Y u 0 0.3796 
05-Jun-2018_14:09:45 7340 21 female R 2 2 21 moral immoralOther U u 1 0.3925 
05-Jun-2018_14:09:47 7340 21 female R 2 2 22 moral moralOther Y u 0 0.4223 
05-Jun-2018_14:09:48 7340 21 female R 2 2 23 moral immoralOther U u 1 0.3051 
05-Jun-2018_14:09:50 7340 21 female R 2 2 24 moral moralOther Y u 0 0.3024 
05-Jun-2018_14:09:56 7340 21 female R 2 3 1 moral moralSelf Y y 1 0.3289 
05-Jun-2018_14:09:58 7340 21 female R 2 3 2 moral immoralSelf U y 0 0.2608 
05-Jun-2018_14:09:59 7340 21 female R 2 3 3 moral moralSelf Y y 1 0.3361 
05-Jun-2018_14:10:01 7340 21 female R 2 3 4 moral moralOther Y u 0 0.3367 
05-Jun-2018_14:10:02 7340 21 female R 2 3 5 moral moralOther Y u 0 0.3734 
05-Jun-2018_14:10:04 7340 21 female R 2 3 6 moral immoralSelf U u 1 0.3032 
05-Jun-2018_14:10:06 7340 21 female R 2 3 7 moral moralSelf Y y 1 0.2733 
05-Jun-2018_14:10:07 7340 21 female R 2 3 8 moral moralSelf Y y 1 0.3045 
05-Jun-2018_14:10:09 7340 21 female R 2 3 9 moral immoralSelf U y 0 0.2828 
05-Jun-2018_14:10:10 7340 21 female R 2 3 10 moral moralOther Y y 1 0.2716 
05-Jun-2018_14:10:12 7340 21 female R 2 3 11 moral immoralOther U u 1 0.3629 
05-Jun-2018_14:10:13 7340 21 female R 2 3 12 moral moralOther Y u 0 0.4186 
05-Jun-2018_14:10:15 7340 21 female R 2 3 13 moral moralOther Y u 0 0.2948 
05-Jun-2018_14:10:16 7340 21 female R 2 3 14 moral immoralSelf U y 0 0.3504 
05-Jun-2018_14:10:18 7340 21 female R 2 3 15 moral moralSelf Y y 1 0.4423 
05-Jun-2018_14:10:19 7340 21 female R 2 3 16 moral immoralOther U u 1 0.4922 
05-Jun-2018_14:10:21 7340 21 female R 2 3 17 moral immoralSelf U y 0 0.4245 
05-Jun-2018_14:10:23 7340 21 female R 2 3 18 moral immoralSelf U y 0 0.6255 
05-Jun-2018_14:10:25 7340 21 female R 2 3 19 moral moralOther Y u 0 0.5122 
05-Jun-2018_14:10:26 7340 21 female R 2 3 20 moral immoralOther U u 1 0.4186 
05-Jun-2018_14:10:28 7340 21 female R 2 3 21 moral immoralOther U u 1 0.3255 
05-Jun-2018_14:10:30 7340 21 female R 2 3 22 moral moralSelf Y y 1 0.4286 
05-Jun-2018_14:10:31 7340 21 female R 2 3 23 moral immoralOther U u 1 0.5473 
05-Jun-2018_14:10:33 7340 21 female R 2 3 24 moral immoralOther U u 1 0.4871 
05-Jun-2018_14:10:34 7340 21 female R 2 4 1 moral moralSelf Y y 1 0.4261 
05-Jun-2018_14:10:36 7340 21 female R 2 4 2 moral moralOther Y u 0 0.5677 
05-Jun-2018_14:10:38 7340 21 female R 2 4 3 moral immoralSelf U y 0 0.3146 
05-Jun-2018_14:10:39 7340 21 female R 2 4 4 moral moralOther Y u 0 0.4945 
05-Jun-2018_14:10:41 7340 21 female R 2 4 5 moral moralOther Y u 0 0.3453 
05-Jun-2018_14:10:43 7340 21 female R 2 4 6 moral moralSelf Y y 1 0.4598 
05-Jun-2018_14:10:44 7340 21 female R 2 4 7 moral moralOther Y u 0 0.4670 
05-Jun-2018_14:10:46 7340 21 female R 2 4 8 moral immoralOther U u 1 0.5578 
05-Jun-2018_14:10:48 7340 21 female R 2 4 9 moral moralSelf Y y 1 0.3216 
05-Jun-2018_14:10:50 7340 21 female R 2 4 10 moral immoralSelf U y 0 0.7410 
05-Jun-2018_14:10:52 7340 21 female R 2 4 11 moral immoralOther U u 1 0.3241 
05-Jun-2018_14:10:53 7340 21 female R 2 4 12 moral moralOther Y u 0 0.3981 
05-Jun-2018_14:10:55 7340 21 female R 2 4 13 moral immoralSelf U y 0 0.4552 
05-Jun-2018_14:10:57 7340 21 female R 2 4 14 moral moralSelf Y y 1 0.4599 
05-Jun-2018_14:10:58 7340 21 female R 2 4 15 moral immoralSelf U y 0 0.3385 
05-Jun-2018_14:11:00 7340 21 female R 2 4 16 moral immoralOther U u 1 0.4388 
05-Jun-2018_14:11:01 7340 21 female R 2 4 17 moral moralSelf Y y 1 0.2747 
05-Jun-2018_14:11:03 7340 21 female R 2 4 18 moral immoralSelf U y 0 0.3458 
05-Jun-2018_14:11:05 7340 21 female R 2 4 19 moral moralOther Y y 1 0.2908 
05-Jun-2018_14:11:06 7340 21 female R 2 4 20 moral immoralOther U u 1 0.3078 
05-Jun-2018_14:11:08 7340 21 female R 2 4 21 moral immoralSelf U y 0 0.4895 
05-Jun-2018_14:11:10 7340 21 female R 2 4 22 moral moralSelf Y y 1 0.3465 
05-Jun-2018_14:11:12 7340 21 female R 2 4 23 moral immoralOther U u 1 0.4661 
05-Jun-2018_14:11:13 7340 21 female R 2 4 24 moral immoralOther U u 1 0.3688 
05-Jun-2018_14:11:18 7340 21 female R 2 5 1 moral immoralOther U u 1 0.5257 
05-Jun-2018_14:11:19 7340 21 female R 2 5 2 moral immoralSelf U u 1 0.3008 
05-Jun-2018_14:11:21 7340 21 female R 2 5 3 moral immoralSelf U y 0 0.5357 
05-Jun-2018_14:11:23 7340 21 female R 2 5 4 moral moralSelf Y y 1 0.3669 
05-Jun-2018_14:11:25 7340 21 female R 2 5 5 moral immoralOther U u 1 0.4751 
05-Jun-2018_14:11:26 7340 21 female R 2 5 6 moral moralSelf Y y 1 0.3850 
05-Jun-2018_14:11:28 7340 21 female R 2 5 7 moral immoralOther U u 1 0.5290 
05-Jun-2018_14:11:30 7340 21 female R 2 5 8 moral moralSelf Y y 1 0.6076 
05-Jun-2018_14:11:32 7340 21 female R 2 5 9 moral moralSelf Y y 1 0.4373 
05-Jun-2018_14:11:34 7340 21 female R 2 5 10 moral immoralSelf U y 0 0.4417 
05-Jun-2018_14:11:35 7340 21 female R 2 5 11 moral immoralOther U u 1 0.3193 
05-Jun-2018_14:11:37 7340 21 female R 2 5 12 moral moralOther Y u 0 0.4653 
05-Jun-2018_14:11:39 7340 21 female R 2 5 13 moral immoralOther U u 1 0.4333 
05-Jun-2018_14:11:41 7340 21 female R 2 5 14 moral moralOther Y u 0 0.5482 
05-Jun-2018_14:11:42 7340 21 female R 2 5 15 moral moralOther Y u 0 0.3244 
05-Jun-2018_14:11:44 7340 21 female R 2 5 16 moral immoralSelf U y 0 0.3569 
05-Jun-2018_14:11:45 7340 21 female R 2 5 17 moral moralOther Y u 0 0.3405 
05-Jun-2018_14:11:47 7340 21 female R 2 5 18 moral immoralSelf U y 0 0.4587 
05-Jun-2018_14:11:49 7340 21 female R 2 5 19 moral moralOther Y u 0 0.4310 
05-Jun-2018_14:11:51 7340 21 female R 2 5 20 moral moralSelf Y y 1 0.5594 
05-Jun-2018_14:11:52 7340 21 female R 2 5 21 moral immoralOther U u 1 0.3930 
05-Jun-2018_14:11:54 7340 21 female R 2 5 22 moral moralSelf Y y 1 0.4109 
05-Jun-2018_14:11:56 7340 21 female R 2 5 23 moral moralOther Y u 0 0.4835 
05-Jun-2018_14:11:58 7340 21 female R 2 5 24 moral immoralSelf U y 0 0.4756 
Date Sub Age Sex Hand Block Bin Trial Task Shape corrResp Resp ACC RT
05-Jun-2018_14:14:26 7340 21 female R 3 1 1 self immoralOther J j 1 0.4995 
05-Jun-2018_14:14:28 7340 21 female R 3 1 2 self moralSelf H h 1 0.4625 
05-Jun-2018_14:14:30 7340 21 female R 3 1 3 self immoralSelf H h 1 0.6804 
05-Jun-2018_14:14:32 7340 21 female R 3 1 4 self moralSelf H h 1 0.4334 
05-Jun-2018_14:14:33 7340 21 female R 3 1 5 self immoralSelf H h 1 0.4923 
05-Jun-2018_14:14:35 7340 21 female R 3 1 6 self moralSelf H h 1 0.3894 
05-Jun-2018_14:14:37 7340 21 female R 3 1 7 self immoralOther J j 1 0.4469 
05-Jun-2018_14:14:39 7340 21 female R 3 1 8 self moralOther J j 1 0.4468 
05-Jun-2018_14:14:40 7340 21 female R 3 1 9 self immoralOther J j 1 0.3773 
05-Jun-2018_14:14:42 7340 21 female R 3 1 10 self moralOther J j 1 0.4673 
05-Jun-2018_14:14:44 7340 21 female R 3 1 11 self immoralOther J j 1 0.3779 
05-Jun-2018_14:14:45 7340 21 female R 3 1 12 self moralOther J j 1 0.3799 
05-Jun-2018_14:14:47 7340 21 female R 3 1 13 self moralSelf H h 1 0.4632 
05-Jun-2018_14:14:49 7340 21 female R 3 1 14 self immoralOther J j 1 0.5203 
05-Jun-2018_14:14:50 7340 21 female R 3 1 15 self immoralSelf H h 1 0.4751 
05-Jun-2018_14:14:52 7340 21 female R 3 1 16 self moralOther J j 1 0.3585 
05-Jun-2018_14:14:54 7340 21 female R 3 1 17 self immoralOther J j 1 0.3021 
05-Jun-2018_14:14:55 7340 21 female R 3 1 18 self moralOther J j 1 0.2786 
05-Jun-2018_14:14:57 7340 21 female R 3 1 19 self moralSelf H h 1 0.4598 
05-Jun-2018_14:14:59 7340 21 female R 3 1 20 self immoralSelf H h 1 0.3376 
05-Jun-2018_14:15:01 7340 21 female R 3 1 21 self moralSelf H h 1 0.4813 
05-Jun-2018_14:15:02 7340 21 female R 3 1 22 self immoralSelf H h 1 0.4008 
05-Jun-2018_14:15:04 7340 21 female R 3 1 23 self moralOther J j 1 0.5421 
05-Jun-2018_14:15:06 7340 21 female R 3 1 24 self immoralSelf H j 0 0.2928 
05-Jun-2018_14:15:07 7340 21 female R 3 2 1 self moralOther J j 1 0.4904 
05-Jun-2018_14:15:09 7340 21 female R 3 2 2 self moralSelf H h 1 0.4740 
05-Jun-2018_14:15:11 7340 21 female R 3 2 3 self immoralOther J j 1 0.4096 
05-Jun-2018_14:15:12 7340 21 female R 3 2 4 self moralSelf H h 1 0.3151 
05-Jun-2018_14:15:14 7340 21 female R 3 2 5 self immoralOther J j 1 0.3891 
05-Jun-2018_14:15:15 7340 21 female R 3 2 6 self immoralOther J j 1 0.4409 
05-Jun-2018_14:15:17 7340 21 female R 3 2 7 self moralOther J j 1 0.5402 
05-Jun-2018_14:15:19 7340 21 female R 3 2 8 self moralSelf H h 1 0.3309 
05-Jun-2018_14:15:21 7340 21 female R 3 2 9 self immoralSelf H j 0 0.3328 
05-Jun-2018_14:15:22 7340 21 female R 3 2 10 self moralSelf H h 1 0.3080 
05-Jun-2018_14:15:24 7340 21 female R 3 2 11 self moralSelf H h 1 0.8229 
05-Jun-2018_14:15:26 7340 21 female R 3 2 12 self immoralSelf H h 1 0.3307 
05-Jun-2018_14:15:28 7340 21 female R 3 2 13 self moralOther J j 1 0.5247 
05-Jun-2018_14:15:29 7340 21 female R 3 2 14 self immoralSelf H h 1 0.3408 
05-Jun-2018_14:15:31 7340 21 female R 3 2 15 self immoralSelf H h 1 0.3192 
05-Jun-2018_14:15:33 7340 21 female R 3 2 16 self immoralOther J j 1 0.4703 
05-Jun-2018_14:15:35 7340 21 female R 3 2 17 self moralOther J j 1 0.8002 
05-Jun-2018_14:15:37 7340 21 female R 3 2 18 self moralOther J j 1 0.4502 
05-Jun-2018_14:15:39 7340 21 female R 3 2 19 self immoralSelf H h 1 0.5261 
05-Jun-2018_14:15:40 7340 21 female R 3 2 20 self moralOther J j 1 0.5238 
05-Jun-2018_14:15:42 7340 21 female R 3 2 21 self moralSelf H h 1 0.4048 
05-Jun-2018_14:15:43 7340 21 female R 3 2 22 self immoralSelf H h 1 0.4619 
05-Jun-2018_14:15:45 7340 21 female R 3 2 23 self immoralOther J j 1 0.4793 
05-Jun-2018_14:15:47 7340 21 female R 3 2 24 self immoralOther J j 1 0.4426 
05-Jun-2018_14:15:53 7340 21 female R 3 3 1 self moralSelf H h 1 0.4184 
05-Jun-2018_14:15:55 7340 21 female R 3 3 2 self moralOther J h 0 0.2839 
05-Jun-2018_14:15:56 7340 21 female R 3 3 3 self immoralSelf H j 0 0.3335 
05-Jun-2018_14:15:58 7340 21 female R 3 3 4 self immoralSelf H h 1 0.2658 
05-Jun-2018_14:15:59 7340 21 female R 3 3 5 self immoralSelf H h 1 0.2748 
05-Jun-2018_14:16:01 7340 21 female R 3 3 6 self immoralSelf H h 1 0.2669 
05-Jun-2018_14:16:03 7340 21 female R 3 3 7 self immoralSelf H h 1 0.4763 
05-Jun-2018_14:16:04 7340 21 female R 3 3 8 self immoralOther J j 1 0.4575 
05-Jun-2018_14:16:06 7340 21 female R 3 3 9 self immoralOther J j 1 0.3404 
05-Jun-2018_14:16:08 7340 21 female R 3 3 10 self moralSelf H h 1 0.4878 
05-Jun-2018_14:16:09 7340 21 female R 3 3 11 self moralSelf H h 1 0.3660 
05-Jun-2018_14:16:11 7340 21 female R 3 3 12 self moralSelf H h 1 0.2978 
05-Jun-2018_14:16:13 7340 21 female R 3 3 13 self moralOther J j 1 0.3873 
05-Jun-2018_14:16:14 7340 21 female R 3 3 14 self immoralOther J j 1 0.4353 
05-Jun-2018_14:16:16 7340 21 female R 3 3 15 self moralSelf H h 1 0.4161 
05-Jun-2018_14:16:18 7340 21 female R 3 3 16 self moralOther J j 1 0.5121 
05-Jun-2018_14:16:20 7340 21 female R 3 3 17 self moralOther J j 1 0.6675 
05-Jun-2018_14:16:22 7340 21 female R 3 3 18 self moralOther J j 1 0.5598 
05-Jun-2018_14:16:23 7340 21 female R 3 3 19 self immoralOther J j 1 0.3567 
05-Jun-2018_14:16:25 7340 21 female R 3 3 20 self immoralOther J j 1 0.2904 
05-Jun-2018_14:16:26 7340 21 female R 3 3 21 self immoralOther J j 1 0.2758 
05-Jun-2018_14:16:28 7340 21 female R 3 3 22 self moralOther J j 1 0.3643 
05-Jun-2018_14:16:29 7340 21 female R 3 3 23 self moralSelf H h 1 0.4294 
05-Jun-2018_14:16:31 7340 21 female R 3 3 24 self immoralSelf H h 1 0.4628 
05-Jun-2018_14:16:33 7340 21 female R 3 4 1 self moralOther J j 1 0.3904 
05-Jun-2018_14:16:34 7340 21 female R 3 4 2 self moralOther J j 1 0.3425 
05-Jun-2018_14:16:36 7340 21 female R 3 4 3 self immoralOther J j 1 0.4250 
05-Jun-2018_14:16:38 7340 21 female R 3 4 4 self immoralOther J j 1 0.4800 
05-Jun-2018_14:16:39 7340 21 female R 3 4 5 self immoralOther J j 1 0.2613 
05-Jun-2018_14:16:41 7340 21 female R 3 4 6 self moralSelf H h 1 0.4567 
05-Jun-2018_14:16:43 7340 21 female R 3 4 7 self immoralSelf H h 1 0.3227 
05-Jun-2018_14:16:44 7340 21 female R 3 4 8 self moralSelf H h 1 0.4084 
05-Jun-2018_14:16:46 7340 21 female R 3 4 9 self immoralSelf H h 1 0.3886 
05-Jun-2018_14:16:48 7340 21 female R 3 4 10 self immoralOther J j 1 0.4815 
05-Jun-2018_14:16:50 7340 21 female R 3 4 11 self immoralSelf H h 1 0.4015 
05-Jun-2018_14:16:51 7340 21 female R 3 4 12 self moralSelf H j 0 0.3198 
05-Jun-2018_14:16:53 7340 21 female R 3 4 13 self moralOther J j 1 0.5804 
05-Jun-2018_14:16:55 7340 21 female R 3 4 14 self moralOther J j 1 0.5405 
05-Jun-2018_14:16:57 7340 21 female R 3 4 15 self moralOther J j 1 0.3746 
05-Jun-2018_14:16:59 7340 21 female R 3 4 16 self immoralSelf H h 1 0.6038 
05-Jun-2018_14:17:00 7340 21 female R 3 4 17 self moralSelf H h 1 0.5569 
05-Jun-2018_14:17:02 7340 21 female R 3 4 18 self immoralSelf H h 1 0.4241 
05-Jun-2018_14:17:04 7340 21 female R 3 4 19 self moralSelf H h 1 0.3390 
05-Jun-2018_14:17:05 7340 21 female R 3 4 20 self moralOther J j 1 0.5462 
05-Jun-2018_14:17:07 7340 21 female R 3 4 21 self immoralOther J j 1 0.4624 
05-Jun-2018_14:17:09 7340 21 female R 3 4 22 self immoralOther J j 1 0.4842 
05-Jun-2018_14:17:11 7340 21 female R 3 4 23 self immoralSelf H h 1 0.4466 
05-Jun-2018_14:17:13 7340 21 female R 3 4 24 self moralSelf H h 1 0.4994 
05-Jun-2018_14:17:26 7340 21 female R 3 5 1 self moralOther J j 1 0.5188 
05-Jun-2018_14:17:27 7340 21 female R 3 5 2 self immoralOther J j 1 0.3179 
05-Jun-2018_14:17:29 7340 21 female R 3 5 3 self moralSelf H h 1 0.3970 
05-Jun-2018_14:17:30 7340 21 female R 3 5 4 self immoralSelf H h 1 0.2955 
05-Jun-2018_14:17:32 7340 21 female R 3 5 5 self immoralSelf H h 1 0.2847 
05-Jun-2018_14:17:34 7340 21 female R 3 5 6 self moralOther J j 1 0.4875 
05-Jun-2018_14:17:35 7340 21 female R 3 5 7 self moralOther J j 1 0.3530 
05-Jun-2018_14:17:37 7340 21 female R 3 5 8 self immoralOther J j 1 0.3324 
05-Jun-2018_14:17:39 7340 21 female R 3 5 9 self immoralOther J j 1 0.3292 
05-Jun-2018_14:17:40 7340 21 female R 3 5 10 self moralSelf H h 1 0.3777 
05-Jun-2018_14:17:42 7340 21 female R 3 5 11 self moralOther J j 1 0.6559 
05-Jun-2018_14:17:44 7340 21 female R 3 5 12 self moralSelf H h 1 0.3204 
05-Jun-2018_14:17:46 7340 21 female R 3 5 13 self immoralOther J j 1 0.4668 
05-Jun-2018_14:17:48 7340 21 female R 3 5 14 self moralSelf H h 1 0.4943 
05-Jun-2018_14:17:49 7340 21 female R 3 5 15 self moralSelf H h 1 0.2943 
05-Jun-2018_14:17:51 7340 21 female R 3 5 16 self immoralSelf H h 1 0.4031 
05-Jun-2018_14:17:53 7340 21 female R 3 5 17 self immoralSelf H h 1 0.3562 
05-Jun-2018_14:17:54 7340 21 female R 3 5 18 self immoralSelf H h 1 0.3034 
05-Jun-2018_14:17:56 7340 21 female R 3 5 19 self moralSelf H h 1 0.3642 
05-Jun-2018_14:17:58 7340 21 female R 3 5 20 self immoralOther J j 1 0.3898 
05-Jun-2018_14:18:00 7340 21 female R 3 5 21 self moralOther J j 1 0.5315 
05-Jun-2018_14:18:02 7340 21 female R 3 5 22 self moralOther J j 1 0.4557 
05-Jun-2018_14:18:03 7340 21 female R 3 5 23 self immoralSelf H h 1 0.4607 
05-Jun-2018_14:18:05 7340 21 female R 3 5 24 self immoralOther J j 1 0.4469 
Date Sub Age Sex Hand Block Bin Trial Task Shape corrResp Resp ACC RT
05-Jun-2018_14:20:28 7340 21 female R 4 1 1 moral moralOther Y u 0 0.9681 
05-Jun-2018_14:20:30 7340 21 female R 4 1 2 moral immoralSelf U y 0 0.6774 
05-Jun-2018_14:20:32 7340 21 female R 4 1 3 moral immoralOther U u 1 0.4370 
05-Jun-2018_14:20:34 7340 21 female R 4 1 4 moral moralSelf Y y 1 0.5387 
05-Jun-2018_14:20:36 7340 21 female R 4 1 5 moral immoralSelf U y 0 0.3661 
05-Jun-2018_14:20:37 7340 21 female R 4 1 6 moral moralSelf Y y 1 0.4411 
05-Jun-2018_14:20:39 7340 21 female R 4 1 7 moral moralSelf Y y 1 0.3313 
05-Jun-2018_14:20:41 7340 21 female R 4 1 8 moral immoralSelf U y 0 0.2793 
05-Jun-2018_14:20:43 7340 21 female R 4 1 9 moral immoralOther U u 1 0.4158 
05-Jun-2018_14:20:44 7340 21 female R 4 1 10 moral moralSelf Y y 1 0.5054 
05-Jun-2018_14:20:46 7340 21 female R 4 1 11 moral immoralOther U u 1 0.4291 
05-Jun-2018_14:20:48 7340 21 female R 4 1 12 moral immoralSelf U y 0 0.4047 
05-Jun-2018_14:20:49 7340 21 female R 4 1 13 moral moralOther Y u 0 0.3629 
05-Jun-2018_14:20:51 7340 21 female R 4 1 14 moral immoralOther U u 1 0.5150 
05-Jun-2018_14:20:53 7340 21 female R 4 1 15 moral moralOther Y u 0 0.5090 
05-Jun-2018_14:20:54 7340 21 female R 4 1 16 moral moralOther Y u 0 0.3213 
05-Jun-2018_14:20:56 7340 21 female R 4 1 17 moral moralOther Y u 0 0.3157 
05-Jun-2018_14:20:57 7340 21 female R 4 1 18 moral immoralOther U u 1 0.2853 
05-Jun-2018_14:20:59 7340 21 female R 4 1 19 moral immoralSelf U y 0 0.5483 
05-Jun-2018_14:21:01 7340 21 female R 4 1 20 moral moralSelf Y y 1 0.4727 
05-Jun-2018_14:21:03 7340 21 female R 4 1 21 moral immoralOther U u 1 0.4638 
05-Jun-2018_14:21:05 7340 21 female R 4 1 22 moral immoralSelf U u 1 0.6045 
05-Jun-2018_14:21:06 7340 21 female R 4 1 23 moral moralSelf Y y 1 0.3458 
05-Jun-2018_14:21:08 7340 21 female R 4 1 24 moral moralOther Y u 0 0.7261 
05-Jun-2018_14:21:10 7340 21 female R 4 2 1 moral moralOther Y u 0 0.6114 
05-Jun-2018_14:21:12 7340 21 female R 4 2 2 moral moralOther Y u 0 0.4543 
05-Jun-2018_14:21:13 7340 21 female R 4 2 3 moral immoralSelf U y 0 0.5140 
05-Jun-2018_14:21:15 7340 21 female R 4 2 4 moral moralSelf Y y 1 0.4177 
05-Jun-2018_14:21:17 7340 21 female R 4 2 5 moral moralOther Y u 0 0.5509 
05-Jun-2018_14:21:19 7340 21 female R 4 2 6 moral immoralSelf U y 0 0.5133 
05-Jun-2018_14:21:21 7340 21 female R 4 2 7 moral immoralOther U u 1 0.4033 
05-Jun-2018_14:21:23 7340 21 female R 4 2 8 moral moralOther Y u 0 0.6063 
05-Jun-2018_14:21:24 7340 21 female R 4 2 9 moral moralOther Y u 0 0.4237 
05-Jun-2018_14:21:26 7340 21 female R 4 2 10 moral immoralSelf U y 0 0.5757 
05-Jun-2018_14:21:28 7340 21 female R 4 2 11 moral immoralOther U u 1 0.4742 
05-Jun-2018_14:21:29 7340 21 female R 4 2 12 moral immoralOther U u 1 0.3411 
05-Jun-2018_14:21:31 7340 21 female R 4 2 13 moral moralSelf Y y 1 0.4659 
05-Jun-2018_14:21:32 7340 21 female R 4 2 14 moral moralSelf Y y 1 0.3116 
05-Jun-2018_14:21:34 7340 21 female R 4 2 15 moral immoralSelf U y 0 0.3276 
05-Jun-2018_14:21:36 7340 21 female R 4 2 16 moral immoralOther U u 1 0.3725 
05-Jun-2018_14:21:37 7340 21 female R 4 2 17 moral moralSelf Y y 1 0.4614 
05-Jun-2018_14:21:39 7340 21 female R 4 2 18 moral moralSelf Y u 0 0.7636 
05-Jun-2018_14:21:41 7340 21 female R 4 2 19 moral moralSelf Y y 1 0.2978 
05-Jun-2018_14:21:43 7340 21 female R 4 2 20 moral moralOther Y u 0 0.6310 
05-Jun-2018_14:21:45 7340 21 female R 4 2 21 moral immoralSelf U y 0 0.6434 
05-Jun-2018_14:21:46 7340 21 female R 4 2 22 moral immoralSelf U y 0 0.4180 
05-Jun-2018_14:21:48 7340 21 female R 4 2 23 moral immoralOther U u 1 0.4430 
05-Jun-2018_14:21:50 7340 21 female R 4 2 24 moral immoralOther U u 1 0.4788 
05-Jun-2018_14:21:58 7340 21 female R 4 3 1 moral moralSelf Y y 1 0.4185 
05-Jun-2018_14:21:59 7340 21 female R 4 3 2 moral moralSelf Y y 1 0.3841 
05-Jun-2018_14:22:01 7340 21 female R 4 3 3 moral moralSelf Y y 1 0.2972 
05-Jun-2018_14:22:03 7340 21 female R 4 3 4 moral moralOther Y u 0 0.5702 
05-Jun-2018_14:22:05 7340 21 female R 4 3 5 moral immoralSelf U y 0 0.7684 
05-Jun-2018_14:22:07 7340 21 female R 4 3 6 moral immoralOther U u 1 0.4052 
05-Jun-2018_14:22:08 7340 21 female R 4 3 7 moral immoralOther U u 1 0.3667 
05-Jun-2018_14:22:10 7340 21 female R 4 3 8 moral moralOther Y u 0 0.4883 
05-Jun-2018_14:22:12 7340 21 female R 4 3 9 moral moralSelf Y y 1 0.5282 
05-Jun-2018_14:22:13 7340 21 female R 4 3 10 moral immoralSelf U y 0 0.4483 
05-Jun-2018_14:22:15 7340 21 female R 4 3 11 moral moralSelf Y y 1 0.4766 
05-Jun-2018_14:22:17 7340 21 female R 4 3 12 moral immoralOther U u 1 0.4743 
05-Jun-2018_14:22:18 7340 21 female R 4 3 13 moral moralSelf Y y 1 0.5083 
05-Jun-2018_14:22:20 7340 21 female R 4 3 14 moral moralOther Y u 0 0.5620 
05-Jun-2018_14:22:22 7340 21 female R 4 3 15 moral moralOther Y u 0 0.4086 
05-Jun-2018_14:22:23 7340 21 female R 4 3 16 moral moralOther Y u 0 0.4219 
05-Jun-2018_14:22:25 7340 21 female R 4 3 17 moral immoralSelf U y 0 0.4828 
05-Jun-2018_14:22:27 7340 21 female R 4 3 18 moral immoralOther U u 1 0.5238 
05-Jun-2018_14:22:28 7340 21 female R 4 3 19 moral immoralSelf U y 0 0.6654 
05-Jun-2018_14:22:30 7340 21 female R 4 3 20 moral immoralOther U u 1 0.4561 
05-Jun-2018_14:22:32 7340 21 female R 4 3 21 moral immoralSelf U y 0 0.4877 
05-Jun-2018_14:22:33 7340 21 female R 4 3 22 moral immoralSelf U y 0 0.4684 
05-Jun-2018_14:22:35 7340 21 female R 4 3 23 moral moralOther Y u 0 0.4718 
05-Jun-2018_14:22:36 7340 21 female R 4 3 24 moral immoralOther U u 1 0.4376 
05-Jun-2018_14:22:38 7340 21 female R 4 4 1 moral immoralSelf U u 1 0.4174 
05-Jun-2018_14:22:40 7340 21 female R 4 4 2 moral moralSelf Y y 1 0.3468 
05-Jun-2018_14:22:41 7340 21 female R 4 4 3 moral immoralSelf U y 0 0.3671 
05-Jun-2018_14:22:43 7340 21 female R 4 4 4 moral immoralSelf U y 0 0.4185 
05-Jun-2018_14:22:45 7340 21 female R 4 4 5 moral moralOther Y u 0 0.4505 
05-Jun-2018_14:22:47 7340 21 female R 4 4 6 moral immoralOther U u 1 0.4572 
05-Jun-2018_14:22:49 7340 21 female R 4 4 7 moral immoralSelf U y 0 0.5989 
05-Jun-2018_14:22:50 7340 21 female R 4 4 8 moral moralOther Y u 0 0.4555 
05-Jun-2018_14:22:52 7340 21 female R 4 4 9 moral immoralOther U u 1 0.5746 
05-Jun-2018_14:22:54 7340 21 female R 4 4 10 moral immoralOther U u 1 0.3878 
05-Jun-2018_14:22:56 7340 21 female R 4 4 11 moral moralSelf Y y 1 0.6242 
05-Jun-2018_14:22:57 7340 21 female R 4 4 12 moral moralSelf Y y 1 0.4445 
05-Jun-2018_14:22:59 7340 21 female R 4 4 13 moral moralOther Y u 0 0.4220 
05-Jun-2018_14:23:01 7340 21 female R 4 4 14 moral immoralOther U u 1 0.4198 
05-Jun-2018_14:23:02 7340 21 female R 4 4 15 moral immoralSelf U y 0 0.4254 
05-Jun-2018_14:23:04 7340 21 female R 4 4 16 moral moralSelf Y y 1 0.3676 
05-Jun-2018_14:23:06 7340 21 female R 4 4 17 moral immoralOther U u 1 0.4533 
05-Jun-2018_14:23:08 7340 21 female R 4 4 18 moral moralOther Y u 0 0.4783 
05-Jun-2018_14:23:09 7340 21 female R 4 4 19 moral moralSelf Y y 1 0.3288 
05-Jun-2018_14:23:11 7340 21 female R 4 4 20 moral immoralSelf U y 0 0.5316 
05-Jun-2018_14:23:13 7340 21 female R 4 4 21 moral moralSelf Y y 1 0.4395 
05-Jun-2018_14:23:14 7340 21 female R 4 4 22 moral moralOther Y u 0 0.5158 
05-Jun-2018_14:23:16 7340 21 female R 4 4 23 moral moralOther Y u 0 0.5498 
05-Jun-2018_14:23:18 7340 21 female R 4 4 24 moral immoralOther U u 1 0.5776 
05-Jun-2018_14:23:22 7340 21 female R 4 5 1 moral immoralOther U u 1 0.6310 
05-Jun-2018_14:23:24 7340 21 female R 4 5 2 moral immoralSelf U y 0 0.5562 
05-Jun-2018_14:23:26 7340 21 female R 4 5 3 moral moralOther Y u 0 0.4231 
05-Jun-2018_14:23:28 7340 21 female R 4 5 4 moral immoralSelf U y 0 0.5949 
05-Jun-2018_14:23:30 7340 21 female R 4 5 5 moral moralSelf Y y 1 0.4811 
05-Jun-2018_14:23:31 7340 21 female R 4 5 6 moral moralSelf Y y 1 0.3899 
05-Jun-2018_14:23:33 7340 21 female R 4 5 7 moral moralOther Y u 0 0.4996 
05-Jun-2018_14:23:35 7340 21 female R 4 5 8 moral immoralSelf U y 0 0.4183 
05-Jun-2018_14:23:37 7340 21 female R 4 5 9 moral moralOther Y u 0 0.4005 
05-Jun-2018_14:23:38 7340 21 female R 4 5 10 moral immoralOther U y 0 0.3059 
05-Jun-2018_14:23:40 7340 21 female R 4 5 11 moral immoralOther U u 1 0.4966 
05-Jun-2018_14:23:42 7340 21 female R 4 5 12 moral moralOther Y u 0 0.5663 
05-Jun-2018_14:23:44 7340 21 female R 4 5 13 moral moralSelf Y y 1 0.5990 
05-Jun-2018_14:23:46 7340 21 female R 4 5 14 moral immoralSelf U y 0 0.5298 
05-Jun-2018_14:23:47 7340 21 female R 4 5 15 moral moralSelf Y y 1 0.4942 
05-Jun-2018_14:23:49 7340 21 female R 4 5 16 moral moralOther Y y 1 0.3770 
05-Jun-2018_14:23:51 7340 21 female R 4 5 17 moral moralOther Y u 0 0.4754 
05-Jun-2018_14:23:52 7340 21 female R 4 5 18 moral immoralOther U u 1 0.4895 
05-Jun-2018_14:23:54 7340 21 female R 4 5 19 moral moralSelf Y y 1 0.5386 
05-Jun-2018_14:23:56 7340 21 female R 4 5 20 moral immoralSelf U y 0 0.7378 
05-Jun-2018_14:23:58 7340 21 female R 4 5 21 moral immoralOther U u 1 0.6278 
05-Jun-2018_14:24:00 7340 21 female R 4 5 22 moral moralSelf Y y 1 0.5172 
05-Jun-2018_14:24:02 7340 21 female R 4 5 23 moral immoralSelf U y 0 0.5817 
05-Jun-2018_14:24:03 7340 21 female R 4 5 24 moral immoralOther U u 1 0.4533 
Date Sub Age Sex Hand Block Bin Trial Task Shape corrResp Resp ACC RT
05-Jun-2018_14:27:01 7340 21 female R 5 1 1 moral moralOther Y u 0 0.5567 
05-Jun-2018_14:27:03 7340 21 female R 5 1 2 moral moralOther Y u 0 0.3507 
05-Jun-2018_14:27:05 7340 21 female R 5 1 3 moral moralSelf Y y 1 0.4430 
05-Jun-2018_14:27:06 7340 21 female R 5 1 4 moral moralSelf Y y 1 0.3259 
05-Jun-2018_14:27:08 7340 21 female R 5 1 5 moral moralSelf Y y 1 0.3321 
05-Jun-2018_14:27:10 7340 21 female R 5 1 6 moral immoralOther U u 1 0.5406 
05-Jun-2018_14:27:11 7340 21 female R 5 1 7 moral immoralSelf U y 0 0.5068 
05-Jun-2018_14:27:13 7340 21 female R 5 1 8 moral immoralSelf U y 0 0.3078 
05-Jun-2018_14:27:15 7340 21 female R 5 1 9 moral immoralSelf U y 0 0.3831 
05-Jun-2018_14:27:16 7340 21 female R 5 1 10 moral immoralOther U y 0 0.3475 
05-Jun-2018_14:27:18 7340 21 female R 5 1 11 moral immoralOther U u 1 0.3429 
05-Jun-2018_14:27:20 7340 21 female R 5 1 12 moral moralSelf Y y 1 0.4831 
05-Jun-2018_14:27:21 7340 21 female R 5 1 13 moral immoralOther U u 1 0.3219 
05-Jun-2018_14:27:23 7340 21 female R 5 1 14 moral moralSelf Y y 1 0.6367 
05-Jun-2018_14:27:25 7340 21 female R 5 1 15 moral moralOther Y u 0 0.5069 
05-Jun-2018_14:27:27 7340 21 female R 5 1 16 moral immoralSelf U y 0 0.4825 
05-Jun-2018_14:27:29 7340 21 female R 5 1 17 moral moralOther Y u 0 0.6539 
05-Jun-2018_14:27:30 7340 21 female R 5 1 18 moral immoralOther U u 1 0.4244 
05-Jun-2018_14:27:32 7340 21 female R 5 1 19 moral moralOther Y u 0 0.3589 
05-Jun-2018_14:27:34 7340 21 female R 5 1 20 moral immoralOther U u 1 0.3854 
05-Jun-2018_14:27:35 7340 21 female R 5 1 21 moral moralSelf Y y 1 0.4419 
05-Jun-2018_14:27:37 7340 21 female R 5 1 22 moral immoralSelf U y 0 0.4594 
05-Jun-2018_14:27:39 7340 21 female R 5 1 23 moral immoralSelf U y 0 0.3208 
05-Jun-2018_14:27:40 7340 21 female R 5 1 24 moral moralOther Y u 0 0.3409 
05-Jun-2018_14:27:42 7340 21 female R 5 2 1 moral immoralOther U y 0 0.5555 
05-Jun-2018_14:27:44 7340 21 female R 5 2 2 moral immoralOther U u 1 0.6258 
05-Jun-2018_14:27:46 7340 21 female R 5 2 3 moral moralOther Y u 0 0.4602 
05-Jun-2018_14:27:48 7340 21 female R 5 2 4 moral immoralOther U u 1 0.3832 
05-Jun-2018_14:27:50 7340 21 female R 5 2 5 moral moralOther Y u 0 0.6222 
05-Jun-2018_14:27:52 7340 21 female R 5 2 6 moral moralSelf Y y 1 0.5498 
05-Jun-2018_14:27:53 7340 21 female R 5 2 7 moral immoralSelf U y 0 0.3908 
05-Jun-2018_14:27:55 7340 21 female R 5 2 8 moral immoralSelf U y 0 0.3468 
05-Jun-2018_14:27:57 7340 21 female R 5 2 9 moral immoralSelf U y 0 0.3360 
05-Jun-2018_14:27:59 7340 21 female R 5 2 10 moral moralSelf Y y 1 0.4068 
05-Jun-2018_14:28:00 7340 21 female R 5 2 11 moral moralSelf Y y 1 0.3917 
05-Jun-2018_14:28:02 7340 21 female R 5 2 12 moral immoralOther U u 1 0.5343 
05-Jun-2018_14:28:04 7340 21 female R 5 2 13 moral moralOther Y u 0 0.5232 
05-Jun-2018_14:28:06 7340 21 female R 5 2 14 moral immoralSelf U y 0 0.6695 
05-Jun-2018_14:28:08 7340 21 female R 5 2 15 moral moralOther Y u 0 0.3802 
05-Jun-2018_14:28:09 7340 21 female R 5 2 16 moral moralSelf Y y 1 0.4668 
05-Jun-2018_14:28:11 7340 21 female R 5 2 17 moral immoralSelf U y 0 0.5046 
05-Jun-2018_14:28:13 7340 21 female R 5 2 18 moral immoralSelf U y 0 0.4787 
05-Jun-2018_14:28:14 7340 21 female R 5 2 19 moral moralSelf Y y 1 0.4426 
05-Jun-2018_14:28:16 7340 21 female R 5 2 20 moral immoralOther U u 1 0.4356 
05-Jun-2018_14:28:18 7340 21 female R 5 2 21 moral moralOther Y u 0 0.7091 
05-Jun-2018_14:28:19 7340 21 female R 5 2 22 moral immoralOther U u 1 0.3802 
05-Jun-2018_14:28:21 7340 21 female R 5 2 23 moral moralSelf Y y 1 0.5714 
05-Jun-2018_14:28:23 7340 21 female R 5 2 24 moral moralOther Y u 0 0.5329 
05-Jun-2018_14:28:28 7340 21 female R 5 3 1 moral immoralSelf U y 0 0.6977 
05-Jun-2018_14:28:30 7340 21 female R 5 3 2 moral immoralSelf U u 1 0.4804 
05-Jun-2018_14:28:32 7340 21 female R 5 3 3 moral moralOther Y u 0 0.5572 
05-Jun-2018_14:28:34 7340 21 female R 5 3 4 moral moralSelf Y y 1 0.4744 
05-Jun-2018_14:28:35 7340 21 female R 5 3 5 moral immoralOther U u 1 0.5263 
05-Jun-2018_14:28:37 7340 21 female R 5 3 6 moral immoralSelf U y 0 0.8718 
05-Jun-2018_14:28:39 7340 21 female R 5 3 7 moral moralSelf Y y 1 0.4709 
05-Jun-2018_14:28:41 7340 21 female R 5 3 8 moral moralOther Y u 0 0.5020 
05-Jun-2018_14:28:43 7340 21 female R 5 3 9 moral immoralOther U u 1 0.5247 
05-Jun-2018_14:28:45 7340 21 female R 5 3 10 moral moralOther Y u 0 0.3959 
05-Jun-2018_14:28:46 7340 21 female R 5 3 11 moral immoralOther U u 1 0.3644 
05-Jun-2018_14:28:48 7340 21 female R 5 3 12 moral immoralSelf U y 0 0.5701 
05-Jun-2018_14:28:50 7340 21 female R 5 3 13 moral moralSelf Y y 1 0.4032 
05-Jun-2018_14:28:51 7340 21 female R 5 3 14 moral moralSelf Y y 1 0.3124 
05-Jun-2018_14:28:53 7340 21 female R 5 3 15 moral moralSelf Y y 1 0.4799 
05-Jun-2018_14:28:55 7340 21 female R 5 3 16 moral immoralOther U u 1 0.5586 
05-Jun-2018_14:28:57 7340 21 female R 5 3 17 moral moralSelf Y y 1 0.5032 
05-Jun-2018_14:28:59 7340 21 female R 5 3 18 moral immoralOther U u 1 0.6478 
05-Jun-2018_14:29:00 7340 21 female R 5 3 19 moral immoralOther U u 1 0.3500 
05-Jun-2018_14:29:02 7340 21 female R 5 3 20 moral moralOther Y u 0 0.4780 
05-Jun-2018_14:29:04 7340 21 female R 5 3 21 moral immoralSelf U u 1 0.3722 
05-Jun-2018_14:29:05 7340 21 female R 5 3 22 moral immoralSelf U y 0 0.3845 
05-Jun-2018_14:29:07 7340 21 female R 5 3 23 moral moralOther Y u 0 0.4726 
05-Jun-2018_14:29:08 7340 21 female R 5 3 24 moral moralOther Y u 0 0.4435 
05-Jun-2018_14:29:10 7340 21 female R 5 4 1 moral moralOther Y u 0 0.4458 
05-Jun-2018_14:29:12 7340 21 female R 5 4 2 moral moralSelf Y y 1 0.3302 
05-Jun-2018_14:29:14 7340 21 female R 5 4 3 moral moralOther Y u 0 0.5486 
05-Jun-2018_14:29:16 7340 21 female R 5 4 4 moral moralSelf Y y 1 0.6329 
05-Jun-2018_14:29:17 7340 21 female R 5 4 5 moral immoralOther U u 1 0.5346 
05-Jun-2018_14:29:19 7340 21 female R 5 4 6 moral moralSelf Y y 1 0.5450 
05-Jun-2018_14:29:21 7340 21 female R 5 4 7 moral moralOther Y u 0 0.7804 
05-Jun-2018_14:29:23 7340 21 female R 5 4 8 moral immoralOther U u 1 0.3848 
05-Jun-2018_14:29:25 7340 21 female R 5 4 9 moral moralOther Y u 0 0.4977 
05-Jun-2018_14:29:26 7340 21 female R 5 4 10 moral moralSelf Y y 1 0.4918 
05-Jun-2018_14:29:28 7340 21 female R 5 4 11 moral moralSelf Y y 1 0.3802 
05-Jun-2018_14:29:30 7340 21 female R 5 4 12 moral immoralSelf U y 0 0.6175 
05-Jun-2018_14:29:31 7340 21 female R 5 4 13 moral moralSelf Y y 1 0.4571 
05-Jun-2018_14:29:33 7340 21 female R 5 4 14 moral immoralSelf U u 1 0.4232 
05-Jun-2018_14:29:34 7340 21 female R 5 4 15 moral immoralSelf U y 0 0.3090 
05-Jun-2018_14:29:36 7340 21 female R 5 4 16 moral immoralOther U u 1 0.4681 
05-Jun-2018_14:29:37 7340 21 female R 5 4 17 moral moralOther Y u 0 0.6220 
05-Jun-2018_14:29:39 7340 21 female R 5 4 18 moral immoralSelf U u 1 0.4283 
05-Jun-2018_14:29:41 7340 21 female R 5 4 19 moral immoralOther U u 1 0.5455 
05-Jun-2018_14:29:43 7340 21 female R 5 4 20 moral immoralSelf U y 0 0.3418 
05-Jun-2018_14:29:44 7340 21 female R 5 4 21 moral immoralOther U u 1 0.3405 
05-Jun-2018_14:29:46 7340 21 female R 5 4 22 moral moralOther Y u 0 0.5367 
05-Jun-2018_14:29:48 7340 21 female R 5 4 23 moral immoralOther U u 1 0.4215 
05-Jun-2018_14:29:49 7340 21 female R 5 4 24 moral immoralSelf U y 0 0.4273 
05-Jun-2018_14:29:53 7340 21 female R 5 5 1 moral moralSelf Y y 1 0.6637 
05-Jun-2018_14:29:55 7340 21 female R 5 5 2 moral moralSelf Y y 1 0.2827 
05-Jun-2018_14:29:56 7340 21 female R 5 5 3 moral moralOther Y u 0 0.5004 
05-Jun-2018_14:29:58 7340 21 female R 5 5 4 moral immoralSelf U y 0 0.4558 
05-Jun-2018_14:30:00 7340 21 female R 5 5 5 moral moralOther Y u 0 0.4640 
05-Jun-2018_14:30:02 7340 21 female R 5 5 6 moral moralSelf Y y 1 0.4603 
05-Jun-2018_14:30:03 7340 21 female R 5 5 7 moral moralOther Y u 0 0.3581 
05-Jun-2018_14:30:05 7340 21 female R 5 5 8 moral moralSelf Y y 1 0.5554 
05-Jun-2018_14:30:07 7340 21 female R 5 5 9 moral immoralSelf U y 0 0.6290 
05-Jun-2018_14:30:09 7340 21 female R 5 5 10 moral immoralOther U u 1 0.3495 
05-Jun-2018_14:30:10 7340 21 female R 5 5 11 moral immoralOther U u 1 0.3265 
05-Jun-2018_14:30:12 7340 21 female R 5 5 12 moral moralOther Y u 0 0.4014 
05-Jun-2018_14:30:14 7340 21 female R 5 5 13 moral immoralOther U u 1 0.3949 
05-Jun-2018_14:30:15 7340 21 female R 5 5 14 moral immoralOther U u 1 0.3479 
05-Jun-2018_14:30:17 7340 21 female R 5 5 15 moral immoralSelf U y 0 0.5536 
05-Jun-2018_14:30:19 7340 21 female R 5 5 16 moral immoralOther U u 1 0.5405 
05-Jun-2018_14:30:21 7340 21 female R 5 5 17 moral immoralSelf U y 0 0.5227 
05-Jun-2018_14:30:23 7340 21 female R 5 5 18 moral immoralSelf U y 0 1.0263 
05-Jun-2018_14:30:25 7340 21 female R 5 5 19 moral moralOther Y u 0 0.5153 
05-Jun-2018_14:30:27 7340 21 female R 5 5 20 moral immoralOther U u 1 0.6500 
05-Jun-2018_14:30:28 7340 21 female R 5 5 21 moral moralSelf Y y 1 0.5471 
05-Jun-2018_14:30:31 7340 21 female R 5 5 22 moral moralOther Y NA -1 1.0841 
05-Jun-2018_14:30:33 7340 21 female R 5 5 23 moral moralSelf Y y 1 0.5472 
05-Jun-2018_14:30:35 7340 21 female R 5 5 24 moral immoralSelf U y 0 0.4954 
Date Sub Age Sex Hand Block Bin Trial Task Shape corrResp Resp ACC RT
05-Jun-2018_14:34:15 7340 21 female R 6 1 1 self immoralSelf H h 1 0.8364 
05-Jun-2018_14:34:17 7340 21 female R 6 1 2 self moralSelf H h 1 0.3767 
05-Jun-2018_14:34:18 7340 21 female R 6 1 3 self immoralOther J j 1 0.4799 
05-Jun-2018_14:34:20 7340 21 female R 6 1 4 self moralOther J j 1 0.3671 
05-Jun-2018_14:34:22 7340 21 female R 6 1 5 self moralSelf H h 1 0.4706 
05-Jun-2018_14:34:24 7340 21 female R 6 1 6 self moralSelf H h 1 0.4345 
05-Jun-2018_14:34:25 7340 21 female R 6 1 7 self moralSelf H h 1 0.2942 
05-Jun-2018_14:34:27 7340 21 female R 6 1 8 self immoralSelf H h 1 0.6171 
05-Jun-2018_14:34:29 7340 21 female R 6 1 9 self moralOther J j 1 0.5777 
05-Jun-2018_14:34:31 7340 21 female R 6 1 10 self moralSelf H h 1 0.3604 
05-Jun-2018_14:34:32 7340 21 female R 6 1 11 self immoralOther J j 1 0.5055 
05-Jun-2018_14:34:34 7340 21 female R 6 1 12 self moralOther J j 1 0.5247 
05-Jun-2018_14:34:36 7340 21 female R 6 1 13 self immoralSelf H h 1 0.3527 
05-Jun-2018_14:34:38 7340 21 female R 6 1 14 self immoralOther J j 1 0.7051 
05-Jun-2018_14:34:40 7340 21 female R 6 1 15 self moralOther J j 1 0.4737 
05-Jun-2018_14:34:41 7340 21 female R 6 1 16 self moralOther J j 1 0.3387 
05-Jun-2018_14:34:43 7340 21 female R 6 1 17 self immoralSelf H j 0 0.3388 
05-Jun-2018_14:34:44 7340 21 female R 6 1 18 self immoralOther J j 1 0.4743 
05-Jun-2018_14:34:46 7340 21 female R 6 1 19 self immoralOther J j 1 0.4335 
05-Jun-2018_14:34:48 7340 21 female R 6 1 20 self immoralSelf H h 1 0.4303 
05-Jun-2018_14:34:50 7340 21 female R 6 1 21 self immoralSelf H h 1 0.4134 
05-Jun-2018_14:34:52 7340 21 female R 6 1 22 self moralOther J j 1 0.6920 
05-Jun-2018_14:34:54 7340 21 female R 6 1 23 self moralSelf H h 1 0.4715 
05-Jun-2018_14:34:55 7340 21 female R 6 1 24 self immoralOther J j 1 0.5110 
05-Jun-2018_14:34:57 7340 21 female R 6 2 1 self immoralSelf H h 1 0.5398 
05-Jun-2018_14:34:59 7340 21 female R 6 2 2 self moralSelf H h 1 0.4759 
05-Jun-2018_14:35:00 7340 21 female R 6 2 3 self moralOther J j 1 0.4784 
05-Jun-2018_14:35:02 7340 21 female R 6 2 4 self immoralOther J j 1 0.4211 
05-Jun-2018_14:35:04 7340 21 female R 6 2 5 self immoralOther J j 1 0.4168 
05-Jun-2018_14:35:05 7340 21 female R 6 2 6 self moralSelf H h 1 0.3962 
05-Jun-2018_14:35:07 7340 21 female R 6 2 7 self moralSelf H h 1 0.4343 
05-Jun-2018_14:35:09 7340 21 female R 6 2 8 self immoralOther J j 1 0.3963 
05-Jun-2018_14:35:11 7340 21 female R 6 2 9 self immoralOther J j 1 0.6802 
05-Jun-2018_14:35:12 7340 21 female R 6 2 10 self immoralSelf H h 1 0.3207 
05-Jun-2018_14:35:14 7340 21 female R 6 2 11 self moralOther J j 1 0.4248 
05-Jun-2018_14:35:16 7340 21 female R 6 2 12 self moralSelf H h 1 0.4320 
05-Jun-2018_14:35:17 7340 21 female R 6 2 13 self moralOther J j 1 0.5035 
05-Jun-2018_14:35:19 7340 21 female R 6 2 14 self immoralOther J j 1 0.4960 
05-Jun-2018_14:35:21 7340 21 female R 6 2 15 self immoralOther J j 1 0.4227 
05-Jun-2018_14:35:23 7340 21 female R 6 2 16 self immoralSelf H h 1 0.5998 
05-Jun-2018_14:35:24 7340 21 female R 6 2 17 self moralOther J j 1 0.4210 
05-Jun-2018_14:35:26 7340 21 female R 6 2 18 self immoralSelf H h 1 0.4078 
05-Jun-2018_14:35:28 7340 21 female R 6 2 19 self moralSelf H h 1 0.4102 
05-Jun-2018_14:35:29 7340 21 female R 6 2 20 self immoralSelf H h 1 0.3200 
05-Jun-2018_14:35:31 7340 21 female R 6 2 21 self moralOther J j 1 0.4274 
05-Jun-2018_14:35:32 7340 21 female R 6 2 22 self immoralSelf H h 1 0.3568 
05-Jun-2018_14:35:34 7340 21 female R 6 2 23 self moralSelf H h 1 0.3847 
05-Jun-2018_14:35:36 7340 21 female R 6 2 24 self moralOther J j 1 0.6181 
05-Jun-2018_14:35:41 7340 21 female R 6 3 1 self immoralOther J j 1 0.5530 
05-Jun-2018_14:35:43 7340 21 female R 6 3 2 self immoralSelf H h 1 0.6270 
05-Jun-2018_14:35:44 7340 21 female R 6 3 3 self moralOther J j 1 0.4412 
05-Jun-2018_14:35:46 7340 21 female R 6 3 4 self moralSelf H h 1 0.4869 
05-Jun-2018_14:35:48 7340 21 female R 6 3 5 self immoralSelf H h 1 0.7113 
05-Jun-2018_14:35:50 7340 21 female R 6 3 6 self immoralSelf H h 1 0.4620 
05-Jun-2018_14:35:52 7340 21 female R 6 3 7 self moralSelf H h 1 0.3506 
05-Jun-2018_14:35:54 7340 21 female R 6 3 8 self moralOther J j 1 0.4099 
05-Jun-2018_14:35:55 7340 21 female R 6 3 9 self moralOther J j 1 0.3954 
05-Jun-2018_14:35:57 7340 21 female R 6 3 10 self immoralSelf H h 1 0.4586 
05-Jun-2018_14:35:59 7340 21 female R 6 3 11 self immoralSelf H h 1 0.4304 
05-Jun-2018_14:36:00 7340 21 female R 6 3 12 self immoralSelf H h 1 0.4827 
05-Jun-2018_14:36:02 7340 21 female R 6 3 13 self moralOther J j 1 0.4998 
05-Jun-2018_14:36:03 7340 21 female R 6 3 14 self moralSelf H h 1 0.4607 
05-Jun-2018_14:36:05 7340 21 female R 6 3 15 self immoralOther J j 1 0.7304 
05-Jun-2018_14:36:07 7340 21 female R 6 3 16 self moralSelf H h 1 0.3772 
05-Jun-2018_14:36:08 7340 21 female R 6 3 17 self immoralOther J j 1 0.2455 
05-Jun-2018_14:36:10 7340 21 female R 6 3 18 self moralSelf H h 1 0.3776 
05-Jun-2018_14:36:11 7340 21 female R 6 3 19 self moralOther J j 1 0.3565 
05-Jun-2018_14:36:13 7340 21 female R 6 3 20 self moralOther J j 1 0.4785 
05-Jun-2018_14:36:15 7340 21 female R 6 3 21 self moralSelf H h 1 0.2937 
05-Jun-2018_14:36:17 7340 21 female R 6 3 22 self immoralOther J j 1 0.3606 
05-Jun-2018_14:36:18 7340 21 female R 6 3 23 self immoralOther J j 1 0.4200 
05-Jun-2018_14:36:20 7340 21 female R 6 3 24 self immoralOther J j 1 0.3413 
05-Jun-2018_14:36:22 7340 21 female R 6 4 1 self immoralSelf H h 1 0.4822 
05-Jun-2018_14:36:24 7340 21 female R 6 4 2 self moralOther J j 1 0.6371 
05-Jun-2018_14:36:26 7340 21 female R 6 4 3 self immoralOther J j 1 0.5623 
05-Jun-2018_14:36:27 7340 21 female R 6 4 4 self moralSelf H h 1 0.2985 
05-Jun-2018_14:36:29 7340 21 female R 6 4 5 self immoralOther J j 1 0.5916 
05-Jun-2018_14:36:30 7340 21 female R 6 4 6 self moralSelf H h 1 0.2703 
05-Jun-2018_14:36:32 7340 21 female R 6 4 7 self moralSelf H h 1 0.3329 
05-Jun-2018_14:36:33 7340 21 female R 6 4 8 self immoralSelf H j 0 0.3311 
05-Jun-2018_14:36:35 7340 21 female R 6 4 9 self moralSelf H h 1 0.3322 
05-Jun-2018_14:36:37 7340 21 female R 6 4 10 self immoralOther J j 1 0.6015 
05-Jun-2018_14:36:39 7340 21 female R 6 4 11 self moralOther J j 1 0.4316 
05-Jun-2018_14:36:40 7340 21 female R 6 4 12 self moralOther J j 1 0.3145 
05-Jun-2018_14:36:42 7340 21 female R 6 4 13 self immoralSelf H h 1 0.4082 
05-Jun-2018_14:36:44 7340 21 female R 6 4 14 self immoralOther J j 1 0.4741 
05-Jun-2018_14:36:46 7340 21 female R 6 4 15 self immoralSelf H h 1 0.4488 
05-Jun-2018_14:36:47 7340 21 female R 6 4 16 self moralSelf H h 1 0.5759 
05-Jun-2018_14:36:49 7340 21 female R 6 4 17 self moralSelf H h 1 0.3238 
05-Jun-2018_14:36:51 7340 21 female R 6 4 18 self immoralOther J j 1 0.5337 
05-Jun-2018_14:36:52 7340 21 female R 6 4 19 self immoralOther J j 1 0.4613 
05-Jun-2018_14:36:54 7340 21 female R 6 4 20 self immoralSelf H h 1 0.5160 
05-Jun-2018_14:36:56 7340 21 female R 6 4 21 self moralOther J j 1 0.3871 
05-Jun-2018_14:36:57 7340 21 female R 6 4 22 self moralOther J j 1 0.3533 
05-Jun-2018_14:36:59 7340 21 female R 6 4 23 self immoralSelf H h 1 0.6348 
05-Jun-2018_14:37:01 7340 21 female R 6 4 24 self moralOther J j 1 0.2650 
05-Jun-2018_14:37:05 7340 21 female R 6 5 1 self immoralSelf H h 1 0.7126 
05-Jun-2018_14:37:07 7340 21 female R 6 5 2 self moralOther J j 1 0.4558 
05-Jun-2018_14:37:08 7340 21 female R 6 5 3 self moralSelf H h 1 0.3914 
05-Jun-2018_14:37:10 7340 21 female R 6 5 4 self immoralSelf H h 1 0.3312 
05-Jun-2018_14:37:11 7340 21 female R 6 5 5 self immoralSelf H h 1 0.3553 
05-Jun-2018_14:37:13 7340 21 female R 6 5 6 self immoralSelf H h 1 0.3111 
05-Jun-2018_14:37:15 7340 21 female R 6 5 7 self immoralOther J j 1 0.4354 
05-Jun-2018_14:37:16 7340 21 female R 6 5 8 self moralSelf H j 0 0.3216 
05-Jun-2018_14:37:18 7340 21 female R 6 5 9 self immoralOther J j 1 0.5636 
05-Jun-2018_14:37:20 7340 21 female R 6 5 10 self immoralSelf H h 1 0.4130 
05-Jun-2018_14:37:21 7340 21 female R 6 5 11 self moralSelf H h 1 0.3439 
05-Jun-2018_14:37:23 7340 21 female R 6 5 12 self immoralOther J j 1 0.4090 
05-Jun-2018_14:37:25 7340 21 female R 6 5 13 self moralSelf H h 1 0.4490 
05-Jun-2018_14:37:26 7340 21 female R 6 5 14 self moralSelf H h 1 0.4439 
05-Jun-2018_14:37:28 7340 21 female R 6 5 15 self moralOther J j 1 0.4967 
05-Jun-2018_14:37:30 7340 21 female R 6 5 16 self immoralOther J j 1 0.5283 
05-Jun-2018_14:37:31 7340 21 female R 6 5 17 self immoralOther J j 1 0.3477 
05-Jun-2018_14:37:33 7340 21 female R 6 5 18 self moralOther J j 1 0.4103 
05-Jun-2018_14:37:34 7340 21 female R 6 5 19 self immoralSelf H h 1 0.3897 
05-Jun-2018_14:37:36 7340 21 female R 6 5 20 self moralOther J j 1 0.5859 
05-Jun-2018_14:37:38 7340 21 female R 6 5 21 self immoralOther J j 1 0.3141 
05-Jun-2018_14:37:40 7340 21 female R 6 5 22 self moralOther J j 1 0.4134 
05-Jun-2018_14:37:42 7340 21 female R 6 5 23 self moralSelf H h 1 0.4314 
05-Jun-2018_14:37:43 7340 21 female R 6 5 24 self moralOther J j 1 0.4168 
