Date Sub Age Sex Hand Block Bin Trial Task Shape corrResp Resp ACC RT
19-May-2018_13:59:28 7322 18 male R 1 1 1 self moralSelf J j 1 0.7510 
19-May-2018_13:59:30 7322 18 male R 1 1 2 self immoralOther H NA -1 1.0841 
19-May-2018_13:59:32 7322 18 male R 1 1 3 self immoralSelf J NA -1 1.0841 
19-May-2018_13:59:35 7322 18 male R 1 1 4 self moralOther H NA -1 1.0841 
19-May-2018_13:59:37 7322 18 male R 1 1 5 self moralSelf J j 1 0.8794 
19-May-2018_13:59:40 7322 18 male R 1 1 6 self immoralSelf J j 1 0.9581 
19-May-2018_13:59:42 7322 18 male R 1 1 7 self moralSelf J h 0 0.6989 
19-May-2018_13:59:44 7322 18 male R 1 1 8 self immoralSelf J h 0 0.9799 
19-May-2018_13:59:46 7322 18 male R 1 1 9 self immoralOther H NA -1 1.0841 
19-May-2018_13:59:48 7322 18 male R 1 1 10 self immoralOther H h 1 0.7264 
19-May-2018_13:59:50 7322 18 male R 1 1 11 self immoralSelf J h 0 0.8220 
19-May-2018_13:59:52 7322 18 male R 1 1 12 self immoralOther H h 1 0.8668 
19-May-2018_13:59:54 7322 18 male R 1 1 13 self immoralOther H h 1 0.5671 
19-May-2018_13:59:56 7322 18 male R 1 1 14 self moralOther H j 0 0.6081 
19-May-2018_13:59:58 7322 18 male R 1 1 15 self moralOther H h 1 0.5447 
19-May-2018_14:00:00 7322 18 male R 1 1 16 self moralSelf J j 1 0.7048 
19-May-2018_14:00:02 7322 18 male R 1 1 17 self moralOther H h 1 0.7947 
19-May-2018_14:00:05 7322 18 male R 1 1 18 self moralOther H NA -1 1.0841 
19-May-2018_14:00:07 7322 18 male R 1 1 19 self immoralSelf J j 1 0.8387 
19-May-2018_14:00:09 7322 18 male R 1 1 20 self moralOther H h 1 0.6496 
19-May-2018_14:00:11 7322 18 male R 1 1 21 self moralSelf J j 1 0.6755 
19-May-2018_14:00:13 7322 18 male R 1 1 22 self immoralOther H h 1 1.0012 
19-May-2018_14:00:15 7322 18 male R 1 1 23 self immoralSelf J j 1 0.8503 
19-May-2018_14:00:17 7322 18 male R 1 1 24 self moralSelf J j 1 0.6461 
19-May-2018_14:00:20 7322 18 male R 1 2 1 self immoralOther H h 1 0.8194 
19-May-2018_14:00:22 7322 18 male R 1 2 2 self immoralOther H h 1 0.6044 
19-May-2018_14:00:23 7322 18 male R 1 2 3 self moralOther H j 0 0.5108 
19-May-2018_14:00:25 7322 18 male R 1 2 4 self immoralOther H h 1 0.7232 
19-May-2018_14:00:27 7322 18 male R 1 2 5 self immoralSelf J j 1 0.5731 
19-May-2018_14:00:29 7322 18 male R 1 2 6 self moralOther H h 1 0.7177 
19-May-2018_14:00:31 7322 18 male R 1 2 7 self moralSelf J j 1 0.6557 
19-May-2018_14:00:33 7322 18 male R 1 2 8 self moralOther H h 1 0.4661 
19-May-2018_14:00:35 7322 18 male R 1 2 9 self immoralSelf J NA -1 1.0841 
19-May-2018_14:00:38 7322 18 male R 1 2 10 self moralSelf J NA -1 1.0841 
19-May-2018_14:00:40 7322 18 male R 1 2 11 self moralOther H h 1 0.6339 
19-May-2018_14:00:41 7322 18 male R 1 2 12 self immoralSelf J j 1 0.7553 
19-May-2018_14:00:43 7322 18 male R 1 2 13 self immoralSelf J j 1 0.4311 
19-May-2018_14:00:45 7322 18 male R 1 2 14 self moralSelf J j 1 0.5691 
19-May-2018_14:00:47 7322 18 male R 1 2 15 self moralSelf J j 1 0.3649 
19-May-2018_14:00:48 7322 18 male R 1 2 16 self immoralOther H h 1 0.5358 
19-May-2018_14:00:50 7322 18 male R 1 2 17 self immoralOther H h 1 0.6413 
19-May-2018_14:00:52 7322 18 male R 1 2 18 self immoralOther H h 1 0.4658 
19-May-2018_14:00:53 7322 18 male R 1 2 19 self moralSelf J j 1 0.5111 
19-May-2018_14:00:55 7322 18 male R 1 2 20 self moralSelf J j 1 0.3789 
19-May-2018_14:00:57 7322 18 male R 1 2 21 self immoralSelf J j 1 0.6604 
19-May-2018_14:00:59 7322 18 male R 1 2 22 self moralOther H h 1 0.4459 
19-May-2018_14:01:00 7322 18 male R 1 2 23 self immoralSelf J j 1 0.4271 
19-May-2018_14:01:02 7322 18 male R 1 2 24 self moralOther H h 1 0.4530 
19-May-2018_14:01:14 7322 18 male R 1 3 1 self immoralSelf J j 1 0.5194 
19-May-2018_14:01:16 7322 18 male R 1 3 2 self moralOther H h 1 0.5228 
19-May-2018_14:01:18 7322 18 male R 1 3 3 self moralOther H h 1 0.6424 
19-May-2018_14:01:20 7322 18 male R 1 3 4 self immoralOther H h 1 0.9601 
19-May-2018_14:01:22 7322 18 male R 1 3 5 self moralSelf J j 1 0.6439 
19-May-2018_14:01:24 7322 18 male R 1 3 6 self immoralSelf J j 1 0.6454 
19-May-2018_14:01:26 7322 18 male R 1 3 7 self moralOther H h 1 0.5628 
19-May-2018_14:01:28 7322 18 male R 1 3 8 self moralOther H h 1 0.3684 
19-May-2018_14:01:30 7322 18 male R 1 3 9 self moralSelf J j 1 0.7483 
19-May-2018_14:01:32 7322 18 male R 1 3 10 self immoralOther H h 1 0.4924 
19-May-2018_14:01:34 7322 18 male R 1 3 11 self moralSelf J j 1 0.6759 
19-May-2018_14:01:35 7322 18 male R 1 3 12 self moralOther H h 1 0.5156 
19-May-2018_14:01:38 7322 18 male R 1 3 13 self immoralOther H h 1 0.5688 
19-May-2018_14:01:39 7322 18 male R 1 3 14 self immoralSelf J j 1 0.4734 
19-May-2018_14:01:41 7322 18 male R 1 3 15 self immoralSelf J j 1 0.3689 
19-May-2018_14:01:43 7322 18 male R 1 3 16 self moralSelf J j 1 0.4697 
19-May-2018_14:01:45 7322 18 male R 1 3 17 self moralOther H h 1 0.4496 
19-May-2018_14:01:46 7322 18 male R 1 3 18 self moralSelf J j 1 0.6510 
19-May-2018_14:01:48 7322 18 male R 1 3 19 self immoralOther H h 1 0.6417 
19-May-2018_14:01:50 7322 18 male R 1 3 20 self immoralOther H h 1 0.4408 
19-May-2018_14:01:52 7322 18 male R 1 3 21 self immoralSelf J j 1 0.3703 
19-May-2018_14:01:53 7322 18 male R 1 3 22 self immoralSelf J j 1 0.2942 
19-May-2018_14:01:55 7322 18 male R 1 3 23 self immoralOther H h 1 0.4499 
19-May-2018_14:01:57 7322 18 male R 1 3 24 self moralSelf J j 1 0.5695 
19-May-2018_14:01:58 7322 18 male R 1 4 1 self immoralSelf J j 1 0.3602 
19-May-2018_14:02:00 7322 18 male R 1 4 2 self moralOther H h 1 0.5161 
19-May-2018_14:02:02 7322 18 male R 1 4 3 self moralOther H h 1 0.5171 
19-May-2018_14:02:04 7322 18 male R 1 4 4 self immoralOther H h 1 0.5242 
19-May-2018_14:02:05 7322 18 male R 1 4 5 self immoralSelf J j 1 0.3911 
19-May-2018_14:02:07 7322 18 male R 1 4 6 self moralSelf J j 1 0.4838 
19-May-2018_14:02:09 7322 18 male R 1 4 7 self immoralOther H h 1 0.4308 
19-May-2018_14:02:10 7322 18 male R 1 4 8 self moralOther H h 1 0.4462 
19-May-2018_14:02:12 7322 18 male R 1 4 9 self moralOther H h 1 0.4445 
19-May-2018_14:02:14 7322 18 male R 1 4 10 self moralOther H h 1 0.4078 
19-May-2018_14:02:15 7322 18 male R 1 4 11 self immoralOther H h 1 0.6338 
19-May-2018_14:02:17 7322 18 male R 1 4 12 self moralSelf J j 1 0.4720 
19-May-2018_14:02:19 7322 18 male R 1 4 13 self moralSelf J j 1 0.2804 
19-May-2018_14:02:20 7322 18 male R 1 4 14 self moralSelf J j 1 0.3606 
19-May-2018_14:02:22 7322 18 male R 1 4 15 self immoralOther H h 1 0.4087 
19-May-2018_14:02:23 7322 18 male R 1 4 16 self immoralOther H j 0 0.5418 
19-May-2018_14:02:25 7322 18 male R 1 4 17 self moralOther H h 1 0.6107 
19-May-2018_14:02:27 7322 18 male R 1 4 18 self immoralOther H h 1 0.5034 
19-May-2018_14:02:29 7322 18 male R 1 4 19 self immoralSelf J j 1 0.5383 
19-May-2018_14:02:31 7322 18 male R 1 4 20 self moralSelf J j 1 0.5699 
19-May-2018_14:02:32 7322 18 male R 1 4 21 self moralSelf J j 1 0.3677 
19-May-2018_14:02:34 7322 18 male R 1 4 22 self immoralSelf J j 1 0.5723 
19-May-2018_14:02:36 7322 18 male R 1 4 23 self immoralSelf J h 0 0.5687 
19-May-2018_14:02:38 7322 18 male R 1 4 24 self immoralSelf J j 1 0.4733 
19-May-2018_14:02:54 7322 18 male R 1 5 1 self immoralOther H h 1 0.5040 
19-May-2018_14:02:56 7322 18 male R 1 5 2 self immoralOther H h 1 0.7788 
19-May-2018_14:02:58 7322 18 male R 1 5 3 self moralSelf J j 1 0.5752 
19-May-2018_14:03:00 7322 18 male R 1 5 4 self moralSelf J j 1 0.4925 
19-May-2018_14:03:01 7322 18 male R 1 5 5 self moralSelf J j 1 0.3923 
19-May-2018_14:03:03 7322 18 male R 1 5 6 self moralOther H j 0 0.3712 
19-May-2018_14:03:05 7322 18 male R 1 5 7 self immoralOther H h 1 0.5505 
19-May-2018_14:03:06 7322 18 male R 1 5 8 self moralSelf J j 1 0.4043 
19-May-2018_14:03:08 7322 18 male R 1 5 9 self immoralOther H h 1 0.5305 
19-May-2018_14:03:10 7322 18 male R 1 5 10 self moralSelf J j 1 0.6420 
19-May-2018_14:03:12 7322 18 male R 1 5 11 self moralOther H h 1 0.4750 
19-May-2018_14:03:13 7322 18 male R 1 5 12 self moralOther H h 1 0.4699 
19-May-2018_14:03:15 7322 18 male R 1 5 13 self immoralSelf J j 1 0.4042 
19-May-2018_14:03:17 7322 18 male R 1 5 14 self immoralSelf J j 1 0.4474 
19-May-2018_14:03:19 7322 18 male R 1 5 15 self immoralSelf J j 1 0.4527 
19-May-2018_14:03:20 7322 18 male R 1 5 16 self immoralSelf J j 1 0.3464 
19-May-2018_14:03:22 7322 18 male R 1 5 17 self moralSelf J j 1 0.5936 
19-May-2018_14:03:24 7322 18 male R 1 5 18 self moralOther H h 1 0.4976 
19-May-2018_14:03:25 7322 18 male R 1 5 19 self immoralSelf J h 0 0.3673 
19-May-2018_14:03:27 7322 18 male R 1 5 20 self immoralSelf J j 1 0.3764 
19-May-2018_14:03:28 7322 18 male R 1 5 21 self moralOther H h 1 0.4827 
19-May-2018_14:03:30 7322 18 male R 1 5 22 self immoralOther H h 1 0.4616 
19-May-2018_14:03:32 7322 18 male R 1 5 23 self moralOther H h 1 0.6113 
19-May-2018_14:03:33 7322 18 male R 1 5 24 self immoralOther H h 1 0.6185 
Date Sub Age Sex Hand Block Bin Trial Task Shape corrResp Resp ACC RT
19-May-2018_14:06:26 7322 18 male R 2 1 1 moral immoralSelf U u 1 0.7070 
19-May-2018_14:06:28 7322 18 male R 2 1 2 moral immoralOther U NA -1 1.0841 
19-May-2018_14:06:31 7322 18 male R 2 1 3 moral immoralOther U u 1 0.9844 
19-May-2018_14:06:33 7322 18 male R 2 1 4 moral immoralSelf U u 1 0.6127 
19-May-2018_14:06:35 7322 18 male R 2 1 5 moral moralOther Y y 1 0.5912 
19-May-2018_14:06:37 7322 18 male R 2 1 6 moral moralOther Y y 1 0.4477 
19-May-2018_14:06:38 7322 18 male R 2 1 7 moral moralOther Y y 1 0.5141 
19-May-2018_14:06:41 7322 18 male R 2 1 8 moral moralSelf Y y 1 0.7194 
19-May-2018_14:06:42 7322 18 male R 2 1 9 moral moralSelf Y y 1 0.4536 
19-May-2018_14:06:44 7322 18 male R 2 1 10 moral moralSelf Y y 1 0.6291 
19-May-2018_14:06:46 7322 18 male R 2 1 11 moral immoralSelf U u 1 0.6396 
19-May-2018_14:06:48 7322 18 male R 2 1 12 moral immoralOther U u 1 0.7150 
19-May-2018_14:06:50 7322 18 male R 2 1 13 moral immoralOther U u 1 0.7437 
19-May-2018_14:06:52 7322 18 male R 2 1 14 moral moralOther Y y 1 0.7528 
19-May-2018_14:06:53 7322 18 male R 2 1 15 moral moralOther Y y 1 0.4611 
19-May-2018_14:06:56 7322 18 male R 2 1 16 moral moralSelf Y y 1 0.6452 
19-May-2018_14:06:58 7322 18 male R 2 1 17 moral moralSelf Y y 1 0.5991 
19-May-2018_14:07:00 7322 18 male R 2 1 18 moral moralOther Y y 1 0.5766 
19-May-2018_14:07:01 7322 18 male R 2 1 19 moral immoralSelf U u 1 0.5155 
19-May-2018_14:07:04 7322 18 male R 2 1 20 moral immoralOther U u 1 0.9654 
19-May-2018_14:07:05 7322 18 male R 2 1 21 moral immoralOther U u 1 0.5275 
19-May-2018_14:07:07 7322 18 male R 2 1 22 moral immoralSelf U y 0 0.4042 
19-May-2018_14:07:09 7322 18 male R 2 1 23 moral immoralSelf U y 0 0.5647 
19-May-2018_14:07:11 7322 18 male R 2 1 24 moral moralSelf Y y 1 0.6042 
19-May-2018_14:07:13 7322 18 male R 2 2 1 moral immoralSelf U u 1 0.4905 
19-May-2018_14:07:14 7322 18 male R 2 2 2 moral moralSelf Y y 1 0.6430 
19-May-2018_14:07:16 7322 18 male R 2 2 3 moral moralOther Y y 1 0.5090 
19-May-2018_14:07:18 7322 18 male R 2 2 4 moral moralSelf Y y 1 0.7039 
19-May-2018_14:07:20 7322 18 male R 2 2 5 moral moralSelf Y y 1 0.5402 
19-May-2018_14:07:22 7322 18 male R 2 2 6 moral immoralSelf U u 1 0.5327 
19-May-2018_14:07:24 7322 18 male R 2 2 7 moral moralSelf Y y 1 0.6043 
19-May-2018_14:07:26 7322 18 male R 2 2 8 moral immoralOther U u 1 0.8506 
19-May-2018_14:07:28 7322 18 male R 2 2 9 moral immoralSelf U y 0 0.5146 
19-May-2018_14:07:29 7322 18 male R 2 2 10 moral moralOther Y y 1 0.5335 
19-May-2018_14:07:32 7322 18 male R 2 2 11 moral immoralOther U NA -1 1.0841 
19-May-2018_14:07:34 7322 18 male R 2 2 12 moral immoralSelf U u 1 0.5807 
19-May-2018_14:07:36 7322 18 male R 2 2 13 moral immoralSelf U u 1 0.5686 
19-May-2018_14:07:37 7322 18 male R 2 2 14 moral immoralOther U u 1 0.5244 
19-May-2018_14:07:39 7322 18 male R 2 2 15 moral moralOther Y y 1 0.4939 
19-May-2018_14:07:41 7322 18 male R 2 2 16 moral moralSelf Y y 1 0.6422 
19-May-2018_14:07:42 7322 18 male R 2 2 17 moral immoralOther U u 1 0.5025 
19-May-2018_14:07:44 7322 18 male R 2 2 18 moral immoralOther U u 1 0.4461 
19-May-2018_14:07:46 7322 18 male R 2 2 19 moral immoralOther U u 1 0.4702 
19-May-2018_14:07:48 7322 18 male R 2 2 20 moral moralOther Y y 1 0.5056 
19-May-2018_14:07:49 7322 18 male R 2 2 21 moral immoralSelf U u 1 0.7536 
19-May-2018_14:07:51 7322 18 male R 2 2 22 moral moralSelf Y y 1 0.6544 
19-May-2018_14:07:53 7322 18 male R 2 2 23 moral moralOther Y y 1 0.5203 
19-May-2018_14:07:55 7322 18 male R 2 2 24 moral moralOther Y u 0 0.7641 
19-May-2018_14:08:02 7322 18 male R 2 3 1 moral moralSelf Y y 1 0.5616 
19-May-2018_14:08:04 7322 18 male R 2 3 2 moral immoralSelf U u 1 0.5212 
19-May-2018_14:08:06 7322 18 male R 2 3 3 moral immoralOther U u 1 0.7001 
19-May-2018_14:08:08 7322 18 male R 2 3 4 moral immoralOther U u 1 0.5416 
19-May-2018_14:08:10 7322 18 male R 2 3 5 moral immoralSelf U y 0 0.5897 
19-May-2018_14:08:11 7322 18 male R 2 3 6 moral moralOther Y y 1 0.5139 
19-May-2018_14:08:13 7322 18 male R 2 3 7 moral moralSelf Y y 1 0.5879 
19-May-2018_14:08:15 7322 18 male R 2 3 8 moral moralSelf Y y 1 0.5206 
19-May-2018_14:08:17 7322 18 male R 2 3 9 moral immoralOther U u 1 0.6973 
19-May-2018_14:08:19 7322 18 male R 2 3 10 moral moralSelf Y y 1 0.5646 
19-May-2018_14:08:20 7322 18 male R 2 3 11 moral immoralOther U u 1 0.6861 
19-May-2018_14:08:22 7322 18 male R 2 3 12 moral moralOther Y y 1 0.6165 
19-May-2018_14:08:24 7322 18 male R 2 3 13 moral immoralSelf U u 1 0.7046 
19-May-2018_14:08:26 7322 18 male R 2 3 14 moral moralOther Y y 1 0.5555 
19-May-2018_14:08:28 7322 18 male R 2 3 15 moral immoralSelf U u 1 0.6403 
19-May-2018_14:08:30 7322 18 male R 2 3 16 moral moralOther Y y 1 0.7250 
19-May-2018_14:08:32 7322 18 male R 2 3 17 moral moralOther Y y 1 0.6493 
19-May-2018_14:08:34 7322 18 male R 2 3 18 moral immoralSelf U u 1 0.6085 
19-May-2018_14:08:36 7322 18 male R 2 3 19 moral moralSelf Y y 1 0.7978 
19-May-2018_14:08:38 7322 18 male R 2 3 20 moral immoralOther U u 1 0.5031 
19-May-2018_14:08:40 7322 18 male R 2 3 21 moral immoralOther U u 1 0.8435 
19-May-2018_14:08:42 7322 18 male R 2 3 22 moral immoralSelf U u 1 0.6653 
19-May-2018_14:08:44 7322 18 male R 2 3 23 moral moralSelf Y y 1 0.5924 
19-May-2018_14:08:46 7322 18 male R 2 3 24 moral moralOther Y y 1 0.4833 
19-May-2018_14:08:48 7322 18 male R 2 4 1 moral moralSelf Y y 1 0.6613 
19-May-2018_14:08:50 7322 18 male R 2 4 2 moral moralSelf Y y 1 0.4797 
19-May-2018_14:08:51 7322 18 male R 2 4 3 moral moralSelf Y y 1 0.4563 
19-May-2018_14:08:53 7322 18 male R 2 4 4 moral moralOther Y y 1 0.7495 
19-May-2018_14:08:55 7322 18 male R 2 4 5 moral immoralOther U u 1 0.5872 
19-May-2018_14:08:57 7322 18 male R 2 4 6 moral immoralSelf U y 0 0.4329 
19-May-2018_14:08:58 7322 18 male R 2 4 7 moral immoralSelf U u 1 0.4607 
19-May-2018_14:09:00 7322 18 male R 2 4 8 moral immoralOther U u 1 0.7723 
19-May-2018_14:09:02 7322 18 male R 2 4 9 moral immoralSelf U u 1 0.5978 
19-May-2018_14:09:04 7322 18 male R 2 4 10 moral moralOther Y y 1 0.5654 
19-May-2018_14:09:06 7322 18 male R 2 4 11 moral moralOther Y y 1 0.7659 
19-May-2018_14:09:07 7322 18 male R 2 4 12 moral moralOther Y y 1 0.4102 
19-May-2018_14:09:09 7322 18 male R 2 4 13 moral immoralSelf U u 1 0.5468 
19-May-2018_14:09:11 7322 18 male R 2 4 14 moral immoralSelf U u 1 0.6598 
19-May-2018_14:09:13 7322 18 male R 2 4 15 moral moralOther Y y 1 0.5069 
19-May-2018_14:09:15 7322 18 male R 2 4 16 moral immoralSelf U u 1 0.4294 
19-May-2018_14:09:17 7322 18 male R 2 4 17 moral immoralOther U u 1 0.8107 
19-May-2018_14:09:19 7322 18 male R 2 4 18 moral immoralOther U u 1 0.5533 
19-May-2018_14:09:21 7322 18 male R 2 4 19 moral immoralOther U u 1 0.4644 
19-May-2018_14:09:23 7322 18 male R 2 4 20 moral moralSelf Y y 1 0.6466 
19-May-2018_14:09:24 7322 18 male R 2 4 21 moral moralSelf Y y 1 0.5558 
19-May-2018_14:09:27 7322 18 male R 2 4 22 moral moralSelf Y y 1 0.7640 
19-May-2018_14:09:29 7322 18 male R 2 4 23 moral moralOther Y u 0 0.4318 
19-May-2018_14:09:30 7322 18 male R 2 4 24 moral immoralOther U u 1 0.4855 
19-May-2018_14:09:42 7322 18 male R 2 5 1 moral moralOther Y y 1 0.5513 
19-May-2018_14:09:44 7322 18 male R 2 5 2 moral moralSelf Y y 1 0.5382 
19-May-2018_14:09:45 7322 18 male R 2 5 3 moral immoralSelf U u 1 0.6051 
19-May-2018_14:09:47 7322 18 male R 2 5 4 moral moralOther Y y 1 0.5859 
19-May-2018_14:09:49 7322 18 male R 2 5 5 moral immoralOther U u 1 0.4265 
19-May-2018_14:09:50 7322 18 male R 2 5 6 moral moralSelf Y y 1 0.5516 
19-May-2018_14:09:52 7322 18 male R 2 5 7 moral immoralOther U u 1 0.4995 
19-May-2018_14:09:54 7322 18 male R 2 5 8 moral immoralOther U u 1 0.5706 
19-May-2018_14:09:55 7322 18 male R 2 5 9 moral moralOther Y y 1 0.5961 
19-May-2018_14:09:57 7322 18 male R 2 5 10 moral immoralSelf U u 1 0.6226 
19-May-2018_14:09:59 7322 18 male R 2 5 11 moral moralSelf Y y 1 0.5078 
19-May-2018_14:10:01 7322 18 male R 2 5 12 moral immoralOther U u 1 0.4750 
19-May-2018_14:10:03 7322 18 male R 2 5 13 moral immoralSelf U u 1 0.6303 
19-May-2018_14:10:05 7322 18 male R 2 5 14 moral immoralSelf U u 1 0.5880 
19-May-2018_14:10:07 7322 18 male R 2 5 15 moral moralOther Y y 1 0.5744 
19-May-2018_14:10:09 7322 18 male R 2 5 16 moral moralOther Y y 1 0.7166 
19-May-2018_14:10:11 7322 18 male R 2 5 17 moral immoralSelf U u 1 0.4927 
19-May-2018_14:10:12 7322 18 male R 2 5 18 moral moralSelf Y y 1 0.5426 
19-May-2018_14:10:14 7322 18 male R 2 5 19 moral immoralOther U u 1 0.5253 
19-May-2018_14:10:16 7322 18 male R 2 5 20 moral moralSelf Y y 1 0.4087 
19-May-2018_14:10:18 7322 18 male R 2 5 21 moral moralSelf Y y 1 0.4755 
19-May-2018_14:10:19 7322 18 male R 2 5 22 moral moralOther Y u 0 0.4544 
19-May-2018_14:10:21 7322 18 male R 2 5 23 moral immoralSelf U u 1 0.5534 
19-May-2018_14:10:23 7322 18 male R 2 5 24 moral immoralOther U u 1 0.6800 
Date Sub Age Sex Hand Block Bin Trial Task Shape corrResp Resp ACC RT
19-May-2018_14:12:48 7322 18 male R 3 1 1 self moralOther H h 1 0.7269 
19-May-2018_14:12:50 7322 18 male R 3 1 2 self immoralSelf J j 1 0.7835 
19-May-2018_14:12:52 7322 18 male R 3 1 3 self moralSelf J j 1 0.7638 
19-May-2018_14:12:54 7322 18 male R 3 1 4 self immoralOther H h 1 0.7131 
19-May-2018_14:12:56 7322 18 male R 3 1 5 self moralOther H j 0 0.5047 
19-May-2018_14:12:58 7322 18 male R 3 1 6 self immoralOther H h 1 1.0652 
19-May-2018_14:13:00 7322 18 male R 3 1 7 self immoralSelf J j 1 0.5142 
19-May-2018_14:13:01 7322 18 male R 3 1 8 self moralOther H h 1 0.6851 
19-May-2018_14:13:03 7322 18 male R 3 1 9 self moralSelf J j 1 0.5332 
19-May-2018_14:13:05 7322 18 male R 3 1 10 self moralSelf J j 1 0.4801 
19-May-2018_14:13:06 7322 18 male R 3 1 11 self immoralOther H h 1 0.5414 
19-May-2018_14:13:09 7322 18 male R 3 1 12 self immoralOther H h 1 0.6788 
19-May-2018_14:13:10 7322 18 male R 3 1 13 self moralOther H h 1 0.4940 
19-May-2018_14:13:13 7322 18 male R 3 1 14 self moralOther H h 1 0.7670 
19-May-2018_14:13:15 7322 18 male R 3 1 15 self moralSelf J j 1 0.6122 
19-May-2018_14:13:17 7322 18 male R 3 1 16 self immoralSelf J h 0 0.8212 
19-May-2018_14:13:18 7322 18 male R 3 1 17 self immoralSelf J j 1 0.6034 
19-May-2018_14:13:20 7322 18 male R 3 1 18 self immoralOther H h 1 0.5917 
19-May-2018_14:13:22 7322 18 male R 3 1 19 self moralSelf J j 1 0.4939 
19-May-2018_14:13:24 7322 18 male R 3 1 20 self moralSelf J j 1 0.4761 
19-May-2018_14:13:26 7322 18 male R 3 1 21 self moralOther H h 1 0.9322 
19-May-2018_14:13:28 7322 18 male R 3 1 22 self immoralOther H h 1 0.6245 
19-May-2018_14:13:30 7322 18 male R 3 1 23 self immoralSelf J j 1 0.5531 
19-May-2018_14:13:32 7322 18 male R 3 1 24 self immoralSelf J j 1 0.4967 
19-May-2018_14:13:34 7322 18 male R 3 2 1 self moralSelf J j 1 0.6807 
19-May-2018_14:13:36 7322 18 male R 3 2 2 self moralOther H h 1 0.8243 
19-May-2018_14:13:38 7322 18 male R 3 2 3 self moralOther H h 1 0.5322 
19-May-2018_14:13:40 7322 18 male R 3 2 4 self immoralSelf J j 1 0.5986 
19-May-2018_14:13:42 7322 18 male R 3 2 5 self moralSelf J j 1 0.8985 
19-May-2018_14:13:44 7322 18 male R 3 2 6 self moralSelf J j 1 0.4887 
19-May-2018_14:13:46 7322 18 male R 3 2 7 self moralSelf J j 1 0.4709 
19-May-2018_14:13:48 7322 18 male R 3 2 8 self immoralSelf J j 1 0.5783 
19-May-2018_14:13:50 7322 18 male R 3 2 9 self moralOther H h 1 0.4559 
19-May-2018_14:13:51 7322 18 male R 3 2 10 self moralOther H h 1 0.3458 
19-May-2018_14:13:53 7322 18 male R 3 2 11 self immoralOther H h 1 0.4439 
19-May-2018_14:13:55 7322 18 male R 3 2 12 self immoralSelf J j 1 0.5315 
19-May-2018_14:13:57 7322 18 male R 3 2 13 self immoralOther H h 1 0.6002 
19-May-2018_14:13:59 7322 18 male R 3 2 14 self immoralOther H h 1 0.8102 
19-May-2018_14:14:01 7322 18 male R 3 2 15 self immoralOther H h 1 0.5877 
19-May-2018_14:14:02 7322 18 male R 3 2 16 self immoralOther H h 1 0.4368 
19-May-2018_14:14:04 7322 18 male R 3 2 17 self moralSelf J j 1 0.6748 
19-May-2018_14:14:06 7322 18 male R 3 2 18 self immoralSelf J j 1 0.5775 
19-May-2018_14:14:08 7322 18 male R 3 2 19 self immoralSelf J j 1 0.5145 
19-May-2018_14:14:10 7322 18 male R 3 2 20 self moralSelf J j 1 0.5221 
19-May-2018_14:14:12 7322 18 male R 3 2 21 self moralOther H h 1 0.8412 
19-May-2018_14:14:14 7322 18 male R 3 2 22 self immoralSelf J j 1 0.4061 
19-May-2018_14:14:15 7322 18 male R 3 2 23 self immoralOther H h 1 0.5478 
19-May-2018_14:14:17 7322 18 male R 3 2 24 self moralOther H j 0 0.5172 
19-May-2018_14:14:26 7322 18 male R 3 3 1 self immoralOther H h 1 0.6762 
19-May-2018_14:14:28 7322 18 male R 3 3 2 self immoralSelf J j 1 0.8669 
19-May-2018_14:14:30 7322 18 male R 3 3 3 self immoralSelf J j 1 0.4024 
19-May-2018_14:14:33 7322 18 male R 3 3 4 self immoralOther H NA -1 1.0841 
19-May-2018_14:14:34 7322 18 male R 3 3 5 self moralSelf J j 1 0.5386 
19-May-2018_14:14:36 7322 18 male R 3 3 6 self moralSelf J j 1 0.4018 
19-May-2018_14:14:38 7322 18 male R 3 3 7 self moralSelf J j 1 0.5886 
19-May-2018_14:14:40 7322 18 male R 3 3 8 self immoralOther H h 1 0.5417 
19-May-2018_14:14:42 7322 18 male R 3 3 9 self moralSelf J j 1 0.6707 
19-May-2018_14:14:44 7322 18 male R 3 3 10 self moralOther H h 1 0.7150 
19-May-2018_14:14:46 7322 18 male R 3 3 11 self moralOther H j 0 0.5108 
19-May-2018_14:14:47 7322 18 male R 3 3 12 self immoralSelf J j 1 0.5617 
19-May-2018_14:14:50 7322 18 male R 3 3 13 self immoralSelf J j 1 0.8234 
19-May-2018_14:14:52 7322 18 male R 3 3 14 self moralSelf J j 1 0.5459 
19-May-2018_14:14:54 7322 18 male R 3 3 15 self immoralSelf J h 0 0.6307 
19-May-2018_14:14:55 7322 18 male R 3 3 16 self moralOther H h 1 0.5310 
19-May-2018_14:14:57 7322 18 male R 3 3 17 self moralOther H h 1 0.5965 
19-May-2018_14:14:59 7322 18 male R 3 3 18 self immoralOther H h 1 0.4818 
19-May-2018_14:15:01 7322 18 male R 3 3 19 self moralOther H h 1 0.3943 
19-May-2018_14:15:03 7322 18 male R 3 3 20 self moralOther H h 1 0.4240 
19-May-2018_14:15:04 7322 18 male R 3 3 21 self immoralOther H h 1 0.4861 
19-May-2018_14:15:06 7322 18 male R 3 3 22 self immoralOther H h 1 0.3883 
19-May-2018_14:15:08 7322 18 male R 3 3 23 self immoralSelf J h 0 0.4514 
19-May-2018_14:15:09 7322 18 male R 3 3 24 self moralSelf J j 1 0.5739 
19-May-2018_14:15:11 7322 18 male R 3 4 1 self moralOther H h 1 0.5024 
19-May-2018_14:15:13 7322 18 male R 3 4 2 self immoralOther H h 1 0.4747 
19-May-2018_14:15:14 7322 18 male R 3 4 3 self immoralSelf J j 1 0.3345 
19-May-2018_14:15:16 7322 18 male R 3 4 4 self immoralOther H h 1 0.4660 
19-May-2018_14:15:18 7322 18 male R 3 4 5 self immoralSelf J j 1 0.4439 
19-May-2018_14:15:20 7322 18 male R 3 4 6 self moralSelf J j 1 0.8142 
19-May-2018_14:15:21 7322 18 male R 3 4 7 self immoralSelf J j 1 0.5028 
19-May-2018_14:15:23 7322 18 male R 3 4 8 self immoralSelf J j 1 0.4943 
19-May-2018_14:15:25 7322 18 male R 3 4 9 self immoralOther H h 1 0.4572 
19-May-2018_14:15:26 7322 18 male R 3 4 10 self moralSelf J j 1 0.4672 
19-May-2018_14:15:28 7322 18 male R 3 4 11 self immoralSelf J j 1 0.3543 
19-May-2018_14:15:30 7322 18 male R 3 4 12 self moralSelf J j 1 0.4617 
19-May-2018_14:15:32 7322 18 male R 3 4 13 self moralOther H h 1 0.4702 
19-May-2018_14:15:33 7322 18 male R 3 4 14 self immoralOther H h 1 0.5207 
19-May-2018_14:15:35 7322 18 male R 3 4 15 self immoralOther H h 1 0.4958 
19-May-2018_14:15:37 7322 18 male R 3 4 16 self moralOther H h 1 0.5081 
19-May-2018_14:15:39 7322 18 male R 3 4 17 self immoralOther H h 1 0.3872 
19-May-2018_14:15:40 7322 18 male R 3 4 18 self moralSelf J j 1 0.4169 
19-May-2018_14:15:42 7322 18 male R 3 4 19 self moralSelf J j 1 0.3455 
19-May-2018_14:15:44 7322 18 male R 3 4 20 self immoralSelf J j 1 0.5291 
19-May-2018_14:15:45 7322 18 male R 3 4 21 self moralOther H h 1 0.5433 
19-May-2018_14:15:47 7322 18 male R 3 4 22 self moralSelf J j 1 0.6191 
19-May-2018_14:15:49 7322 18 male R 3 4 23 self moralOther H j 0 0.6752 
19-May-2018_14:15:51 7322 18 male R 3 4 24 self moralOther H h 1 0.4381 
19-May-2018_14:15:56 7322 18 male R 3 5 1 self immoralSelf J j 1 0.5239 
19-May-2018_14:15:57 7322 18 male R 3 5 2 self immoralSelf J j 1 0.4679 
19-May-2018_14:15:59 7322 18 male R 3 5 3 self immoralSelf J j 1 0.4007 
19-May-2018_14:16:01 7322 18 male R 3 5 4 self moralSelf J j 1 0.5072 
19-May-2018_14:16:02 7322 18 male R 3 5 5 self immoralOther H h 1 0.4150 
19-May-2018_14:16:04 7322 18 male R 3 5 6 self immoralSelf J j 1 0.3906 
19-May-2018_14:16:06 7322 18 male R 3 5 7 self immoralOther H h 1 0.5243 
19-May-2018_14:16:08 7322 18 male R 3 5 8 self moralSelf J j 1 0.8034 
19-May-2018_14:16:10 7322 18 male R 3 5 9 self moralOther H h 1 0.6246 
19-May-2018_14:16:11 7322 18 male R 3 5 10 self moralOther H h 1 0.4022 
19-May-2018_14:16:13 7322 18 male R 3 5 11 self moralSelf J j 1 0.4408 
19-May-2018_14:16:15 7322 18 male R 3 5 12 self moralSelf J j 1 0.2898 
19-May-2018_14:16:17 7322 18 male R 3 5 13 self immoralSelf J j 1 0.5788 
19-May-2018_14:16:18 7322 18 male R 3 5 14 self moralSelf J j 1 0.3422 
19-May-2018_14:16:20 7322 18 male R 3 5 15 self immoralOther H h 1 0.4467 
19-May-2018_14:16:22 7322 18 male R 3 5 16 self moralOther H j 0 0.3691 
19-May-2018_14:16:24 7322 18 male R 3 5 17 self moralOther H h 1 0.5188 
19-May-2018_14:16:25 7322 18 male R 3 5 18 self immoralOther H j 0 0.5618 
19-May-2018_14:16:27 7322 18 male R 3 5 19 self immoralOther H h 1 0.5115 
19-May-2018_14:16:29 7322 18 male R 3 5 20 self immoralSelf J j 1 0.4297 
19-May-2018_14:16:31 7322 18 male R 3 5 21 self immoralOther H h 1 0.5596 
19-May-2018_14:16:33 7322 18 male R 3 5 22 self moralSelf J j 1 0.5587 
19-May-2018_14:16:34 7322 18 male R 3 5 23 self moralOther H h 1 0.5531 
19-May-2018_14:16:36 7322 18 male R 3 5 24 self moralOther H h 1 0.6422 
Date Sub Age Sex Hand Block Bin Trial Task Shape corrResp Resp ACC RT
19-May-2018_14:19:02 7322 18 male R 4 1 1 moral moralOther Y y 1 0.5075 
19-May-2018_14:19:04 7322 18 male R 4 1 2 moral moralSelf Y u 0 0.7476 
19-May-2018_14:19:05 7322 18 male R 4 1 3 moral moralOther Y y 1 0.6955 
19-May-2018_14:19:08 7322 18 male R 4 1 4 moral immoralOther U u 1 0.6061 
19-May-2018_14:19:09 7322 18 male R 4 1 5 moral immoralSelf U u 1 0.7596 
19-May-2018_14:19:11 7322 18 male R 4 1 6 moral immoralSelf U u 1 0.5724 
19-May-2018_14:19:14 7322 18 male R 4 1 7 moral immoralOther U u 1 0.9005 
19-May-2018_14:19:16 7322 18 male R 4 1 8 moral immoralSelf U u 1 0.6026 
19-May-2018_14:19:17 7322 18 male R 4 1 9 moral immoralOther U u 1 0.5242 
19-May-2018_14:19:19 7322 18 male R 4 1 10 moral moralOther Y y 1 0.5803 
19-May-2018_14:19:21 7322 18 male R 4 1 11 moral immoralSelf U u 1 0.7813 
19-May-2018_14:19:23 7322 18 male R 4 1 12 moral immoralOther U u 1 0.5211 
19-May-2018_14:19:25 7322 18 male R 4 1 13 moral moralSelf Y y 1 0.5456 
19-May-2018_14:19:26 7322 18 male R 4 1 14 moral moralSelf Y y 1 0.4987 
19-May-2018_14:19:28 7322 18 male R 4 1 15 moral immoralSelf U u 1 0.7829 
19-May-2018_14:19:30 7322 18 male R 4 1 16 moral moralOther Y y 1 0.6729 
19-May-2018_14:19:32 7322 18 male R 4 1 17 moral immoralSelf U u 1 0.6438 
19-May-2018_14:19:34 7322 18 male R 4 1 18 moral immoralOther U u 1 0.6269 
19-May-2018_14:19:36 7322 18 male R 4 1 19 moral moralOther Y y 1 0.5926 
19-May-2018_14:19:38 7322 18 male R 4 1 20 moral moralOther Y y 1 0.4398 
19-May-2018_14:19:39 7322 18 male R 4 1 21 moral immoralOther U u 1 0.4931 
19-May-2018_14:19:41 7322 18 male R 4 1 22 moral moralSelf Y y 1 0.5157 
19-May-2018_14:19:43 7322 18 male R 4 1 23 moral moralSelf Y y 1 0.4574 
19-May-2018_14:19:45 7322 18 male R 4 1 24 moral moralSelf Y y 1 0.4749 
19-May-2018_14:19:47 7322 18 male R 4 2 1 moral immoralSelf U u 1 0.5921 
19-May-2018_14:19:48 7322 18 male R 4 2 2 moral immoralSelf U u 1 0.3644 
19-May-2018_14:19:50 7322 18 male R 4 2 3 moral moralOther Y y 1 0.5739 
19-May-2018_14:19:52 7322 18 male R 4 2 4 moral moralSelf Y y 1 0.4913 
19-May-2018_14:19:53 7322 18 male R 4 2 5 moral immoralOther U u 1 0.4984 
19-May-2018_14:19:55 7322 18 male R 4 2 6 moral moralOther Y y 1 0.7849 
19-May-2018_14:19:57 7322 18 male R 4 2 7 moral immoralOther U u 1 0.4636 
19-May-2018_14:19:59 7322 18 male R 4 2 8 moral moralSelf Y y 1 0.6043 
19-May-2018_14:20:01 7322 18 male R 4 2 9 moral immoralOther U u 1 0.5051 
19-May-2018_14:20:03 7322 18 male R 4 2 10 moral moralSelf Y y 1 0.4714 
19-May-2018_14:20:04 7322 18 male R 4 2 11 moral moralOther Y u 0 0.4230 
19-May-2018_14:20:07 7322 18 male R 4 2 12 moral moralSelf Y y 1 0.9717 
19-May-2018_14:20:08 7322 18 male R 4 2 13 moral immoralOther U u 1 0.5638 
19-May-2018_14:20:10 7322 18 male R 4 2 14 moral moralOther Y y 1 0.4970 
19-May-2018_14:20:12 7322 18 male R 4 2 15 moral moralSelf Y y 1 0.4825 
19-May-2018_14:20:14 7322 18 male R 4 2 16 moral immoralSelf U u 1 0.6317 
19-May-2018_14:20:15 7322 18 male R 4 2 17 moral immoralSelf U u 1 0.5174 
19-May-2018_14:20:17 7322 18 male R 4 2 18 moral moralOther Y y 1 0.4667 
19-May-2018_14:20:19 7322 18 male R 4 2 19 moral moralSelf Y y 1 0.5153 
19-May-2018_14:20:21 7322 18 male R 4 2 20 moral moralOther Y y 1 0.5341 
19-May-2018_14:20:22 7322 18 male R 4 2 21 moral immoralOther U u 1 0.6401 
19-May-2018_14:20:24 7322 18 male R 4 2 22 moral immoralSelf U u 1 0.5466 
19-May-2018_14:20:26 7322 18 male R 4 2 23 moral immoralSelf U u 1 0.5344 
19-May-2018_14:20:28 7322 18 male R 4 2 24 moral immoralOther U u 1 0.6022 
19-May-2018_14:20:33 7322 18 male R 4 3 1 moral moralSelf Y y 1 0.9445 
19-May-2018_14:20:35 7322 18 male R 4 3 2 moral immoralOther U u 1 0.5897 
19-May-2018_14:20:36 7322 18 male R 4 3 3 moral immoralSelf U u 1 0.5230 
19-May-2018_14:20:38 7322 18 male R 4 3 4 moral moralOther Y y 1 0.6742 
19-May-2018_14:20:40 7322 18 male R 4 3 5 moral moralSelf Y y 1 0.5753 
19-May-2018_14:20:42 7322 18 male R 4 3 6 moral immoralSelf U u 1 0.4720 
19-May-2018_14:20:44 7322 18 male R 4 3 7 moral moralSelf Y u 0 0.4702 
19-May-2018_14:20:45 7322 18 male R 4 3 8 moral moralOther Y y 1 0.4707 
19-May-2018_14:20:47 7322 18 male R 4 3 9 moral moralOther Y y 1 0.4458 
19-May-2018_14:20:49 7322 18 male R 4 3 10 moral immoralSelf U u 1 0.4557 
19-May-2018_14:20:51 7322 18 male R 4 3 11 moral moralOther Y y 1 0.5033 
19-May-2018_14:20:52 7322 18 male R 4 3 12 moral moralSelf Y y 1 0.5918 
19-May-2018_14:20:54 7322 18 male R 4 3 13 moral immoralSelf U u 1 0.5373 
19-May-2018_14:20:56 7322 18 male R 4 3 14 moral immoralOther U u 1 0.5939 
19-May-2018_14:20:58 7322 18 male R 4 3 15 moral immoralOther U u 1 0.6099 
19-May-2018_14:20:59 7322 18 male R 4 3 16 moral moralSelf Y y 1 0.3822 
19-May-2018_14:21:01 7322 18 male R 4 3 17 moral moralOther Y y 1 0.5739 
19-May-2018_14:21:03 7322 18 male R 4 3 18 moral moralOther Y y 1 0.4379 
19-May-2018_14:21:04 7322 18 male R 4 3 19 moral moralSelf Y y 1 0.4516 
19-May-2018_14:21:06 7322 18 male R 4 3 20 moral immoralSelf U u 1 0.4508 
19-May-2018_14:21:08 7322 18 male R 4 3 21 moral immoralSelf U u 1 0.6978 
19-May-2018_14:21:10 7322 18 male R 4 3 22 moral immoralOther U y 0 0.4992 
19-May-2018_14:21:11 7322 18 male R 4 3 23 moral immoralOther U u 1 0.4589 
19-May-2018_14:21:13 7322 18 male R 4 3 24 moral immoralOther U u 1 0.4750 
19-May-2018_14:21:15 7322 18 male R 4 4 1 moral immoralOther U u 1 0.3739 
19-May-2018_14:21:16 7322 18 male R 4 4 2 moral moralSelf Y y 1 0.5146 
19-May-2018_14:21:18 7322 18 male R 4 4 3 moral moralOther Y y 1 0.5600 
19-May-2018_14:21:20 7322 18 male R 4 4 4 moral immoralOther U u 1 0.4635 
19-May-2018_14:21:21 7322 18 male R 4 4 5 moral moralOther Y u 0 0.3492 
19-May-2018_14:21:23 7322 18 male R 4 4 6 moral moralSelf Y y 1 0.5638 
19-May-2018_14:21:25 7322 18 male R 4 4 7 moral moralSelf Y y 1 0.4608 
19-May-2018_14:21:27 7322 18 male R 4 4 8 moral immoralOther U u 1 0.8878 
19-May-2018_14:21:29 7322 18 male R 4 4 9 moral moralOther Y u 0 0.4328 
19-May-2018_14:21:31 7322 18 male R 4 4 10 moral moralOther Y y 1 0.4255 
19-May-2018_14:21:32 7322 18 male R 4 4 11 moral immoralOther U u 1 0.4588 
19-May-2018_14:21:34 7322 18 male R 4 4 12 moral immoralOther U u 1 0.6758 
19-May-2018_14:21:36 7322 18 male R 4 4 13 moral moralSelf Y y 1 0.5390 
19-May-2018_14:21:38 7322 18 male R 4 4 14 moral moralSelf Y y 1 0.4793 
19-May-2018_14:21:40 7322 18 male R 4 4 15 moral immoralSelf U u 1 0.6139 
19-May-2018_14:21:41 7322 18 male R 4 4 16 moral immoralSelf U u 1 0.4982 
19-May-2018_14:21:43 7322 18 male R 4 4 17 moral immoralSelf U y 0 0.5995 
19-May-2018_14:21:45 7322 18 male R 4 4 18 moral immoralSelf U u 1 0.4382 
19-May-2018_14:21:47 7322 18 male R 4 4 19 moral moralOther Y y 1 0.5276 
19-May-2018_14:21:49 7322 18 male R 4 4 20 moral moralOther Y y 1 0.5592 
19-May-2018_14:21:50 7322 18 male R 4 4 21 moral immoralOther U u 1 0.5842 
19-May-2018_14:21:52 7322 18 male R 4 4 22 moral immoralSelf U u 1 0.5730 
19-May-2018_14:21:54 7322 18 male R 4 4 23 moral moralSelf Y y 1 0.7434 
19-May-2018_14:21:56 7322 18 male R 4 4 24 moral immoralSelf U u 1 0.6631 
19-May-2018_14:22:00 7322 18 male R 4 5 1 moral immoralOther U u 1 0.6344 
19-May-2018_14:22:02 7322 18 male R 4 5 2 moral immoralSelf U u 1 0.7837 
19-May-2018_14:22:04 7322 18 male R 4 5 3 moral moralOther Y y 1 0.4299 
19-May-2018_14:22:06 7322 18 male R 4 5 4 moral immoralOther U u 1 0.4531 
19-May-2018_14:22:08 7322 18 male R 4 5 5 moral moralSelf Y NA -1 1.0841 
19-May-2018_14:22:10 7322 18 male R 4 5 6 moral moralSelf Y y 1 0.6009 
19-May-2018_14:22:12 7322 18 male R 4 5 7 moral immoralOther U u 1 0.7154 
19-May-2018_14:22:14 7322 18 male R 4 5 8 moral moralSelf Y y 1 0.4679 
19-May-2018_14:22:15 7322 18 male R 4 5 9 moral immoralOther U u 1 0.4661 
19-May-2018_14:22:17 7322 18 male R 4 5 10 moral immoralOther U u 1 0.4101 
19-May-2018_14:22:18 7322 18 male R 4 5 11 moral immoralSelf U y 0 0.4229 
19-May-2018_14:22:20 7322 18 male R 4 5 12 moral moralSelf Y y 1 0.5680 
19-May-2018_14:22:22 7322 18 male R 4 5 13 moral moralSelf Y y 1 0.5256 
19-May-2018_14:22:24 7322 18 male R 4 5 14 moral moralSelf Y y 1 0.5220 
19-May-2018_14:22:25 7322 18 male R 4 5 15 moral immoralSelf U u 1 0.5696 
19-May-2018_14:22:28 7322 18 male R 4 5 16 moral moralOther Y y 1 0.6817 
19-May-2018_14:22:29 7322 18 male R 4 5 17 moral moralOther Y y 1 0.4686 
19-May-2018_14:22:31 7322 18 male R 4 5 18 moral moralOther Y y 1 0.4809 
19-May-2018_14:22:33 7322 18 male R 4 5 19 moral moralOther Y y 1 0.4710 
19-May-2018_14:22:34 7322 18 male R 4 5 20 moral immoralSelf U u 1 0.5689 
19-May-2018_14:22:36 7322 18 male R 4 5 21 moral immoralOther U u 1 0.7220 
19-May-2018_14:22:39 7322 18 male R 4 5 22 moral immoralSelf U NA -1 1.0841 
19-May-2018_14:22:40 7322 18 male R 4 5 23 moral immoralSelf U y 0 0.6445 
19-May-2018_14:22:42 7322 18 male R 4 5 24 moral moralOther Y u 0 0.6093 
Date Sub Age Sex Hand Block Bin Trial Task Shape corrResp Resp ACC RT
19-May-2018_14:24:58 7322 18 male R 5 1 1 moral immoralSelf U u 1 0.7970 
19-May-2018_14:25:00 7322 18 male R 5 1 2 moral immoralOther U u 1 0.6508 
19-May-2018_14:25:02 7322 18 male R 5 1 3 moral immoralOther U u 1 0.5088 
19-May-2018_14:25:03 7322 18 male R 5 1 4 moral immoralOther U u 1 0.4134 
19-May-2018_14:25:05 7322 18 male R 5 1 5 moral moralOther Y y 1 0.5004 
19-May-2018_14:25:07 7322 18 male R 5 1 6 moral immoralOther U u 1 0.4874 
19-May-2018_14:25:09 7322 18 male R 5 1 7 moral moralOther Y y 1 0.6060 
19-May-2018_14:25:10 7322 18 male R 5 1 8 moral moralSelf Y y 1 0.4550 
19-May-2018_14:25:12 7322 18 male R 5 1 9 moral immoralOther U u 1 0.6875 
19-May-2018_14:25:14 7322 18 male R 5 1 10 moral immoralSelf U u 1 0.8570 
19-May-2018_14:25:16 7322 18 male R 5 1 11 moral moralSelf Y y 1 0.5145 
19-May-2018_14:25:18 7322 18 male R 5 1 12 moral immoralSelf U u 1 0.5146 
19-May-2018_14:25:20 7322 18 male R 5 1 13 moral immoralSelf U u 1 0.5222 
19-May-2018_14:25:21 7322 18 male R 5 1 14 moral immoralSelf U u 1 0.3726 
19-May-2018_14:25:23 7322 18 male R 5 1 15 moral moralSelf Y y 1 0.4648 
19-May-2018_14:25:25 7322 18 male R 5 1 16 moral moralOther Y y 1 0.6612 
19-May-2018_14:25:27 7322 18 male R 5 1 17 moral immoralSelf U u 1 0.5385 
19-May-2018_14:25:29 7322 18 male R 5 1 18 moral moralSelf Y y 1 0.5262 
19-May-2018_14:25:30 7322 18 male R 5 1 19 moral immoralOther U u 1 0.5132 
19-May-2018_14:25:33 7322 18 male R 5 1 20 moral moralOther Y y 1 0.9099 
19-May-2018_14:25:34 7322 18 male R 5 1 21 moral moralOther Y y 1 0.5104 
19-May-2018_14:25:36 7322 18 male R 5 1 22 moral moralSelf Y y 1 0.7059 
19-May-2018_14:25:38 7322 18 male R 5 1 23 moral moralSelf Y y 1 0.5412 
19-May-2018_14:25:40 7322 18 male R 5 1 24 moral moralOther Y y 1 0.5178 
19-May-2018_14:25:42 7322 18 male R 5 2 1 moral moralOther Y u 0 0.6006 
19-May-2018_14:25:44 7322 18 male R 5 2 2 moral immoralOther U u 1 0.6934 
19-May-2018_14:25:45 7322 18 male R 5 2 3 moral immoralOther U u 1 0.5330 
19-May-2018_14:25:47 7322 18 male R 5 2 4 moral immoralSelf U u 1 0.6926 
19-May-2018_14:25:49 7322 18 male R 5 2 5 moral immoralSelf U u 1 0.6263 
19-May-2018_14:25:51 7322 18 male R 5 2 6 moral moralSelf Y y 1 0.5559 
19-May-2018_14:25:53 7322 18 male R 5 2 7 moral moralSelf Y y 1 0.5060 
19-May-2018_14:25:55 7322 18 male R 5 2 8 moral immoralOther U u 1 0.6036 
19-May-2018_14:25:57 7322 18 male R 5 2 9 moral moralSelf Y y 1 0.5415 
19-May-2018_14:25:59 7322 18 male R 5 2 10 moral immoralOther U u 1 0.5989 
19-May-2018_14:26:01 7322 18 male R 5 2 11 moral moralSelf Y y 1 0.5680 
19-May-2018_14:26:03 7322 18 male R 5 2 12 moral moralSelf Y y 1 0.9421 
19-May-2018_14:26:05 7322 18 male R 5 2 13 moral immoralOther U u 1 0.4981 
19-May-2018_14:26:07 7322 18 male R 5 2 14 moral moralSelf Y y 1 0.5649 
19-May-2018_14:26:08 7322 18 male R 5 2 15 moral moralOther Y y 1 0.5499 
19-May-2018_14:26:10 7322 18 male R 5 2 16 moral immoralSelf U u 1 0.6700 
19-May-2018_14:26:12 7322 18 male R 5 2 17 moral moralOther Y y 1 0.7110 
19-May-2018_14:26:14 7322 18 male R 5 2 18 moral moralOther Y y 1 0.5765 
19-May-2018_14:26:16 7322 18 male R 5 2 19 moral moralOther Y y 1 0.4152 
19-May-2018_14:26:18 7322 18 male R 5 2 20 moral immoralOther U u 1 0.4943 
19-May-2018_14:26:20 7322 18 male R 5 2 21 moral immoralSelf U u 1 0.5579 
19-May-2018_14:26:21 7322 18 male R 5 2 22 moral immoralSelf U u 1 0.4926 
19-May-2018_14:26:23 7322 18 male R 5 2 23 moral immoralSelf U u 1 0.3839 
19-May-2018_14:26:25 7322 18 male R 5 2 24 moral moralOther Y y 1 0.4847 
19-May-2018_14:26:38 7322 18 male R 5 3 1 moral moralOther Y y 1 0.5548 
19-May-2018_14:26:40 7322 18 male R 5 3 2 moral immoralOther U u 1 0.5243 
19-May-2018_14:26:42 7322 18 male R 5 3 3 moral moralOther Y y 1 0.7997 
19-May-2018_14:26:44 7322 18 male R 5 3 4 moral immoralSelf U u 1 0.7565 
19-May-2018_14:26:46 7322 18 male R 5 3 5 moral moralOther Y y 1 0.4652 
19-May-2018_14:26:48 7322 18 male R 5 3 6 moral immoralOther U u 1 0.6969 
19-May-2018_14:26:50 7322 18 male R 5 3 7 moral immoralOther U u 1 0.4522 
19-May-2018_14:26:52 7322 18 male R 5 3 8 moral moralSelf Y y 1 0.4942 
19-May-2018_14:26:54 7322 18 male R 5 3 9 moral moralSelf Y y 1 0.4652 
19-May-2018_14:26:55 7322 18 male R 5 3 10 moral moralSelf Y y 1 0.3484 
19-May-2018_14:26:57 7322 18 male R 5 3 11 moral immoralSelf U u 1 0.3688 
19-May-2018_14:26:59 7322 18 male R 5 3 12 moral immoralOther U u 1 0.8700 
19-May-2018_14:27:01 7322 18 male R 5 3 13 moral moralOther Y y 1 0.7642 
19-May-2018_14:27:03 7322 18 male R 5 3 14 moral immoralSelf U u 1 0.5793 
19-May-2018_14:27:05 7322 18 male R 5 3 15 moral immoralOther U y 0 0.5145 
19-May-2018_14:27:06 7322 18 male R 5 3 16 moral moralOther Y y 1 0.5733 
19-May-2018_14:27:08 7322 18 male R 5 3 17 moral moralSelf Y y 1 0.4770 
19-May-2018_14:27:10 7322 18 male R 5 3 18 moral moralOther Y y 1 0.4399 
19-May-2018_14:27:12 7322 18 male R 5 3 19 moral moralSelf Y y 1 0.4503 
19-May-2018_14:27:14 7322 18 male R 5 3 20 moral immoralSelf U u 1 0.6042 
19-May-2018_14:27:16 7322 18 male R 5 3 21 moral immoralOther U u 1 0.9694 
19-May-2018_14:27:18 7322 18 male R 5 3 22 moral immoralSelf U u 1 0.5041 
19-May-2018_14:27:20 7322 18 male R 5 3 23 moral immoralSelf U u 1 0.3443 
19-May-2018_14:27:21 7322 18 male R 5 3 24 moral moralSelf Y y 1 0.5052 
19-May-2018_14:27:23 7322 18 male R 5 4 1 moral immoralOther U u 1 0.5688 
19-May-2018_14:27:25 7322 18 male R 5 4 2 moral immoralOther U u 1 0.3566 
19-May-2018_14:27:26 7322 18 male R 5 4 3 moral moralOther Y y 1 0.4889 
19-May-2018_14:27:28 7322 18 male R 5 4 4 moral moralOther Y u 0 0.4165 
19-May-2018_14:27:30 7322 18 male R 5 4 5 moral immoralSelf U u 1 0.5997 
19-May-2018_14:27:31 7322 18 male R 5 4 6 moral moralOther Y y 1 0.4722 
19-May-2018_14:27:33 7322 18 male R 5 4 7 moral moralSelf Y y 1 0.4991 
19-May-2018_14:27:35 7322 18 male R 5 4 8 moral immoralSelf U u 1 0.4229 
19-May-2018_14:27:37 7322 18 male R 5 4 9 moral immoralSelf U u 1 0.5096 
19-May-2018_14:27:38 7322 18 male R 5 4 10 moral moralSelf Y y 1 0.4443 
19-May-2018_14:27:40 7322 18 male R 5 4 11 moral moralOther Y y 1 0.3865 
19-May-2018_14:27:42 7322 18 male R 5 4 12 moral immoralOther U u 1 0.5192 
19-May-2018_14:27:44 7322 18 male R 5 4 13 moral moralSelf Y y 1 0.4642 
19-May-2018_14:27:46 7322 18 male R 5 4 14 moral immoralOther U u 1 0.5942 
19-May-2018_14:27:48 7322 18 male R 5 4 15 moral immoralSelf U u 1 0.5424 
19-May-2018_14:27:49 7322 18 male R 5 4 16 moral immoralOther U u 1 0.4320 
19-May-2018_14:27:51 7322 18 male R 5 4 17 moral immoralSelf U u 1 0.5888 
19-May-2018_14:27:53 7322 18 male R 5 4 18 moral moralSelf Y u 0 0.4647 
19-May-2018_14:27:55 7322 18 male R 5 4 19 moral immoralSelf U u 1 0.6552 
19-May-2018_14:27:56 7322 18 male R 5 4 20 moral moralOther Y y 1 0.4233 
19-May-2018_14:27:58 7322 18 male R 5 4 21 moral immoralOther U u 1 0.4799 
19-May-2018_14:28:00 7322 18 male R 5 4 22 moral moralOther Y y 1 0.6922 
19-May-2018_14:28:02 7322 18 male R 5 4 23 moral moralSelf Y y 1 0.6009 
19-May-2018_14:28:04 7322 18 male R 5 4 24 moral moralSelf Y y 1 0.4829 
19-May-2018_14:28:28 7322 18 male R 5 5 1 moral moralSelf Y y 1 0.4918 
19-May-2018_14:28:30 7322 18 male R 5 5 2 moral moralOther Y y 1 0.5328 
19-May-2018_14:28:31 7322 18 male R 5 5 3 moral immoralOther U u 1 0.3964 
19-May-2018_14:28:33 7322 18 male R 5 5 4 moral moralSelf Y y 1 0.4351 
19-May-2018_14:28:35 7322 18 male R 5 5 5 moral immoralOther U u 1 0.7217 
19-May-2018_14:28:37 7322 18 male R 5 5 6 moral moralSelf Y y 1 0.4069 
19-May-2018_14:28:39 7322 18 male R 5 5 7 moral immoralSelf U u 1 0.5266 
19-May-2018_14:28:41 7322 18 male R 5 5 8 moral immoralOther U u 1 0.6066 
19-May-2018_14:28:43 7322 18 male R 5 5 9 moral immoralSelf U y 0 0.5479 
19-May-2018_14:28:45 7322 18 male R 5 5 10 moral immoralOther U u 1 0.8030 
19-May-2018_14:28:46 7322 18 male R 5 5 11 moral moralOther Y y 1 0.5048 
19-May-2018_14:28:48 7322 18 male R 5 5 12 moral moralSelf Y y 1 0.5090 
19-May-2018_14:28:50 7322 18 male R 5 5 13 moral moralOther Y y 1 0.5727 
19-May-2018_14:28:52 7322 18 male R 5 5 14 moral immoralSelf U u 1 0.5666 
19-May-2018_14:28:54 7322 18 male R 5 5 15 moral immoralOther U u 1 0.6514 
19-May-2018_14:28:56 7322 18 male R 5 5 16 moral moralOther Y y 1 0.4392 
19-May-2018_14:28:58 7322 18 male R 5 5 17 moral immoralSelf U u 1 0.6323 
19-May-2018_14:29:00 7322 18 male R 5 5 18 moral immoralOther U u 1 0.5689 
19-May-2018_14:29:02 7322 18 male R 5 5 19 moral immoralSelf U u 1 0.8687 
19-May-2018_14:29:04 7322 18 male R 5 5 20 moral moralOther Y y 1 0.4565 
19-May-2018_14:29:06 7322 18 male R 5 5 21 moral moralSelf Y y 1 0.8509 
19-May-2018_14:29:07 7322 18 male R 5 5 22 moral moralSelf Y y 1 0.4693 
19-May-2018_14:29:09 7322 18 male R 5 5 23 moral moralOther Y y 1 0.7395 
19-May-2018_14:29:11 7322 18 male R 5 5 24 moral immoralSelf U u 1 0.5721 
Date Sub Age Sex Hand Block Bin Trial Task Shape corrResp Resp ACC RT
19-May-2018_14:31:30 7322 18 male R 6 1 1 self moralSelf J NA -1 1.0841 
19-May-2018_14:31:32 7322 18 male R 6 1 2 self immoralSelf J h 0 0.9727 
19-May-2018_14:31:34 7322 18 male R 6 1 3 self immoralSelf J j 1 0.9992 
19-May-2018_14:31:36 7322 18 male R 6 1 4 self immoralSelf J j 1 0.6214 
19-May-2018_14:31:38 7322 18 male R 6 1 5 self moralSelf J h 0 0.7801 
19-May-2018_14:31:40 7322 18 male R 6 1 6 self moralSelf J j 1 0.5646 
19-May-2018_14:31:42 7322 18 male R 6 1 7 self immoralOther H h 1 0.7326 
19-May-2018_14:31:44 7322 18 male R 6 1 8 self moralOther H j 0 0.8028 
19-May-2018_14:31:46 7322 18 male R 6 1 9 self moralOther H h 1 0.7427 
19-May-2018_14:31:47 7322 18 male R 6 1 10 self moralOther H h 1 0.4684 
19-May-2018_14:31:50 7322 18 male R 6 1 11 self immoralOther H h 1 0.7918 
19-May-2018_14:31:52 7322 18 male R 6 1 12 self moralOther H h 1 0.8776 
19-May-2018_14:31:54 7322 18 male R 6 1 13 self moralSelf J j 1 0.6847 
19-May-2018_14:31:55 7322 18 male R 6 1 14 self moralSelf J j 1 0.4533 
19-May-2018_14:31:58 7322 18 male R 6 1 15 self immoralSelf J h 0 0.6284 
19-May-2018_14:32:00 7322 18 male R 6 1 16 self moralSelf J j 1 0.7263 
19-May-2018_14:32:02 7322 18 male R 6 1 17 self immoralOther H h 1 0.6581 
19-May-2018_14:32:03 7322 18 male R 6 1 18 self immoralSelf J j 1 0.5327 
19-May-2018_14:32:05 7322 18 male R 6 1 19 self immoralOther H h 1 0.6559 
19-May-2018_14:32:07 7322 18 male R 6 1 20 self immoralOther H h 1 0.5045 
19-May-2018_14:32:09 7322 18 male R 6 1 21 self immoralSelf J j 1 0.5596 
19-May-2018_14:32:11 7322 18 male R 6 1 22 self moralOther H h 1 0.8905 
19-May-2018_14:32:13 7322 18 male R 6 1 23 self moralOther H h 1 0.6699 
19-May-2018_14:32:14 7322 18 male R 6 1 24 self immoralOther H h 1 0.4911 
19-May-2018_14:32:16 7322 18 male R 6 2 1 self moralSelf J j 1 0.6253 
19-May-2018_14:32:18 7322 18 male R 6 2 2 self moralOther H h 1 0.4890 
19-May-2018_14:32:20 7322 18 male R 6 2 3 self moralOther H h 1 0.4763 
19-May-2018_14:32:22 7322 18 male R 6 2 4 self immoralSelf J j 1 0.6547 
19-May-2018_14:32:24 7322 18 male R 6 2 5 self moralSelf J j 1 0.5211 
19-May-2018_14:32:25 7322 18 male R 6 2 6 self immoralOther H h 1 0.5993 
19-May-2018_14:32:27 7322 18 male R 6 2 7 self immoralSelf J j 1 0.5979 
19-May-2018_14:32:29 7322 18 male R 6 2 8 self moralOther H j 0 0.5599 
19-May-2018_14:32:31 7322 18 male R 6 2 9 self immoralOther H j 0 0.6974 
19-May-2018_14:32:33 7322 18 male R 6 2 10 self immoralOther H h 1 0.5026 
19-May-2018_14:32:35 7322 18 male R 6 2 11 self immoralSelf J j 1 0.5131 
19-May-2018_14:32:37 7322 18 male R 6 2 12 self moralOther H h 1 1.0195 
19-May-2018_14:32:39 7322 18 male R 6 2 13 self moralOther H h 1 0.5598 
19-May-2018_14:32:40 7322 18 male R 6 2 14 self immoralSelf J j 1 0.5708 
19-May-2018_14:32:42 7322 18 male R 6 2 15 self immoralSelf J j 1 0.4108 
19-May-2018_14:32:44 7322 18 male R 6 2 16 self moralSelf J j 1 0.4984 
19-May-2018_14:32:46 7322 18 male R 6 2 17 self moralSelf J j 1 0.3945 
19-May-2018_14:32:47 7322 18 male R 6 2 18 self immoralOther H h 1 0.6322 
19-May-2018_14:32:49 7322 18 male R 6 2 19 self moralSelf J j 1 0.5183 
19-May-2018_14:32:51 7322 18 male R 6 2 20 self immoralOther H h 1 0.4981 
19-May-2018_14:32:53 7322 18 male R 6 2 21 self moralOther H j 0 0.8573 
19-May-2018_14:32:56 7322 18 male R 6 2 22 self immoralOther H h 1 0.8432 
19-May-2018_14:32:57 7322 18 male R 6 2 23 self moralSelf J j 1 0.5526 
19-May-2018_14:32:59 7322 18 male R 6 2 24 self immoralSelf J j 1 0.5418 
19-May-2018_14:33:04 7322 18 male R 6 3 1 self moralOther H h 1 0.5585 
19-May-2018_14:33:05 7322 18 male R 6 3 2 self immoralOther H h 1 0.4766 
19-May-2018_14:33:07 7322 18 male R 6 3 3 self immoralOther H h 1 0.4362 
19-May-2018_14:33:09 7322 18 male R 6 3 4 self moralSelf J j 1 0.5789 
19-May-2018_14:33:11 7322 18 male R 6 3 5 self immoralSelf J j 1 1.0204 
19-May-2018_14:33:13 7322 18 male R 6 3 6 self immoralOther H h 1 0.5993 
19-May-2018_14:33:15 7322 18 male R 6 3 7 self immoralOther H h 1 0.4798 
19-May-2018_14:33:17 7322 18 male R 6 3 8 self immoralOther H h 1 0.5557 
19-May-2018_14:33:19 7322 18 male R 6 3 9 self immoralSelf J j 1 0.5199 
19-May-2018_14:33:21 7322 18 male R 6 3 10 self moralSelf J j 1 0.7727 
19-May-2018_14:33:23 7322 18 male R 6 3 11 self moralOther H NA -1 1.0841 
19-May-2018_14:33:25 7322 18 male R 6 3 12 self moralOther H h 1 0.5833 
19-May-2018_14:33:27 7322 18 male R 6 3 13 self moralSelf J j 1 0.5193 
19-May-2018_14:33:29 7322 18 male R 6 3 14 self immoralSelf J j 1 0.7307 
19-May-2018_14:33:31 7322 18 male R 6 3 15 self immoralOther H h 1 0.6432 
19-May-2018_14:33:33 7322 18 male R 6 3 16 self immoralSelf J j 1 0.9389 
19-May-2018_14:33:35 7322 18 male R 6 3 17 self moralSelf J j 1 0.7059 
19-May-2018_14:33:37 7322 18 male R 6 3 18 self moralOther H h 1 0.7649 
19-May-2018_14:33:39 7322 18 male R 6 3 19 self moralSelf J j 1 0.6407 
19-May-2018_14:33:41 7322 18 male R 6 3 20 self moralSelf J j 1 0.5180 
19-May-2018_14:33:43 7322 18 male R 6 3 21 self moralOther H h 1 0.6851 
19-May-2018_14:33:45 7322 18 male R 6 3 22 self immoralSelf J j 1 0.5068 
19-May-2018_14:33:47 7322 18 male R 6 3 23 self moralOther H h 1 0.9826 
19-May-2018_14:33:49 7322 18 male R 6 3 24 self immoralSelf J j 1 0.3940 
19-May-2018_14:33:51 7322 18 male R 6 4 1 self moralOther H h 1 0.6737 
19-May-2018_14:33:53 7322 18 male R 6 4 2 self moralSelf J j 1 0.5052 
19-May-2018_14:33:54 7322 18 male R 6 4 3 self immoralOther H h 1 0.4965 
19-May-2018_14:33:56 7322 18 male R 6 4 4 self immoralOther H h 1 0.6367 
19-May-2018_14:33:58 7322 18 male R 6 4 5 self immoralSelf J j 1 0.5685 
19-May-2018_14:34:00 7322 18 male R 6 4 6 self immoralSelf J j 1 0.4411 
19-May-2018_14:34:02 7322 18 male R 6 4 7 self immoralSelf J j 1 0.7682 
19-May-2018_14:34:04 7322 18 male R 6 4 8 self immoralOther H h 1 0.5988 
19-May-2018_14:34:06 7322 18 male R 6 4 9 self moralOther H h 1 1.0281 
19-May-2018_14:34:08 7322 18 male R 6 4 10 self moralOther H h 1 0.5058 
19-May-2018_14:34:10 7322 18 male R 6 4 11 self moralOther H h 1 0.6292 
19-May-2018_14:34:11 7322 18 male R 6 4 12 self immoralOther H h 1 0.5808 
19-May-2018_14:34:13 7322 18 male R 6 4 13 self moralSelf J j 1 0.5381 
19-May-2018_14:34:15 7322 18 male R 6 4 14 self moralSelf J j 1 0.3951 
19-May-2018_14:34:16 7322 18 male R 6 4 15 self moralSelf J j 1 0.5034 
19-May-2018_14:34:18 7322 18 male R 6 4 16 self moralOther H h 1 0.5900 
19-May-2018_14:34:20 7322 18 male R 6 4 17 self moralSelf J j 1 0.4931 
19-May-2018_14:34:22 7322 18 male R 6 4 18 self immoralOther H h 1 0.5605 
19-May-2018_14:34:24 7322 18 male R 6 4 19 self immoralSelf J j 1 0.7036 
19-May-2018_14:34:26 7322 18 male R 6 4 20 self moralOther H h 1 0.6467 
19-May-2018_14:34:27 7322 18 male R 6 4 21 self immoralSelf J j 1 0.4915 
19-May-2018_14:34:29 7322 18 male R 6 4 22 self moralSelf J j 1 0.7400 
19-May-2018_14:34:31 7322 18 male R 6 4 23 self immoralOther H h 1 0.5453 
19-May-2018_14:34:33 7322 18 male R 6 4 24 self immoralSelf J j 1 0.4767 
19-May-2018_14:34:50 7322 18 male R 6 5 1 self moralSelf J j 1 0.6091 
19-May-2018_14:34:53 7322 18 male R 6 5 2 self immoralOther H h 1 0.9300 
19-May-2018_14:34:55 7322 18 male R 6 5 3 self moralSelf J j 1 0.7397 
19-May-2018_14:34:57 7322 18 male R 6 5 4 self moralSelf J j 1 0.6470 
19-May-2018_14:34:59 7322 18 male R 6 5 5 self immoralSelf J NA -1 1.0841 
19-May-2018_14:35:01 7322 18 male R 6 5 6 self immoralSelf J j 1 0.4910 
19-May-2018_14:35:03 7322 18 male R 6 5 7 self moralOther H h 1 0.9559 
19-May-2018_14:35:05 7322 18 male R 6 5 8 self immoralSelf J j 1 0.5941 
19-May-2018_14:35:07 7322 18 male R 6 5 9 self immoralOther H j 0 0.8042 
19-May-2018_14:35:10 7322 18 male R 6 5 10 self immoralSelf J j 1 0.9883 
19-May-2018_14:35:12 7322 18 male R 6 5 11 self immoralOther H h 1 0.5205 
19-May-2018_14:35:14 7322 18 male R 6 5 12 self immoralOther H NA -1 1.0841 
19-May-2018_14:35:16 7322 18 male R 6 5 13 self moralSelf J j 1 0.6863 
19-May-2018_14:35:18 7322 18 male R 6 5 14 self immoralOther H h 1 0.6238 
19-May-2018_14:35:20 7322 18 male R 6 5 15 self moralOther H h 1 0.7335 
19-May-2018_14:35:22 7322 18 male R 6 5 16 self immoralSelf J j 1 0.4851 
19-May-2018_14:35:24 7322 18 male R 6 5 17 self moralSelf J j 1 0.5158 
19-May-2018_14:35:25 7322 18 male R 6 5 18 self moralOther H h 1 0.4321 
19-May-2018_14:35:27 7322 18 male R 6 5 19 self immoralSelf J j 1 0.4821 
19-May-2018_14:35:29 7322 18 male R 6 5 20 self moralOther H h 1 0.4774 
19-May-2018_14:35:30 7322 18 male R 6 5 21 self moralSelf J j 1 0.5152 
19-May-2018_14:35:32 7322 18 male R 6 5 22 self immoralOther H h 1 0.5190 
19-May-2018_14:35:35 7322 18 male R 6 5 23 self moralOther H h 1 1.0329 
19-May-2018_14:35:37 7322 18 male R 6 5 24 self moralOther H h 1 0.5280 
