Date Sub Age Sex Hand Block Bin Trial Task Shape corrResp Resp ACC RT
16-May-2018_16:00:37 7317 24 female R 1 1 1 moral immoralSelf Y u 0 0.8160 
16-May-2018_16:00:39 7317 24 female R 1 1 2 moral moralOther U u 1 0.3424 
16-May-2018_16:00:40 7317 24 female R 1 1 3 moral moralOther U y 0 0.3585 
16-May-2018_16:00:42 7317 24 female R 1 1 4 moral immoralSelf Y u 0 0.1062 
16-May-2018_16:00:43 7317 24 female R 1 1 5 moral moralOther U u 1 0.2305 
16-May-2018_16:00:46 7317 24 female R 1 1 6 moral moralSelf U NA -1 1.0841 
16-May-2018_16:00:47 7317 24 female R 1 1 7 moral immoralSelf Y y 1 0.2260 
16-May-2018_16:00:49 7317 24 female R 1 1 8 moral moralSelf U u 1 0.2223 
16-May-2018_16:00:52 7317 24 female R 1 1 9 moral moralSelf U NA -1 1.0841 
16-May-2018_16:00:54 7317 24 female R 1 1 10 moral immoralOther Y NA -1 1.0841 
16-May-2018_16:00:56 7317 24 female R 1 1 11 moral immoralOther Y NA -1 1.0841 
16-May-2018_16:00:59 7317 24 female R 1 1 12 moral immoralOther Y NA -1 1.0841 
16-May-2018_16:01:01 7317 24 female R 1 1 13 moral moralSelf U NA -1 1.0841 
16-May-2018_16:01:03 7317 24 female R 1 1 14 moral immoralSelf Y NA -1 1.0841 
16-May-2018_16:01:05 7317 24 female R 1 1 15 moral moralSelf U NA -1 1.0841 
16-May-2018_16:01:08 7317 24 female R 1 1 16 moral immoralOther Y NA -1 1.0841 
16-May-2018_16:01:10 7317 24 female R 1 1 17 moral moralOther U NA -1 1.0841 
16-May-2018_16:01:13 7317 24 female R 1 1 18 moral moralSelf U NA -1 1.0841 
16-May-2018_16:01:15 7317 24 female R 1 1 19 moral moralOther U NA -1 1.0841 
16-May-2018_16:01:17 7317 24 female R 1 1 20 moral immoralOther Y NA -1 1.0841 
16-May-2018_16:01:20 7317 24 female R 1 1 21 moral immoralOther Y NA -1 1.0841 
16-May-2018_16:01:22 7317 24 female R 1 1 22 moral moralOther U NA -1 1.0841 
16-May-2018_16:01:24 7317 24 female R 1 1 23 moral immoralSelf Y NA -1 1.0841 
16-May-2018_16:01:27 7317 24 female R 1 1 24 moral immoralSelf Y NA -1 1.0841 
16-May-2018_16:01:29 7317 24 female R 1 2 1 moral moralOther U NA -1 1.0841 
16-May-2018_16:01:31 7317 24 female R 1 2 2 moral moralSelf U NA -1 1.0841 
16-May-2018_16:01:34 7317 24 female R 1 2 3 moral immoralOther Y NA -1 1.0841 
16-May-2018_16:01:36 7317 24 female R 1 2 4 moral moralSelf U NA -1 1.0841 
16-May-2018_16:01:38 7317 24 female R 1 2 5 moral moralSelf U NA -1 1.0841 
16-May-2018_16:01:41 7317 24 female R 1 2 6 moral immoralSelf Y NA -1 1.0841 
16-May-2018_16:01:44 7317 24 female R 1 2 7 moral immoralOther Y NA -1 1.0841 
16-May-2018_16:01:45 7317 24 female R 1 2 8 moral moralOther U u 1 0.7065 
16-May-2018_16:01:48 7317 24 female R 1 2 9 moral moralOther U u 1 0.8304 
16-May-2018_16:01:50 7317 24 female R 1 2 10 moral immoralSelf Y y 1 0.8365 
16-May-2018_16:01:52 7317 24 female R 1 2 11 moral immoralSelf Y y 1 1.0286 
16-May-2018_16:01:53 7317 24 female R 1 2 12 moral immoralSelf Y y 1 0.6301 
16-May-2018_16:01:55 7317 24 female R 1 2 13 moral immoralSelf Y y 1 0.6607 
16-May-2018_16:01:57 7317 24 female R 1 2 14 moral immoralOther Y y 1 0.4791 
16-May-2018_16:01:59 7317 24 female R 1 2 15 moral moralOther U u 1 0.7738 
16-May-2018_16:02:01 7317 24 female R 1 2 16 moral immoralOther Y y 1 0.7419 
16-May-2018_16:02:03 7317 24 female R 1 2 17 moral immoralOther Y y 1 0.6742 
16-May-2018_16:02:04 7317 24 female R 1 2 18 moral moralSelf U u 1 0.5383 
16-May-2018_16:02:06 7317 24 female R 1 2 19 moral moralSelf U u 1 0.8814 
16-May-2018_16:02:08 7317 24 female R 1 2 20 moral immoralSelf Y y 1 0.8157 
16-May-2018_16:02:10 7317 24 female R 1 2 21 moral moralSelf U u 1 0.7184 
16-May-2018_16:02:12 7317 24 female R 1 2 22 moral moralOther U u 1 0.9334 
16-May-2018_16:02:14 7317 24 female R 1 2 23 moral moralOther U u 1 0.7377 
16-May-2018_16:02:16 7317 24 female R 1 2 24 moral immoralOther Y y 1 0.8326 
16-May-2018_16:02:43 7317 24 female R 1 3 1 moral moralSelf U u 1 0.4890 
16-May-2018_16:02:45 7317 24 female R 1 3 2 moral immoralOther Y y 1 0.6594 
16-May-2018_16:02:47 7317 24 female R 1 3 3 moral moralOther U u 1 0.5499 
16-May-2018_16:02:48 7317 24 female R 1 3 4 moral immoralSelf Y y 1 0.6973 
16-May-2018_16:02:50 7317 24 female R 1 3 5 moral moralSelf U u 1 0.4013 
16-May-2018_16:02:52 7317 24 female R 1 3 6 moral immoralSelf Y y 1 0.7199 
16-May-2018_16:02:54 7317 24 female R 1 3 7 moral moralOther U u 1 0.5130 
16-May-2018_16:02:56 7317 24 female R 1 3 8 moral immoralOther Y y 1 0.7107 
16-May-2018_16:02:58 7317 24 female R 1 3 9 moral moralOther U u 1 0.4572 
16-May-2018_16:03:00 7317 24 female R 1 3 10 moral moralSelf U u 1 0.4087 
16-May-2018_16:03:02 7317 24 female R 1 3 11 moral immoralSelf Y y 1 0.6831 
16-May-2018_16:03:04 7317 24 female R 1 3 12 moral immoralOther Y y 1 0.8785 
16-May-2018_16:03:05 7317 24 female R 1 3 13 moral moralSelf U u 1 0.4466 
16-May-2018_16:03:07 7317 24 female R 1 3 14 moral moralSelf U u 1 0.4721 
16-May-2018_16:03:08 7317 24 female R 1 3 15 moral immoralSelf Y y 1 0.5159 
16-May-2018_16:03:10 7317 24 female R 1 3 16 moral immoralSelf Y y 1 0.7277 
16-May-2018_16:03:12 7317 24 female R 1 3 17 moral moralOther U u 1 0.5306 
16-May-2018_16:03:14 7317 24 female R 1 3 18 moral immoralOther Y y 1 0.6705 
16-May-2018_16:03:16 7317 24 female R 1 3 19 moral immoralOther Y y 1 0.7496 
16-May-2018_16:03:18 7317 24 female R 1 3 20 moral moralSelf U u 1 0.5007 
16-May-2018_16:03:20 7317 24 female R 1 3 21 moral moralOther U u 1 0.6171 
16-May-2018_16:03:22 7317 24 female R 1 3 22 moral immoralOther Y y 1 0.5861 
16-May-2018_16:03:23 7317 24 female R 1 3 23 moral immoralSelf Y y 1 0.6239 
16-May-2018_16:03:25 7317 24 female R 1 3 24 moral moralOther U u 1 0.5137 
16-May-2018_16:03:27 7317 24 female R 1 4 1 moral immoralOther Y y 1 0.7368 
16-May-2018_16:03:29 7317 24 female R 1 4 2 moral moralSelf U u 1 0.4960 
16-May-2018_16:03:31 7317 24 female R 1 4 3 moral moralSelf U u 1 0.5559 
16-May-2018_16:03:33 7317 24 female R 1 4 4 moral immoralOther Y y 1 0.6919 
16-May-2018_16:03:35 7317 24 female R 1 4 5 moral immoralSelf Y y 1 0.6172 
16-May-2018_16:03:37 7317 24 female R 1 4 6 moral moralOther U u 1 0.6582 
16-May-2018_16:03:39 7317 24 female R 1 4 7 moral immoralOther Y y 1 0.5802 
16-May-2018_16:03:41 7317 24 female R 1 4 8 moral immoralSelf Y y 1 0.6970 
16-May-2018_16:03:43 7317 24 female R 1 4 9 moral immoralSelf Y y 1 0.5845 
16-May-2018_16:03:45 7317 24 female R 1 4 10 moral moralSelf U u 1 0.5550 
16-May-2018_16:03:46 7317 24 female R 1 4 11 moral moralSelf U u 1 0.4789 
16-May-2018_16:03:48 7317 24 female R 1 4 12 moral immoralOther Y y 1 0.6610 
16-May-2018_16:03:50 7317 24 female R 1 4 13 moral moralOther U u 1 0.4635 
16-May-2018_16:03:52 7317 24 female R 1 4 14 moral immoralOther Y y 1 0.6051 
16-May-2018_16:03:54 7317 24 female R 1 4 15 moral immoralOther Y y 1 0.5779 
16-May-2018_16:03:55 7317 24 female R 1 4 16 moral moralOther U u 1 0.4453 
16-May-2018_16:03:57 7317 24 female R 1 4 17 moral moralOther U u 1 0.5122 
16-May-2018_16:03:59 7317 24 female R 1 4 18 moral immoralSelf Y y 1 0.5081 
16-May-2018_16:04:00 7317 24 female R 1 4 19 moral immoralSelf Y y 1 0.5566 
16-May-2018_16:04:02 7317 24 female R 1 4 20 moral immoralSelf Y y 1 0.5505 
16-May-2018_16:04:04 7317 24 female R 1 4 21 moral moralOther U u 1 0.3972 
16-May-2018_16:04:05 7317 24 female R 1 4 22 moral moralSelf U u 1 0.4255 
16-May-2018_16:04:07 7317 24 female R 1 4 23 moral moralSelf U u 1 0.4942 
16-May-2018_16:04:09 7317 24 female R 1 4 24 moral moralOther U u 1 0.5325 
16-May-2018_16:04:14 7317 24 female R 1 5 1 moral immoralSelf Y y 1 0.6234 
16-May-2018_16:04:16 7317 24 female R 1 5 2 moral moralOther U u 1 0.4597 
16-May-2018_16:04:18 7317 24 female R 1 5 3 moral moralSelf U u 1 0.5191 
16-May-2018_16:04:20 7317 24 female R 1 5 4 moral moralSelf U u 1 0.4161 
16-May-2018_16:04:21 7317 24 female R 1 5 5 moral moralOther U u 1 0.4021 
16-May-2018_16:04:23 7317 24 female R 1 5 6 moral moralSelf U u 1 0.5749 
16-May-2018_16:04:25 7317 24 female R 1 5 7 moral immoralSelf Y y 1 0.3542 
16-May-2018_16:04:27 7317 24 female R 1 5 8 moral moralSelf U u 1 0.4598 
16-May-2018_16:04:29 7317 24 female R 1 5 9 moral moralSelf U u 1 0.5299 
16-May-2018_16:04:31 7317 24 female R 1 5 10 moral immoralSelf Y y 1 0.5268 
16-May-2018_16:04:32 7317 24 female R 1 5 11 moral moralOther U u 1 0.5150 
16-May-2018_16:04:34 7317 24 female R 1 5 12 moral immoralOther Y y 1 0.7340 
16-May-2018_16:04:36 7317 24 female R 1 5 13 moral moralSelf U u 1 0.4729 
16-May-2018_16:04:37 7317 24 female R 1 5 14 moral immoralSelf Y y 1 0.5120 
16-May-2018_16:04:39 7317 24 female R 1 5 15 moral moralOther U u 1 0.4325 
16-May-2018_16:04:41 7317 24 female R 1 5 16 moral immoralOther Y y 1 0.6156 
16-May-2018_16:04:42 7317 24 female R 1 5 17 moral moralOther U u 1 0.4914 
16-May-2018_16:04:44 7317 24 female R 1 5 18 moral immoralSelf Y y 1 0.4585 
16-May-2018_16:04:46 7317 24 female R 1 5 19 moral immoralOther Y y 1 0.7237 
16-May-2018_16:04:48 7317 24 female R 1 5 20 moral immoralOther Y y 1 0.5297 
16-May-2018_16:04:50 7317 24 female R 1 5 21 moral immoralOther Y y 1 0.7261 
16-May-2018_16:04:52 7317 24 female R 1 5 22 moral moralOther U u 1 0.4683 
16-May-2018_16:04:54 7317 24 female R 1 5 23 moral immoralSelf Y y 1 0.6185 
16-May-2018_16:04:56 7317 24 female R 1 5 24 moral immoralOther Y y 1 0.8245 
Date Sub Age Sex Hand Block Bin Trial Task Shape corrResp Resp ACC RT
16-May-2018_16:07:56 7317 24 female R 2 1 1 self moralOther J j 1 0.4285 
16-May-2018_16:07:58 7317 24 female R 2 1 2 self moralSelf H h 1 0.5223 
16-May-2018_16:07:59 7317 24 female R 2 1 3 self moralOther J j 1 0.5002 
16-May-2018_16:08:01 7317 24 female R 2 1 4 self moralOther J j 1 0.4767 
16-May-2018_16:08:03 7317 24 female R 2 1 5 self immoralOther J j 1 0.5676 
16-May-2018_16:08:04 7317 24 female R 2 1 6 self moralOther J j 1 0.5182 
16-May-2018_16:08:06 7317 24 female R 2 1 7 self immoralOther J j 1 0.4953 
16-May-2018_16:08:07 7317 24 female R 2 1 8 self immoralOther J j 1 0.4281 
16-May-2018_16:08:09 7317 24 female R 2 1 9 self immoralSelf H h 1 0.6216 
16-May-2018_16:08:11 7317 24 female R 2 1 10 self immoralOther J j 1 0.5332 
16-May-2018_16:08:13 7317 24 female R 2 1 11 self immoralSelf H j 0 0.5628 
16-May-2018_16:08:15 7317 24 female R 2 1 12 self moralSelf H h 1 0.8355 
16-May-2018_16:08:17 7317 24 female R 2 1 13 self immoralOther J j 1 0.5330 
16-May-2018_16:08:19 7317 24 female R 2 1 14 self moralSelf H h 1 0.6393 
16-May-2018_16:08:21 7317 24 female R 2 1 15 self immoralSelf H h 1 0.7505 
16-May-2018_16:08:23 7317 24 female R 2 1 16 self immoralOther J j 1 0.5016 
16-May-2018_16:08:25 7317 24 female R 2 1 17 self immoralSelf H h 1 0.7530 
16-May-2018_16:08:27 7317 24 female R 2 1 18 self immoralSelf H h 1 0.5983 
16-May-2018_16:08:29 7317 24 female R 2 1 19 self immoralSelf H h 1 0.5790 
16-May-2018_16:08:30 7317 24 female R 2 1 20 self moralOther J j 1 0.7034 
16-May-2018_16:08:32 7317 24 female R 2 1 21 self moralSelf H h 1 0.8064 
16-May-2018_16:08:34 7317 24 female R 2 1 22 self moralSelf H h 1 0.6221 
16-May-2018_16:08:36 7317 24 female R 2 1 23 self moralSelf H h 1 0.6292 
16-May-2018_16:08:38 7317 24 female R 2 1 24 self moralOther J j 1 0.5163 
16-May-2018_16:08:40 7317 24 female R 2 2 1 self immoralSelf H h 1 0.5009 
16-May-2018_16:08:41 7317 24 female R 2 2 2 self moralSelf H h 1 0.5992 
16-May-2018_16:08:43 7317 24 female R 2 2 3 self moralSelf H h 1 0.6413 
16-May-2018_16:08:45 7317 24 female R 2 2 4 self moralSelf H h 1 0.5138 
16-May-2018_16:08:47 7317 24 female R 2 2 5 self moralOther J j 1 0.3761 
16-May-2018_16:08:48 7317 24 female R 2 2 6 self immoralOther J j 1 0.4132 
16-May-2018_16:08:50 7317 24 female R 2 2 7 self immoralOther J j 1 0.4980 
16-May-2018_16:08:52 7317 24 female R 2 2 8 self moralSelf H h 1 0.7405 
16-May-2018_16:08:54 7317 24 female R 2 2 9 self immoralSelf H h 1 0.5418 
16-May-2018_16:08:56 7317 24 female R 2 2 10 self immoralOther J j 1 0.6305 
16-May-2018_16:08:58 7317 24 female R 2 2 11 self immoralSelf H h 1 0.5139 
16-May-2018_16:09:00 7317 24 female R 2 2 12 self moralOther J j 1 0.4475 
16-May-2018_16:09:02 7317 24 female R 2 2 13 self moralOther J j 1 0.6858 
16-May-2018_16:09:03 7317 24 female R 2 2 14 self immoralSelf H h 1 0.4124 
16-May-2018_16:09:05 7317 24 female R 2 2 15 self immoralSelf H h 1 0.5532 
16-May-2018_16:09:06 7317 24 female R 2 2 16 self immoralOther J j 1 0.5236 
16-May-2018_16:09:08 7317 24 female R 2 2 17 self immoralOther J j 1 0.4522 
16-May-2018_16:09:10 7317 24 female R 2 2 18 self moralSelf H h 1 0.4908 
16-May-2018_16:09:12 7317 24 female R 2 2 19 self moralOther J j 1 0.5614 
16-May-2018_16:09:14 7317 24 female R 2 2 20 self moralOther J j 1 0.5986 
16-May-2018_16:09:16 7317 24 female R 2 2 21 self moralOther J j 1 0.4613 
16-May-2018_16:09:18 7317 24 female R 2 2 22 self immoralOther J j 1 0.5975 
16-May-2018_16:09:19 7317 24 female R 2 2 23 self immoralSelf H h 1 0.5664 
16-May-2018_16:09:21 7317 24 female R 2 2 24 self moralSelf H h 1 0.7148 
16-May-2018_16:09:33 7317 24 female R 2 3 1 self moralOther J j 1 0.5656 
16-May-2018_16:09:35 7317 24 female R 2 3 2 self moralOther J j 1 0.4532 
16-May-2018_16:09:37 7317 24 female R 2 3 3 self immoralSelf H h 1 0.5972 
16-May-2018_16:09:38 7317 24 female R 2 3 4 self immoralOther J j 1 0.4520 
16-May-2018_16:09:40 7317 24 female R 2 3 5 self immoralOther J j 1 0.4285 
16-May-2018_16:09:42 7317 24 female R 2 3 6 self immoralOther J j 1 0.3574 
16-May-2018_16:09:44 7317 24 female R 2 3 7 self moralSelf H h 1 0.7251 
16-May-2018_16:09:46 7317 24 female R 2 3 8 self moralOther J j 1 0.4574 
16-May-2018_16:09:48 7317 24 female R 2 3 9 self moralSelf H h 1 0.5685 
16-May-2018_16:09:50 7317 24 female R 2 3 10 self moralSelf H h 1 0.7790 
16-May-2018_16:09:51 7317 24 female R 2 3 11 self moralOther J j 1 0.3738 
16-May-2018_16:09:53 7317 24 female R 2 3 12 self immoralSelf H h 1 0.5616 
16-May-2018_16:09:55 7317 24 female R 2 3 13 self immoralOther J j 1 0.5778 
16-May-2018_16:09:57 7317 24 female R 2 3 14 self immoralSelf H h 1 0.5900 
16-May-2018_16:09:59 7317 24 female R 2 3 15 self immoralSelf H h 1 0.4828 
16-May-2018_16:10:00 7317 24 female R 2 3 16 self moralOther J h 0 0.4636 
16-May-2018_16:10:02 7317 24 female R 2 3 17 self immoralSelf H h 1 0.5079 
16-May-2018_16:10:05 7317 24 female R 2 3 18 self moralSelf H h 1 0.7956 
16-May-2018_16:10:06 7317 24 female R 2 3 19 self moralSelf H h 1 0.5128 
16-May-2018_16:10:08 7317 24 female R 2 3 20 self moralSelf H h 1 0.7228 
16-May-2018_16:10:10 7317 24 female R 2 3 21 self immoralSelf H h 1 0.5120 
16-May-2018_16:10:12 7317 24 female R 2 3 22 self moralOther J j 1 0.4452 
16-May-2018_16:10:13 7317 24 female R 2 3 23 self immoralOther J j 1 0.5319 
16-May-2018_16:10:15 7317 24 female R 2 3 24 self immoralOther J j 1 0.4919 
16-May-2018_16:10:17 7317 24 female R 2 4 1 self moralSelf H h 1 0.5721 
16-May-2018_16:10:19 7317 24 female R 2 4 2 self immoralSelf H h 1 0.6295 
16-May-2018_16:10:20 7317 24 female R 2 4 3 self immoralSelf H h 1 0.5694 
16-May-2018_16:10:22 7317 24 female R 2 4 4 self immoralSelf H h 1 0.4452 
16-May-2018_16:10:24 7317 24 female R 2 4 5 self moralSelf H h 1 0.5478 
16-May-2018_16:10:26 7317 24 female R 2 4 6 self immoralSelf H h 1 0.5795 
16-May-2018_16:10:27 7317 24 female R 2 4 7 self moralOther J j 1 0.3716 
16-May-2018_16:10:29 7317 24 female R 2 4 8 self immoralOther J j 1 0.4026 
16-May-2018_16:10:31 7317 24 female R 2 4 9 self moralOther J j 1 0.4395 
16-May-2018_16:10:32 7317 24 female R 2 4 10 self moralSelf H h 1 0.4391 
16-May-2018_16:10:34 7317 24 female R 2 4 11 self immoralSelf H h 1 0.5938 
16-May-2018_16:10:36 7317 24 female R 2 4 12 self immoralOther J j 1 0.6514 
16-May-2018_16:10:38 7317 24 female R 2 4 13 self moralSelf H h 1 0.5611 
16-May-2018_16:10:39 7317 24 female R 2 4 14 self immoralOther J j 1 0.6289 
16-May-2018_16:10:41 7317 24 female R 2 4 15 self moralOther J j 1 0.5659 
16-May-2018_16:10:43 7317 24 female R 2 4 16 self immoralSelf H h 1 0.4404 
16-May-2018_16:10:45 7317 24 female R 2 4 17 self moralOther J j 1 0.4715 
16-May-2018_16:10:47 7317 24 female R 2 4 18 self moralOther J j 1 0.5623 
16-May-2018_16:10:48 7317 24 female R 2 4 19 self moralSelf H h 1 0.5859 
16-May-2018_16:10:50 7317 24 female R 2 4 20 self immoralOther J j 1 0.4162 
16-May-2018_16:10:52 7317 24 female R 2 4 21 self moralSelf H h 1 0.6375 
16-May-2018_16:10:53 7317 24 female R 2 4 22 self immoralOther J j 1 0.4271 
16-May-2018_16:10:55 7317 24 female R 2 4 23 self immoralOther J j 1 0.4333 
16-May-2018_16:10:57 7317 24 female R 2 4 24 self moralOther J j 1 1.0104 
16-May-2018_16:11:04 7317 24 female R 2 5 1 self immoralSelf H h 1 0.6209 
16-May-2018_16:11:06 7317 24 female R 2 5 2 self moralOther J j 1 0.3946 
16-May-2018_16:11:08 7317 24 female R 2 5 3 self immoralSelf H h 1 0.5420 
16-May-2018_16:11:10 7317 24 female R 2 5 4 self immoralSelf H h 1 0.4852 
16-May-2018_16:11:11 7317 24 female R 2 5 5 self immoralSelf H h 1 0.4326 
16-May-2018_16:11:13 7317 24 female R 2 5 6 self moralOther J j 1 0.4243 
16-May-2018_16:11:15 7317 24 female R 2 5 7 self moralOther J j 1 0.4383 
16-May-2018_16:11:17 7317 24 female R 2 5 8 self moralSelf H h 1 0.4851 
16-May-2018_16:11:18 7317 24 female R 2 5 9 self immoralSelf H h 1 0.5457 
16-May-2018_16:11:20 7317 24 female R 2 5 10 self moralSelf H h 1 0.4075 
16-May-2018_16:11:22 7317 24 female R 2 5 11 self moralOther J h 0 0.3892 
16-May-2018_16:11:24 7317 24 female R 2 5 12 self moralSelf H h 1 0.7459 
16-May-2018_16:11:25 7317 24 female R 2 5 13 self moralSelf H h 1 0.4801 
16-May-2018_16:11:27 7317 24 female R 2 5 14 self moralOther J j 1 0.3960 
16-May-2018_16:11:29 7317 24 female R 2 5 15 self immoralOther J j 1 0.4982 
16-May-2018_16:11:31 7317 24 female R 2 5 16 self immoralOther J j 1 0.5228 
16-May-2018_16:11:32 7317 24 female R 2 5 17 self immoralOther J j 1 0.4894 
16-May-2018_16:11:34 7317 24 female R 2 5 18 self immoralOther J j 1 0.5084 
16-May-2018_16:11:36 7317 24 female R 2 5 19 self moralSelf H h 1 0.5733 
16-May-2018_16:11:38 7317 24 female R 2 5 20 self moralSelf H h 1 0.4411 
16-May-2018_16:11:40 7317 24 female R 2 5 21 self immoralSelf H h 1 0.6205 
16-May-2018_16:11:41 7317 24 female R 2 5 22 self moralOther J j 1 0.3834 
16-May-2018_16:11:43 7317 24 female R 2 5 23 self immoralOther J j 1 0.4883 
16-May-2018_16:11:45 7317 24 female R 2 5 24 self immoralOther J j 1 0.5595 
Date Sub Age Sex Hand Block Bin Trial Task Shape corrResp Resp ACC RT
16-May-2018_16:14:16 7317 24 female R 3 1 1 self immoralOther J j 1 0.5559 
16-May-2018_16:14:18 7317 24 female R 3 1 2 self immoralOther J j 1 0.5189 
16-May-2018_16:14:20 7317 24 female R 3 1 3 self moralOther J j 1 0.5346 
16-May-2018_16:14:21 7317 24 female R 3 1 4 self moralOther J j 1 0.4941 
16-May-2018_16:14:23 7317 24 female R 3 1 5 self moralOther J j 1 0.4622 
16-May-2018_16:14:25 7317 24 female R 3 1 6 self immoralSelf H h 1 0.6511 
16-May-2018_16:14:27 7317 24 female R 3 1 7 self moralSelf H h 1 0.4713 
16-May-2018_16:14:29 7317 24 female R 3 1 8 self immoralOther J j 1 0.6088 
16-May-2018_16:14:31 7317 24 female R 3 1 9 self moralOther J j 1 0.5862 
16-May-2018_16:14:32 7317 24 female R 3 1 10 self moralOther J j 1 0.4625 
16-May-2018_16:14:34 7317 24 female R 3 1 11 self immoralOther J j 1 0.5582 
16-May-2018_16:14:36 7317 24 female R 3 1 12 self immoralSelf H h 1 0.3662 
16-May-2018_16:14:38 7317 24 female R 3 1 13 self moralSelf H h 1 0.5767 
16-May-2018_16:14:39 7317 24 female R 3 1 14 self moralSelf H h 1 0.4098 
16-May-2018_16:14:41 7317 24 female R 3 1 15 self moralSelf H h 1 0.5933 
16-May-2018_16:14:43 7317 24 female R 3 1 16 self immoralOther J j 1 0.5444 
16-May-2018_16:14:45 7317 24 female R 3 1 17 self immoralSelf H h 1 0.5072 
16-May-2018_16:14:47 7317 24 female R 3 1 18 self immoralSelf H h 1 0.5715 
16-May-2018_16:14:49 7317 24 female R 3 1 19 self moralOther J j 1 0.4721 
16-May-2018_16:14:51 7317 24 female R 3 1 20 self immoralSelf H h 1 0.5104 
16-May-2018_16:14:53 7317 24 female R 3 1 21 self immoralSelf H h 1 0.6258 
16-May-2018_16:14:55 7317 24 female R 3 1 22 self moralSelf H h 1 0.5999 
16-May-2018_16:14:57 7317 24 female R 3 1 23 self moralSelf H h 1 0.5765 
16-May-2018_16:14:58 7317 24 female R 3 1 24 self immoralOther J j 1 0.5642 
16-May-2018_16:15:00 7317 24 female R 3 2 1 self moralOther J j 1 0.3959 
16-May-2018_16:15:02 7317 24 female R 3 2 2 self moralSelf H h 1 0.4967 
16-May-2018_16:15:04 7317 24 female R 3 2 3 self moralSelf H h 1 0.5556 
16-May-2018_16:15:06 7317 24 female R 3 2 4 self immoralOther J j 1 0.6153 
16-May-2018_16:15:07 7317 24 female R 3 2 5 self immoralSelf H h 1 0.5594 
16-May-2018_16:15:09 7317 24 female R 3 2 6 self moralSelf H h 1 0.5595 
16-May-2018_16:15:11 7317 24 female R 3 2 7 self moralOther J j 1 0.7597 
16-May-2018_16:15:13 7317 24 female R 3 2 8 self moralOther J j 1 0.4798 
16-May-2018_16:15:15 7317 24 female R 3 2 9 self immoralOther J j 1 0.3706 
16-May-2018_16:15:16 7317 24 female R 3 2 10 self immoralSelf H h 1 0.4273 
16-May-2018_16:15:18 7317 24 female R 3 2 11 self moralSelf H h 1 0.6022 
16-May-2018_16:15:19 7317 24 female R 3 2 12 self immoralOther J j 1 0.4955 
16-May-2018_16:15:21 7317 24 female R 3 2 13 self immoralOther J j 1 0.3944 
16-May-2018_16:15:23 7317 24 female R 3 2 14 self moralSelf H h 1 0.6194 
16-May-2018_16:15:25 7317 24 female R 3 2 15 self moralOther J j 1 0.8303 
16-May-2018_16:15:27 7317 24 female R 3 2 16 self immoralOther J j 1 0.4557 
16-May-2018_16:15:29 7317 24 female R 3 2 17 self moralOther J j 1 0.4324 
16-May-2018_16:15:31 7317 24 female R 3 2 18 self immoralSelf H h 1 0.5421 
16-May-2018_16:15:33 7317 24 female R 3 2 19 self moralOther J j 1 0.4866 
16-May-2018_16:15:34 7317 24 female R 3 2 20 self immoralOther J j 1 0.5220 
16-May-2018_16:15:36 7317 24 female R 3 2 21 self immoralSelf H h 1 0.5287 
16-May-2018_16:15:38 7317 24 female R 3 2 22 self immoralSelf H h 1 0.3975 
16-May-2018_16:15:40 7317 24 female R 3 2 23 self moralSelf H h 1 0.3444 
16-May-2018_16:15:42 7317 24 female R 3 2 24 self immoralSelf H h 1 0.4564 
16-May-2018_16:15:50 7317 24 female R 3 3 1 self moralOther J j 1 0.5522 
16-May-2018_16:15:52 7317 24 female R 3 3 2 self moralOther J j 1 0.5174 
16-May-2018_16:15:54 7317 24 female R 3 3 3 self immoralOther J j 1 0.4790 
16-May-2018_16:15:56 7317 24 female R 3 3 4 self immoralSelf H h 1 0.4954 
16-May-2018_16:15:57 7317 24 female R 3 3 5 self immoralOther J j 1 0.5660 
16-May-2018_16:15:59 7317 24 female R 3 3 6 self moralSelf H h 1 0.6793 
16-May-2018_16:16:01 7317 24 female R 3 3 7 self moralOther J j 1 0.4487 
16-May-2018_16:16:03 7317 24 female R 3 3 8 self moralSelf H h 1 0.6242 
16-May-2018_16:16:05 7317 24 female R 3 3 9 self moralSelf H h 1 0.8116 
16-May-2018_16:16:07 7317 24 female R 3 3 10 self immoralOther J j 1 0.5528 
16-May-2018_16:16:09 7317 24 female R 3 3 11 self immoralSelf H h 1 0.5891 
16-May-2018_16:16:11 7317 24 female R 3 3 12 self immoralSelf H h 1 0.5069 
16-May-2018_16:16:12 7317 24 female R 3 3 13 self immoralOther J j 1 0.4778 
16-May-2018_16:16:14 7317 24 female R 3 3 14 self immoralSelf H h 1 0.4840 
16-May-2018_16:16:16 7317 24 female R 3 3 15 self immoralOther J j 1 0.4782 
16-May-2018_16:16:18 7317 24 female R 3 3 16 self moralOther J h 0 1.0446 
16-May-2018_16:16:21 7317 24 female R 3 3 17 self immoralSelf H h 1 0.8673 
16-May-2018_16:16:22 7317 24 female R 3 3 18 self moralSelf H h 1 0.5624 
16-May-2018_16:16:24 7317 24 female R 3 3 19 self moralSelf H h 1 0.6213 
16-May-2018_16:16:26 7317 24 female R 3 3 20 self moralOther J j 1 0.3701 
16-May-2018_16:16:28 7317 24 female R 3 3 21 self immoralSelf H h 1 0.5438 
16-May-2018_16:16:30 7317 24 female R 3 3 22 self moralSelf H h 1 0.6949 
16-May-2018_16:16:31 7317 24 female R 3 3 23 self moralOther J j 1 0.3571 
16-May-2018_16:16:33 7317 24 female R 3 3 24 self immoralOther J j 1 0.3770 
16-May-2018_16:16:35 7317 24 female R 3 4 1 self moralSelf H h 1 0.5596 
16-May-2018_16:16:37 7317 24 female R 3 4 2 self immoralSelf H h 1 0.5973 
16-May-2018_16:16:38 7317 24 female R 3 4 3 self immoralOther J j 1 0.4973 
16-May-2018_16:16:40 7317 24 female R 3 4 4 self moralOther J j 1 0.4935 
16-May-2018_16:16:42 7317 24 female R 3 4 5 self immoralOther J j 1 0.4436 
16-May-2018_16:16:44 7317 24 female R 3 4 6 self moralOther J j 1 0.5199 
16-May-2018_16:16:45 7317 24 female R 3 4 7 self immoralSelf H h 1 0.4654 
16-May-2018_16:16:47 7317 24 female R 3 4 8 self immoralOther J j 1 0.4848 
16-May-2018_16:16:49 7317 24 female R 3 4 9 self moralSelf H h 1 0.5310 
16-May-2018_16:16:50 7317 24 female R 3 4 10 self moralSelf H h 1 0.5828 
16-May-2018_16:16:52 7317 24 female R 3 4 11 self moralOther J j 1 0.4709 
16-May-2018_16:16:54 7317 24 female R 3 4 12 self moralOther J j 1 0.3698 
16-May-2018_16:16:55 7317 24 female R 3 4 13 self moralSelf H h 1 0.5641 
16-May-2018_16:16:57 7317 24 female R 3 4 14 self moralSelf H h 1 0.5794 
16-May-2018_16:16:59 7317 24 female R 3 4 15 self immoralSelf H h 1 0.6740 
16-May-2018_16:17:01 7317 24 female R 3 4 16 self moralOther J j 1 0.5855 
16-May-2018_16:17:02 7317 24 female R 3 4 17 self immoralOther J j 1 0.3456 
16-May-2018_16:17:04 7317 24 female R 3 4 18 self moralSelf H h 1 0.5038 
16-May-2018_16:17:06 7317 24 female R 3 4 19 self immoralSelf H h 1 0.5524 
16-May-2018_16:17:08 7317 24 female R 3 4 20 self immoralSelf H h 1 0.4823 
16-May-2018_16:17:09 7317 24 female R 3 4 21 self immoralSelf H h 1 0.4208 
16-May-2018_16:17:11 7317 24 female R 3 4 22 self immoralOther J j 1 0.4579 
16-May-2018_16:17:12 7317 24 female R 3 4 23 self moralOther J j 1 0.3973 
16-May-2018_16:17:14 7317 24 female R 3 4 24 self immoralOther J j 1 0.4754 
16-May-2018_16:17:21 7317 24 female R 3 5 1 self moralSelf H h 1 0.6190 
16-May-2018_16:17:23 7317 24 female R 3 5 2 self moralSelf H h 1 0.5558 
16-May-2018_16:17:24 7317 24 female R 3 5 3 self immoralOther J j 1 0.4953 
16-May-2018_16:17:26 7317 24 female R 3 5 4 self moralSelf H h 1 0.5382 
16-May-2018_16:17:28 7317 24 female R 3 5 5 self moralOther J j 1 0.4534 
16-May-2018_16:17:30 7317 24 female R 3 5 6 self immoralSelf H h 1 0.5806 
16-May-2018_16:17:32 7317 24 female R 3 5 7 self moralOther J j 1 0.3496 
16-May-2018_16:17:34 7317 24 female R 3 5 8 self immoralSelf H h 1 0.4739 
16-May-2018_16:17:36 7317 24 female R 3 5 9 self moralSelf H h 1 0.6552 
16-May-2018_16:17:38 7317 24 female R 3 5 10 self immoralSelf H h 1 0.4821 
16-May-2018_16:17:40 7317 24 female R 3 5 11 self immoralOther J j 1 0.5616 
16-May-2018_16:17:42 7317 24 female R 3 5 12 self immoralOther J j 1 0.5896 
16-May-2018_16:17:44 7317 24 female R 3 5 13 self immoralSelf H h 1 0.5714 
16-May-2018_16:17:45 7317 24 female R 3 5 14 self moralOther J j 1 0.4735 
16-May-2018_16:17:47 7317 24 female R 3 5 15 self immoralOther J j 1 0.5230 
16-May-2018_16:17:49 7317 24 female R 3 5 16 self moralSelf H h 1 0.5103 
16-May-2018_16:17:51 7317 24 female R 3 5 17 self moralOther J j 1 0.4059 
16-May-2018_16:17:52 7317 24 female R 3 5 18 self moralOther J j 1 0.4705 
16-May-2018_16:17:54 7317 24 female R 3 5 19 self immoralOther J j 1 0.3617 
16-May-2018_16:17:56 7317 24 female R 3 5 20 self moralSelf H h 1 0.5021 
16-May-2018_16:17:57 7317 24 female R 3 5 21 self immoralSelf H h 1 0.3897 
16-May-2018_16:17:59 7317 24 female R 3 5 22 self immoralSelf H h 1 0.4024 
16-May-2018_16:18:00 7317 24 female R 3 5 23 self moralOther J j 1 0.3573 
16-May-2018_16:18:02 7317 24 female R 3 5 24 self immoralOther J j 1 0.5457 
Date Sub Age Sex Hand Block Bin Trial Task Shape corrResp Resp ACC RT
16-May-2018_16:20:53 7317 24 female R 4 1 1 moral immoralOther Y y 1 0.6430 
16-May-2018_16:20:55 7317 24 female R 4 1 2 moral immoralOther Y y 1 0.6620 
16-May-2018_16:20:57 7317 24 female R 4 1 3 moral immoralSelf Y u 0 1.0282 
16-May-2018_16:20:59 7317 24 female R 4 1 4 moral immoralOther Y y 1 0.6372 
16-May-2018_16:21:00 7317 24 female R 4 1 5 moral moralOther U u 1 0.6044 
16-May-2018_16:21:02 7317 24 female R 4 1 6 moral immoralSelf Y y 1 0.6026 
16-May-2018_16:21:04 7317 24 female R 4 1 7 moral moralSelf U u 1 0.5434 
16-May-2018_16:21:06 7317 24 female R 4 1 8 moral moralOther U u 1 0.5617 
16-May-2018_16:21:08 7317 24 female R 4 1 9 moral immoralSelf Y y 1 0.7068 
16-May-2018_16:21:10 7317 24 female R 4 1 10 moral moralOther U u 1 0.5455 
16-May-2018_16:21:12 7317 24 female R 4 1 11 moral immoralSelf Y y 1 0.5578 
16-May-2018_16:21:14 7317 24 female R 4 1 12 moral moralOther U u 1 0.6468 
16-May-2018_16:21:16 7317 24 female R 4 1 13 moral moralSelf U u 1 0.5621 
16-May-2018_16:21:17 7317 24 female R 4 1 14 moral moralOther U u 1 0.4597 
16-May-2018_16:21:19 7317 24 female R 4 1 15 moral moralSelf U u 1 0.5345 
16-May-2018_16:21:20 7317 24 female R 4 1 16 moral immoralSelf Y y 1 0.3858 
16-May-2018_16:21:22 7317 24 female R 4 1 17 moral immoralSelf Y y 1 0.4927 
16-May-2018_16:21:24 7317 24 female R 4 1 18 moral moralSelf U u 1 0.6410 
16-May-2018_16:21:26 7317 24 female R 4 1 19 moral immoralOther Y u 0 0.5201 
16-May-2018_16:21:28 7317 24 female R 4 1 20 moral moralSelf U y 0 1.0388 
16-May-2018_16:21:30 7317 24 female R 4 1 21 moral immoralOther Y y 1 0.7062 
16-May-2018_16:21:32 7317 24 female R 4 1 22 moral immoralOther Y y 1 0.4903 
16-May-2018_16:21:33 7317 24 female R 4 1 23 moral moralSelf U u 1 0.4814 
16-May-2018_16:21:35 7317 24 female R 4 1 24 moral moralOther U u 1 0.4171 
16-May-2018_16:21:37 7317 24 female R 4 2 1 moral immoralSelf Y y 1 0.5695 
16-May-2018_16:21:38 7317 24 female R 4 2 2 moral moralOther U u 1 0.4496 
16-May-2018_16:21:40 7317 24 female R 4 2 3 moral moralSelf U u 1 0.4416 
16-May-2018_16:21:42 7317 24 female R 4 2 4 moral immoralOther Y y 1 0.5895 
16-May-2018_16:21:44 7317 24 female R 4 2 5 moral immoralSelf Y y 1 0.8291 
16-May-2018_16:21:46 7317 24 female R 4 2 6 moral immoralOther Y u 0 0.5398 
16-May-2018_16:21:48 7317 24 female R 4 2 7 moral immoralSelf Y y 1 0.7158 
16-May-2018_16:21:50 7317 24 female R 4 2 8 moral moralOther U u 1 0.5452 
16-May-2018_16:21:51 7317 24 female R 4 2 9 moral moralOther U u 1 0.4685 
16-May-2018_16:21:53 7317 24 female R 4 2 10 moral immoralOther Y y 1 0.6511 
16-May-2018_16:21:55 7317 24 female R 4 2 11 moral immoralOther Y y 1 0.7778 
16-May-2018_16:21:57 7317 24 female R 4 2 12 moral immoralSelf Y y 1 0.6057 
16-May-2018_16:21:59 7317 24 female R 4 2 13 moral moralOther U u 1 0.4415 
16-May-2018_16:22:01 7317 24 female R 4 2 14 moral immoralSelf Y y 1 0.6119 
16-May-2018_16:22:02 7317 24 female R 4 2 15 moral immoralSelf Y y 1 0.4849 
16-May-2018_16:22:04 7317 24 female R 4 2 16 moral moralSelf U u 1 0.5424 
16-May-2018_16:22:06 7317 24 female R 4 2 17 moral moralSelf U u 1 0.7143 
16-May-2018_16:22:08 7317 24 female R 4 2 18 moral moralSelf U u 1 0.4587 
16-May-2018_16:22:10 7317 24 female R 4 2 19 moral moralSelf U u 1 0.4697 
16-May-2018_16:22:12 7317 24 female R 4 2 20 moral immoralOther Y y 1 0.7045 
16-May-2018_16:22:13 7317 24 female R 4 2 21 moral moralOther U u 1 0.5414 
16-May-2018_16:22:15 7317 24 female R 4 2 22 moral moralOther U u 1 0.4742 
16-May-2018_16:22:17 7317 24 female R 4 2 23 moral moralSelf U u 1 0.9095 
16-May-2018_16:22:19 7317 24 female R 4 2 24 moral immoralOther Y y 1 0.6413 
16-May-2018_16:22:24 7317 24 female R 4 3 1 moral immoralOther Y y 1 0.6048 
16-May-2018_16:22:26 7317 24 female R 4 3 2 moral moralSelf U u 1 0.5569 
16-May-2018_16:22:27 7317 24 female R 4 3 3 moral immoralSelf Y y 1 0.5244 
16-May-2018_16:22:30 7317 24 female R 4 3 4 moral immoralOther Y y 1 0.7457 
16-May-2018_16:22:31 7317 24 female R 4 3 5 moral moralSelf U u 1 0.4898 
16-May-2018_16:22:33 7317 24 female R 4 3 6 moral moralOther U u 1 0.3868 
16-May-2018_16:22:35 7317 24 female R 4 3 7 moral moralSelf U u 1 0.4786 
16-May-2018_16:22:36 7317 24 female R 4 3 8 moral immoralOther Y y 1 0.5149 
16-May-2018_16:22:38 7317 24 female R 4 3 9 moral immoralSelf Y y 1 0.6881 
16-May-2018_16:22:40 7317 24 female R 4 3 10 moral immoralOther Y y 1 0.6940 
16-May-2018_16:22:42 7317 24 female R 4 3 11 moral immoralOther Y y 1 0.5006 
16-May-2018_16:22:44 7317 24 female R 4 3 12 moral immoralSelf Y y 1 0.4135 
16-May-2018_16:22:45 7317 24 female R 4 3 13 moral immoralSelf Y y 1 0.4324 
16-May-2018_16:22:47 7317 24 female R 4 3 14 moral immoralSelf Y y 1 0.4490 
16-May-2018_16:22:49 7317 24 female R 4 3 15 moral moralOther U u 1 0.5682 
16-May-2018_16:22:51 7317 24 female R 4 3 16 moral immoralOther Y y 1 0.5956 
16-May-2018_16:22:53 7317 24 female R 4 3 17 moral moralSelf U u 1 0.5462 
16-May-2018_16:22:55 7317 24 female R 4 3 18 moral moralOther U u 1 0.4221 
16-May-2018_16:22:57 7317 24 female R 4 3 19 moral moralSelf U u 1 0.6427 
16-May-2018_16:22:58 7317 24 female R 4 3 20 moral immoralSelf Y y 1 0.5045 
16-May-2018_16:23:00 7317 24 female R 4 3 21 moral moralOther U u 1 0.5959 
16-May-2018_16:23:02 7317 24 female R 4 3 22 moral moralSelf U u 1 0.3695 
16-May-2018_16:23:03 7317 24 female R 4 3 23 moral moralOther U u 1 0.4271 
16-May-2018_16:23:05 7317 24 female R 4 3 24 moral moralOther U u 1 0.4252 
16-May-2018_16:23:06 7317 24 female R 4 4 1 moral moralOther U u 1 0.3655 
16-May-2018_16:23:08 7317 24 female R 4 4 2 moral moralSelf U u 1 0.4531 
16-May-2018_16:23:10 7317 24 female R 4 4 3 moral moralOther U u 1 0.3454 
16-May-2018_16:23:12 7317 24 female R 4 4 4 moral immoralSelf Y y 1 0.5172 
16-May-2018_16:23:13 7317 24 female R 4 4 5 moral moralSelf U u 1 0.4675 
16-May-2018_16:23:15 7317 24 female R 4 4 6 moral moralOther U u 1 0.3493 
16-May-2018_16:23:17 7317 24 female R 4 4 7 moral moralSelf U u 1 0.4568 
16-May-2018_16:23:18 7317 24 female R 4 4 8 moral moralOther U u 1 0.3899 
16-May-2018_16:23:20 7317 24 female R 4 4 9 moral immoralOther Y y 1 0.6973 
16-May-2018_16:23:22 7317 24 female R 4 4 10 moral immoralSelf Y y 1 0.6174 
16-May-2018_16:23:24 7317 24 female R 4 4 11 moral moralOther U u 1 0.5733 
16-May-2018_16:23:26 7317 24 female R 4 4 12 moral moralSelf U u 1 0.5253 
16-May-2018_16:23:28 7317 24 female R 4 4 13 moral immoralSelf Y y 1 0.5728 
16-May-2018_16:23:30 7317 24 female R 4 4 14 moral moralSelf U u 1 0.7599 
16-May-2018_16:23:32 7317 24 female R 4 4 15 moral immoralOther Y y 1 0.6696 
16-May-2018_16:23:33 7317 24 female R 4 4 16 moral immoralSelf Y y 1 0.7120 
16-May-2018_16:23:36 7317 24 female R 4 4 17 moral immoralOther Y y 1 0.8395 
16-May-2018_16:23:38 7317 24 female R 4 4 18 moral immoralOther Y y 1 0.7385 
16-May-2018_16:23:39 7317 24 female R 4 4 19 moral moralSelf U u 1 0.4185 
16-May-2018_16:23:41 7317 24 female R 4 4 20 moral immoralSelf Y y 1 0.6633 
16-May-2018_16:23:42 7317 24 female R 4 4 21 moral immoralOther Y y 1 0.3933 
16-May-2018_16:23:44 7317 24 female R 4 4 22 moral immoralOther Y y 1 0.4427 
16-May-2018_16:23:46 7317 24 female R 4 4 23 moral moralOther U u 1 0.4847 
16-May-2018_16:23:48 7317 24 female R 4 4 24 moral immoralSelf Y y 1 0.6513 
16-May-2018_16:23:52 7317 24 female R 4 5 1 moral moralSelf U u 1 0.5070 
16-May-2018_16:23:53 7317 24 female R 4 5 2 moral moralOther U u 1 0.5043 
16-May-2018_16:23:55 7317 24 female R 4 5 3 moral moralOther U u 1 0.4544 
16-May-2018_16:23:57 7317 24 female R 4 5 4 moral immoralOther Y y 1 0.6244 
16-May-2018_16:23:58 7317 24 female R 4 5 5 moral immoralSelf Y y 1 0.6419 
16-May-2018_16:24:00 7317 24 female R 4 5 6 moral moralSelf U u 1 0.5714 
16-May-2018_16:24:02 7317 24 female R 4 5 7 moral immoralOther Y y 1 0.5546 
16-May-2018_16:24:04 7317 24 female R 4 5 8 moral moralSelf U u 1 0.6624 
16-May-2018_16:24:06 7317 24 female R 4 5 9 moral immoralOther Y y 1 0.5974 
16-May-2018_16:24:08 7317 24 female R 4 5 10 moral immoralOther Y y 1 0.4733 
16-May-2018_16:24:10 7317 24 female R 4 5 11 moral moralOther U u 1 0.4724 
16-May-2018_16:24:11 7317 24 female R 4 5 12 moral moralOther U u 1 0.4834 
16-May-2018_16:24:13 7317 24 female R 4 5 13 moral moralSelf U u 1 0.6797 
16-May-2018_16:24:15 7317 24 female R 4 5 14 moral immoralSelf Y y 1 0.5202 
16-May-2018_16:24:17 7317 24 female R 4 5 15 moral moralSelf U u 1 0.6144 
16-May-2018_16:24:19 7317 24 female R 4 5 16 moral immoralSelf Y y 1 0.4649 
16-May-2018_16:24:21 7317 24 female R 4 5 17 moral immoralSelf Y y 1 0.5378 
16-May-2018_16:24:23 7317 24 female R 4 5 18 moral immoralOther Y NA -1 1.0841 
16-May-2018_16:24:25 7317 24 female R 4 5 19 moral immoralSelf Y y 1 0.4593 
16-May-2018_16:24:26 7317 24 female R 4 5 20 moral immoralSelf Y y 1 0.4910 
16-May-2018_16:24:28 7317 24 female R 4 5 21 moral moralSelf U u 1 0.5814 
16-May-2018_16:24:30 7317 24 female R 4 5 22 moral moralOther U u 1 0.4126 
16-May-2018_16:24:32 7317 24 female R 4 5 23 moral moralOther U u 1 0.7397 
16-May-2018_16:24:33 7317 24 female R 4 5 24 moral immoralOther Y y 1 0.5957 
Date Sub Age Sex Hand Block Bin Trial Task Shape corrResp Resp ACC RT
16-May-2018_16:27:02 7317 24 female R 5 1 1 self immoralSelf H h 1 0.6028 
16-May-2018_16:27:04 7317 24 female R 5 1 2 self moralOther J j 1 0.6086 
16-May-2018_16:27:06 7317 24 female R 5 1 3 self immoralOther J j 1 0.7344 
16-May-2018_16:27:08 7317 24 female R 5 1 4 self moralOther J j 1 0.4972 
16-May-2018_16:27:10 7317 24 female R 5 1 5 self moralSelf H h 1 0.5359 
16-May-2018_16:27:12 7317 24 female R 5 1 6 self moralSelf H h 1 0.9713 
16-May-2018_16:27:14 7317 24 female R 5 1 7 self immoralOther J j 1 0.5389 
16-May-2018_16:27:16 7317 24 female R 5 1 8 self immoralOther J j 1 0.4255 
16-May-2018_16:27:18 7317 24 female R 5 1 9 self immoralOther J j 1 0.5042 
16-May-2018_16:27:19 7317 24 female R 5 1 10 self immoralSelf H h 1 0.5199 
16-May-2018_16:27:21 7317 24 female R 5 1 11 self moralSelf H h 1 0.9067 
16-May-2018_16:27:23 7317 24 female R 5 1 12 self moralSelf H h 1 0.5312 
16-May-2018_16:27:25 7317 24 female R 5 1 13 self moralOther J j 1 0.4575 
16-May-2018_16:27:26 7317 24 female R 5 1 14 self immoralSelf H h 1 0.5281 
16-May-2018_16:27:28 7317 24 female R 5 1 15 self moralSelf H j 0 0.5428 
16-May-2018_16:27:30 7317 24 female R 5 1 16 self moralOther J j 1 0.5132 
16-May-2018_16:27:32 7317 24 female R 5 1 17 self immoralOther J j 1 0.3952 
16-May-2018_16:27:34 7317 24 female R 5 1 18 self moralOther J j 1 0.5994 
16-May-2018_16:27:35 7317 24 female R 5 1 19 self immoralSelf H h 1 0.4772 
16-May-2018_16:27:37 7317 24 female R 5 1 20 self immoralSelf H h 1 0.5600 
16-May-2018_16:27:39 7317 24 female R 5 1 21 self immoralSelf H h 1 0.4711 
16-May-2018_16:27:41 7317 24 female R 5 1 22 self moralSelf H h 1 0.6100 
16-May-2018_16:27:42 7317 24 female R 5 1 23 self immoralOther J j 1 0.4770 
16-May-2018_16:27:44 7317 24 female R 5 1 24 self moralOther J j 1 0.4103 
16-May-2018_16:27:45 7317 24 female R 5 2 1 self immoralSelf H h 1 0.4183 
16-May-2018_16:27:47 7317 24 female R 5 2 2 self immoralSelf H h 1 0.4113 
16-May-2018_16:27:49 7317 24 female R 5 2 3 self moralOther J j 1 0.3915 
16-May-2018_16:27:50 7317 24 female R 5 2 4 self moralOther J j 1 0.5154 
16-May-2018_16:27:52 7317 24 female R 5 2 5 self immoralOther J j 1 0.3836 
16-May-2018_16:27:54 7317 24 female R 5 2 6 self immoralOther J j 1 0.3688 
16-May-2018_16:27:55 7317 24 female R 5 2 7 self immoralOther J j 1 0.4116 
16-May-2018_16:27:57 7317 24 female R 5 2 8 self moralSelf H h 1 0.5914 
16-May-2018_16:27:59 7317 24 female R 5 2 9 self moralOther J j 1 0.8936 
16-May-2018_16:28:01 7317 24 female R 5 2 10 self immoralSelf H h 1 0.5115 
16-May-2018_16:28:03 7317 24 female R 5 2 11 self moralOther J j 1 0.6787 
16-May-2018_16:28:05 7317 24 female R 5 2 12 self immoralOther J j 1 0.4260 
16-May-2018_16:28:06 7317 24 female R 5 2 13 self moralSelf H h 1 0.6845 
16-May-2018_16:28:08 7317 24 female R 5 2 14 self immoralOther J j 1 0.4411 
16-May-2018_16:28:10 7317 24 female R 5 2 15 self moralSelf H h 1 0.7572 
16-May-2018_16:28:12 7317 24 female R 5 2 16 self immoralOther J j 1 0.3698 
16-May-2018_16:28:13 7317 24 female R 5 2 17 self moralOther J j 1 0.3586 
16-May-2018_16:28:15 7317 24 female R 5 2 18 self immoralSelf H h 1 0.3733 
16-May-2018_16:28:17 7317 24 female R 5 2 19 self immoralSelf H h 1 0.6143 
16-May-2018_16:28:19 7317 24 female R 5 2 20 self moralSelf H h 1 0.5701 
16-May-2018_16:28:21 7317 24 female R 5 2 21 self immoralSelf H h 1 0.5613 
16-May-2018_16:28:23 7317 24 female R 5 2 22 self moralSelf H h 1 0.5486 
16-May-2018_16:28:25 7317 24 female R 5 2 23 self moralSelf H h 1 0.5821 
16-May-2018_16:28:26 7317 24 female R 5 2 24 self moralOther J j 1 0.5272 
16-May-2018_16:28:33 7317 24 female R 5 3 1 self moralSelf H h 1 0.6008 
16-May-2018_16:28:35 7317 24 female R 5 3 2 self moralOther J j 1 0.5307 
16-May-2018_16:28:36 7317 24 female R 5 3 3 self moralOther J j 1 0.5138 
16-May-2018_16:28:38 7317 24 female R 5 3 4 self immoralSelf H h 1 0.4622 
16-May-2018_16:28:40 7317 24 female R 5 3 5 self immoralSelf H h 1 0.4971 
16-May-2018_16:28:42 7317 24 female R 5 3 6 self immoralOther J j 1 0.5160 
16-May-2018_16:28:44 7317 24 female R 5 3 7 self immoralOther J j 1 0.3598 
16-May-2018_16:28:45 7317 24 female R 5 3 8 self immoralOther J j 1 0.3313 
16-May-2018_16:28:47 7317 24 female R 5 3 9 self immoralOther J j 1 0.3467 
16-May-2018_16:28:49 7317 24 female R 5 3 10 self immoralOther J j 1 0.3981 
16-May-2018_16:28:51 7317 24 female R 5 3 11 self moralSelf H h 1 0.4537 
16-May-2018_16:28:53 7317 24 female R 5 3 12 self moralSelf H h 1 0.9009 
16-May-2018_16:28:54 7317 24 female R 5 3 13 self moralOther J j 1 0.3579 
16-May-2018_16:28:56 7317 24 female R 5 3 14 self moralOther J j 1 0.5418 
16-May-2018_16:28:58 7317 24 female R 5 3 15 self immoralSelf H h 1 0.5887 
16-May-2018_16:29:00 7317 24 female R 5 3 16 self moralSelf H j 0 0.6890 
16-May-2018_16:29:02 7317 24 female R 5 3 17 self moralOther J j 1 0.3920 
16-May-2018_16:29:04 7317 24 female R 5 3 18 self immoralSelf H h 1 0.5394 
16-May-2018_16:29:06 7317 24 female R 5 3 19 self immoralOther J j 1 0.4906 
16-May-2018_16:29:07 7317 24 female R 5 3 20 self moralSelf H h 1 0.4938 
16-May-2018_16:29:09 7317 24 female R 5 3 21 self moralOther J j 1 0.4488 
16-May-2018_16:29:11 7317 24 female R 5 3 22 self immoralSelf H h 1 0.5143 
16-May-2018_16:29:13 7317 24 female R 5 3 23 self immoralSelf H h 1 0.6504 
16-May-2018_16:29:15 7317 24 female R 5 3 24 self moralSelf H h 1 0.6442 
16-May-2018_16:29:17 7317 24 female R 5 4 1 self immoralSelf H h 1 0.5526 
16-May-2018_16:29:19 7317 24 female R 5 4 2 self moralSelf H h 1 0.6408 
16-May-2018_16:29:20 7317 24 female R 5 4 3 self immoralOther J j 1 0.4305 
16-May-2018_16:29:22 7317 24 female R 5 4 4 self moralSelf H h 1 0.6196 
16-May-2018_16:29:24 7317 24 female R 5 4 5 self immoralOther J j 1 0.4451 
16-May-2018_16:29:25 7317 24 female R 5 4 6 self immoralSelf H h 1 0.4479 
16-May-2018_16:29:27 7317 24 female R 5 4 7 self immoralOther J h 0 0.4547 
16-May-2018_16:29:29 7317 24 female R 5 4 8 self moralOther J j 1 0.5598 
16-May-2018_16:29:31 7317 24 female R 5 4 9 self moralOther J j 1 0.4774 
16-May-2018_16:29:32 7317 24 female R 5 4 10 self immoralSelf H h 1 0.3810 
16-May-2018_16:29:34 7317 24 female R 5 4 11 self immoralOther J j 1 0.6295 
16-May-2018_16:29:36 7317 24 female R 5 4 12 self moralSelf H h 1 0.5750 
16-May-2018_16:29:38 7317 24 female R 5 4 13 self immoralSelf H h 1 0.5054 
16-May-2018_16:29:40 7317 24 female R 5 4 14 self immoralSelf H h 1 0.5154 
16-May-2018_16:29:41 7317 24 female R 5 4 15 self moralOther J j 1 0.5215 
16-May-2018_16:29:43 7317 24 female R 5 4 16 self moralOther J j 1 0.4547 
16-May-2018_16:29:45 7317 24 female R 5 4 17 self moralSelf H h 1 0.5377 
16-May-2018_16:29:47 7317 24 female R 5 4 18 self immoralSelf H h 1 0.6676 
16-May-2018_16:29:49 7317 24 female R 5 4 19 self moralSelf H h 1 0.9032 
16-May-2018_16:29:51 7317 24 female R 5 4 20 self moralSelf H h 1 0.4372 
16-May-2018_16:29:52 7317 24 female R 5 4 21 self moralOther J j 1 0.4378 
16-May-2018_16:29:54 7317 24 female R 5 4 22 self immoralOther J j 1 0.3018 
16-May-2018_16:29:56 7317 24 female R 5 4 23 self moralOther J j 1 0.5391 
16-May-2018_16:29:57 7317 24 female R 5 4 24 self immoralOther J j 1 0.3463 
16-May-2018_16:30:01 7317 24 female R 5 5 1 self moralSelf H h 1 0.5868 
16-May-2018_16:30:03 7317 24 female R 5 5 2 self moralSelf H h 1 0.4753 
16-May-2018_16:30:04 7317 24 female R 5 5 3 self moralSelf H h 1 0.3101 
16-May-2018_16:30:06 7317 24 female R 5 5 4 self moralOther J j 1 0.4981 
16-May-2018_16:30:08 7317 24 female R 5 5 5 self moralOther J j 1 0.4930 
16-May-2018_16:30:10 7317 24 female R 5 5 6 self moralOther J j 1 0.3339 
16-May-2018_16:30:12 7317 24 female R 5 5 7 self immoralSelf H h 1 0.3608 
16-May-2018_16:30:14 7317 24 female R 5 5 8 self moralOther J j 1 0.6456 
16-May-2018_16:30:15 7317 24 female R 5 5 9 self immoralOther J j 1 0.5045 
16-May-2018_16:30:17 7317 24 female R 5 5 10 self moralSelf H h 1 0.6397 
16-May-2018_16:30:19 7317 24 female R 5 5 11 self immoralSelf H h 1 0.4581 
16-May-2018_16:30:21 7317 24 female R 5 5 12 self immoralSelf H h 1 0.5263 
16-May-2018_16:30:22 7317 24 female R 5 5 13 self immoralOther J j 1 0.4903 
16-May-2018_16:30:24 7317 24 female R 5 5 14 self immoralOther J j 1 0.3830 
16-May-2018_16:30:26 7317 24 female R 5 5 15 self immoralOther J j 1 0.4010 
16-May-2018_16:30:27 7317 24 female R 5 5 16 self moralSelf H h 1 0.5874 
16-May-2018_16:30:29 7317 24 female R 5 5 17 self moralOther J j 1 0.3988 
16-May-2018_16:30:31 7317 24 female R 5 5 18 self moralSelf H h 1 0.6041 
16-May-2018_16:30:33 7317 24 female R 5 5 19 self immoralSelf H h 1 0.6176 
16-May-2018_16:30:35 7317 24 female R 5 5 20 self immoralSelf H h 1 0.4795 
16-May-2018_16:30:36 7317 24 female R 5 5 21 self immoralOther J j 1 0.6150 
16-May-2018_16:30:38 7317 24 female R 5 5 22 self moralOther J j 1 0.4932 
16-May-2018_16:30:40 7317 24 female R 5 5 23 self immoralSelf H h 1 0.5450 
16-May-2018_16:30:41 7317 24 female R 5 5 24 self immoralOther J j 1 0.5338 
Date Sub Age Sex Hand Block Bin Trial Task Shape corrResp Resp ACC RT
16-May-2018_16:33:16 7317 24 female R 6 1 1 moral immoralSelf Y y 1 0.5642 
16-May-2018_16:33:18 7317 24 female R 6 1 2 moral moralOther U u 1 0.5800 
16-May-2018_16:33:20 7317 24 female R 6 1 3 moral immoralOther Y y 1 0.6016 
16-May-2018_16:33:22 7317 24 female R 6 1 4 moral moralSelf U u 1 0.8045 
16-May-2018_16:33:24 7317 24 female R 6 1 5 moral moralOther U u 1 0.4714 
16-May-2018_16:33:26 7317 24 female R 6 1 6 moral immoralOther Y y 1 0.4989 
16-May-2018_16:33:28 7317 24 female R 6 1 7 moral moralOther U u 1 0.5798 
16-May-2018_16:33:30 7317 24 female R 6 1 8 moral moralSelf U u 1 0.7347 
16-May-2018_16:33:32 7317 24 female R 6 1 9 moral moralSelf U u 1 0.6030 
16-May-2018_16:33:33 7317 24 female R 6 1 10 moral moralSelf U u 1 0.4153 
16-May-2018_16:33:35 7317 24 female R 6 1 11 moral moralOther U u 1 0.6648 
16-May-2018_16:33:37 7317 24 female R 6 1 12 moral immoralOther Y y 1 0.6502 
16-May-2018_16:33:39 7317 24 female R 6 1 13 moral immoralSelf Y y 1 0.4386 
16-May-2018_16:33:41 7317 24 female R 6 1 14 moral moralSelf U u 1 0.5493 
16-May-2018_16:33:43 7317 24 female R 6 1 15 moral immoralSelf Y y 1 0.6491 
16-May-2018_16:33:44 7317 24 female R 6 1 16 moral immoralSelf Y y 1 0.5371 
16-May-2018_16:33:47 7317 24 female R 6 1 17 moral immoralOther Y y 1 1.0370 
16-May-2018_16:33:48 7317 24 female R 6 1 18 moral moralSelf U u 1 0.6319 
16-May-2018_16:33:50 7317 24 female R 6 1 19 moral immoralSelf Y y 1 0.9026 
16-May-2018_16:33:52 7317 24 female R 6 1 20 moral immoralOther Y y 1 0.8538 
16-May-2018_16:33:54 7317 24 female R 6 1 21 moral immoralOther Y y 1 0.6769 
16-May-2018_16:33:56 7317 24 female R 6 1 22 moral immoralSelf Y y 1 0.6054 
16-May-2018_16:33:58 7317 24 female R 6 1 23 moral moralOther U u 1 0.5495 
16-May-2018_16:34:00 7317 24 female R 6 1 24 moral moralOther U u 1 0.4799 
16-May-2018_16:34:02 7317 24 female R 6 2 1 moral immoralOther Y y 1 0.5745 
16-May-2018_16:34:04 7317 24 female R 6 2 2 moral immoralOther Y y 1 0.5393 
16-May-2018_16:34:06 7317 24 female R 6 2 3 moral moralOther U u 1 0.5211 
16-May-2018_16:34:07 7317 24 female R 6 2 4 moral immoralSelf Y y 1 0.5973 
16-May-2018_16:34:09 7317 24 female R 6 2 5 moral moralOther U u 1 0.4999 
16-May-2018_16:34:11 7317 24 female R 6 2 6 moral immoralSelf Y y 1 0.5439 
16-May-2018_16:34:13 7317 24 female R 6 2 7 moral immoralSelf Y y 1 0.6753 
16-May-2018_16:34:15 7317 24 female R 6 2 8 moral moralSelf U NA -1 1.0841 
16-May-2018_16:34:17 7317 24 female R 6 2 9 moral moralSelf U u 1 0.4909 
16-May-2018_16:34:19 7317 24 female R 6 2 10 moral immoralSelf Y y 1 0.5517 
16-May-2018_16:34:20 7317 24 female R 6 2 11 moral moralSelf U u 1 0.3715 
16-May-2018_16:34:22 7317 24 female R 6 2 12 moral moralSelf U u 1 0.5095 
16-May-2018_16:34:24 7317 24 female R 6 2 13 moral moralSelf U u 1 0.4436 
16-May-2018_16:34:25 7317 24 female R 6 2 14 moral moralOther U u 1 0.3830 
16-May-2018_16:34:27 7317 24 female R 6 2 15 moral moralOther U u 1 0.5727 
16-May-2018_16:34:29 7317 24 female R 6 2 16 moral immoralSelf Y y 1 0.4905 
16-May-2018_16:34:31 7317 24 female R 6 2 17 moral immoralOther Y y 1 0.6120 
16-May-2018_16:34:33 7317 24 female R 6 2 18 moral immoralOther Y y 1 0.4854 
16-May-2018_16:34:34 7317 24 female R 6 2 19 moral moralOther U u 1 0.5401 
16-May-2018_16:34:36 7317 24 female R 6 2 20 moral immoralOther Y y 1 0.5128 
16-May-2018_16:34:38 7317 24 female R 6 2 21 moral moralSelf U u 1 0.5115 
16-May-2018_16:34:40 7317 24 female R 6 2 22 moral immoralOther Y y 1 0.5587 
16-May-2018_16:34:42 7317 24 female R 6 2 23 moral moralOther U u 1 0.6393 
16-May-2018_16:34:44 7317 24 female R 6 2 24 moral immoralSelf Y y 1 0.8209 
16-May-2018_16:34:50 7317 24 female R 6 3 1 moral moralSelf U u 1 0.4023 
16-May-2018_16:34:52 7317 24 female R 6 3 2 moral immoralSelf Y y 1 0.5238 
16-May-2018_16:34:54 7317 24 female R 6 3 3 moral moralSelf U u 1 0.5018 
16-May-2018_16:34:55 7317 24 female R 6 3 4 moral immoralSelf Y y 1 0.4797 
16-May-2018_16:34:57 7317 24 female R 6 3 5 moral immoralOther Y y 1 0.5608 
16-May-2018_16:34:59 7317 24 female R 6 3 6 moral moralSelf U u 1 0.4512 
16-May-2018_16:35:01 7317 24 female R 6 3 7 moral moralOther U u 1 0.3693 
16-May-2018_16:35:03 7317 24 female R 6 3 8 moral immoralSelf Y y 1 0.5021 
16-May-2018_16:35:05 7317 24 female R 6 3 9 moral immoralOther Y y 1 0.6612 
16-May-2018_16:35:06 7317 24 female R 6 3 10 moral moralOther U u 1 0.4397 
16-May-2018_16:35:08 7317 24 female R 6 3 11 moral moralOther U u 1 0.4101 
16-May-2018_16:35:10 7317 24 female R 6 3 12 moral immoralSelf Y y 1 0.4732 
16-May-2018_16:35:11 7317 24 female R 6 3 13 moral moralSelf U u 1 0.4558 
16-May-2018_16:35:13 7317 24 female R 6 3 14 moral immoralOther Y y 1 0.5514 
16-May-2018_16:35:15 7317 24 female R 6 3 15 moral moralSelf U u 1 0.4721 
16-May-2018_16:35:16 7317 24 female R 6 3 16 moral immoralSelf Y y 1 0.5431 
16-May-2018_16:35:18 7317 24 female R 6 3 17 moral immoralOther Y u 0 0.4415 
16-May-2018_16:35:20 7317 24 female R 6 3 18 moral moralOther U u 1 0.4863 
16-May-2018_16:35:22 7317 24 female R 6 3 19 moral moralOther U u 1 0.4323 
16-May-2018_16:35:23 7317 24 female R 6 3 20 moral immoralSelf Y y 1 0.5217 
16-May-2018_16:35:25 7317 24 female R 6 3 21 moral immoralOther Y y 1 0.4911 
16-May-2018_16:35:27 7317 24 female R 6 3 22 moral immoralOther Y y 1 0.5736 
16-May-2018_16:35:29 7317 24 female R 6 3 23 moral moralOther U u 1 0.4679 
16-May-2018_16:35:31 7317 24 female R 6 3 24 moral moralSelf U u 1 0.5197 
16-May-2018_16:35:32 7317 24 female R 6 4 1 moral moralOther U u 1 0.4247 
16-May-2018_16:35:34 7317 24 female R 6 4 2 moral moralSelf U u 1 0.7861 
16-May-2018_16:35:36 7317 24 female R 6 4 3 moral moralOther U u 1 0.4559 
16-May-2018_16:35:38 7317 24 female R 6 4 4 moral moralSelf U u 1 0.5072 
16-May-2018_16:35:39 7317 24 female R 6 4 5 moral moralSelf U u 1 0.4522 
16-May-2018_16:35:41 7317 24 female R 6 4 6 moral immoralSelf Y y 1 0.4570 
16-May-2018_16:35:43 7317 24 female R 6 4 7 moral moralSelf U u 1 0.4806 
16-May-2018_16:35:45 7317 24 female R 6 4 8 moral immoralOther Y y 1 0.6604 
16-May-2018_16:35:47 7317 24 female R 6 4 9 moral moralSelf U NA -1 1.0841 
16-May-2018_16:35:49 7317 24 female R 6 4 10 moral immoralSelf Y y 1 0.6008 
16-May-2018_16:35:51 7317 24 female R 6 4 11 moral immoralOther Y y 1 0.5860 
16-May-2018_16:35:53 7317 24 female R 6 4 12 moral moralOther U u 1 0.5271 
16-May-2018_16:35:55 7317 24 female R 6 4 13 moral moralSelf U u 1 0.3837 
16-May-2018_16:35:57 7317 24 female R 6 4 14 moral immoralSelf Y y 1 0.5211 
16-May-2018_16:35:58 7317 24 female R 6 4 15 moral moralOther U u 1 0.4935 
16-May-2018_16:36:00 7317 24 female R 6 4 16 moral immoralSelf Y y 1 0.6695 
16-May-2018_16:36:02 7317 24 female R 6 4 17 moral immoralOther Y y 1 0.8005 
16-May-2018_16:36:04 7317 24 female R 6 4 18 moral moralOther U u 1 0.5262 
16-May-2018_16:36:06 7317 24 female R 6 4 19 moral immoralOther Y y 1 0.6546 
16-May-2018_16:36:08 7317 24 female R 6 4 20 moral immoralOther Y y 1 0.6129 
16-May-2018_16:36:10 7317 24 female R 6 4 21 moral immoralSelf Y y 1 0.6389 
16-May-2018_16:36:11 7317 24 female R 6 4 22 moral immoralSelf Y y 1 0.4700 
16-May-2018_16:36:13 7317 24 female R 6 4 23 moral immoralOther Y y 1 0.4860 
16-May-2018_16:36:15 7317 24 female R 6 4 24 moral moralOther U u 1 0.5642 
16-May-2018_16:36:22 7317 24 female R 6 5 1 moral moralSelf U u 1 0.5390 
16-May-2018_16:36:23 7317 24 female R 6 5 2 moral immoralSelf Y y 1 0.4982 
16-May-2018_16:36:25 7317 24 female R 6 5 3 moral immoralSelf Y y 1 0.4935 
16-May-2018_16:36:27 7317 24 female R 6 5 4 moral immoralOther Y y 1 0.7599 
16-May-2018_16:36:29 7317 24 female R 6 5 5 moral immoralSelf Y y 1 0.4095 
16-May-2018_16:36:31 7317 24 female R 6 5 6 moral immoralSelf Y y 1 0.3559 
16-May-2018_16:36:32 7317 24 female R 6 5 7 moral moralOther U u 1 0.5856 
16-May-2018_16:36:34 7317 24 female R 6 5 8 moral immoralOther Y y 1 0.5451 
16-May-2018_16:36:36 7317 24 female R 6 5 9 moral moralSelf U u 1 0.5188 
16-May-2018_16:36:37 7317 24 female R 6 5 10 moral immoralSelf Y u 0 0.4447 
16-May-2018_16:36:39 7317 24 female R 6 5 11 moral moralSelf U u 1 0.6358 
16-May-2018_16:36:41 7317 24 female R 6 5 12 moral immoralOther Y y 1 0.6730 
16-May-2018_16:36:43 7317 24 female R 6 5 13 moral moralOther U u 1 0.5273 
16-May-2018_16:36:44 7317 24 female R 6 5 14 moral moralSelf U u 1 0.3687 
16-May-2018_16:36:46 7317 24 female R 6 5 15 moral immoralOther Y y 1 0.6051 
16-May-2018_16:36:48 7317 24 female R 6 5 16 moral immoralOther Y y 1 0.7147 
16-May-2018_16:36:51 7317 24 female R 6 5 17 moral moralOther U u 1 0.5985 
16-May-2018_16:36:52 7317 24 female R 6 5 18 moral moralOther U u 1 0.3888 
16-May-2018_16:36:54 7317 24 female R 6 5 19 moral moralOther U u 1 0.4787 
16-May-2018_16:36:56 7317 24 female R 6 5 20 moral moralSelf U u 1 0.5616 
16-May-2018_16:36:58 7317 24 female R 6 5 21 moral immoralOther Y y 1 0.7466 
16-May-2018_16:37:00 7317 24 female R 6 5 22 moral moralSelf U u 1 0.7316 
16-May-2018_16:37:02 7317 24 female R 6 5 23 moral moralOther U u 1 0.4794 
16-May-2018_16:37:04 7317 24 female R 6 5 24 moral immoralSelf Y y 1 0.6618 
