Date Sub Age Sex Hand Block Bin Trial Task Shape corrResp Resp ACC RT
02-Jun-2018_14:03:16 73370 18 female R 1 1 1 self moralSelf J j 1 0.5932 
02-Jun-2018_14:03:18 73370 18 female R 1 1 2 self immoralOther H h 1 0.5501 
02-Jun-2018_14:03:19 73370 18 female R 1 1 3 self immoralSelf J j 1 0.4782 
02-Jun-2018_14:03:21 73370 18 female R 1 1 4 self moralOther H h 1 0.6156 
02-Jun-2018_14:03:23 73370 18 female R 1 1 5 self moralSelf J j 1 0.2943 
02-Jun-2018_14:03:25 73370 18 female R 1 1 6 self immoralSelf J j 1 0.5612 
02-Jun-2018_14:03:27 73370 18 female R 1 1 7 self moralSelf J j 1 0.5020 
02-Jun-2018_14:03:29 73370 18 female R 1 1 8 self immoralSelf J j 1 0.5750 
02-Jun-2018_14:03:31 73370 18 female R 1 1 9 self immoralOther H h 1 0.5930 
02-Jun-2018_14:03:32 73370 18 female R 1 1 10 self immoralOther H h 1 0.3836 
02-Jun-2018_14:03:34 73370 18 female R 1 1 11 self immoralSelf J j 1 0.5521 
02-Jun-2018_14:03:36 73370 18 female R 1 1 12 self immoralOther H h 1 0.5677 
02-Jun-2018_14:03:38 73370 18 female R 1 1 13 self immoralOther H h 1 0.7220 
02-Jun-2018_14:03:40 73370 18 female R 1 1 14 self moralOther H h 1 0.7462 
02-Jun-2018_14:03:42 73370 18 female R 1 1 15 self moralOther H h 1 0.4776 
02-Jun-2018_14:03:44 73370 18 female R 1 1 16 self moralSelf J j 1 0.5163 
02-Jun-2018_14:03:46 73370 18 female R 1 1 17 self moralOther H h 1 0.6024 
02-Jun-2018_14:03:48 73370 18 female R 1 1 18 self moralOther H h 1 0.5070 
02-Jun-2018_14:03:50 73370 18 female R 1 1 19 self immoralSelf J j 1 0.6393 
02-Jun-2018_14:03:52 73370 18 female R 1 1 20 self moralOther H h 1 0.5782 
02-Jun-2018_14:03:53 73370 18 female R 1 1 21 self moralSelf J j 1 0.5628 
02-Jun-2018_14:03:55 73370 18 female R 1 1 22 self immoralOther H h 1 0.5224 
02-Jun-2018_14:03:57 73370 18 female R 1 1 23 self immoralSelf J j 1 0.5818 
02-Jun-2018_14:03:59 73370 18 female R 1 1 24 self moralSelf J NA -1 1.0841 
02-Jun-2018_14:04:01 73370 18 female R 1 2 1 self immoralOther H h 1 0.4662 
02-Jun-2018_14:04:03 73370 18 female R 1 2 2 self immoralOther H h 1 0.6121 
02-Jun-2018_14:04:05 73370 18 female R 1 2 3 self moralOther H h 1 0.7227 
02-Jun-2018_14:04:07 73370 18 female R 1 2 4 self immoralOther H h 1 0.5633 
02-Jun-2018_14:04:09 73370 18 female R 1 2 5 self immoralSelf J j 1 0.5022 
02-Jun-2018_14:04:11 73370 18 female R 1 2 6 self moralOther H h 1 0.5053 
02-Jun-2018_14:04:13 73370 18 female R 1 2 7 self moralSelf J j 1 0.5028 
02-Jun-2018_14:04:15 73370 18 female R 1 2 8 self moralOther H h 1 0.5943 
02-Jun-2018_14:04:16 73370 18 female R 1 2 9 self immoralSelf J j 1 0.8616 
02-Jun-2018_14:04:18 73370 18 female R 1 2 10 self moralSelf J j 1 0.5233 
02-Jun-2018_14:04:20 73370 18 female R 1 2 11 self moralOther H h 1 0.5568 
02-Jun-2018_14:04:22 73370 18 female R 1 2 12 self immoralSelf J j 1 0.5608 
02-Jun-2018_14:04:24 73370 18 female R 1 2 13 self immoralSelf J j 1 0.6684 
02-Jun-2018_14:04:26 73370 18 female R 1 2 14 self moralSelf J j 1 0.5434 
02-Jun-2018_14:04:27 73370 18 female R 1 2 15 self moralSelf J j 1 0.4347 
02-Jun-2018_14:04:29 73370 18 female R 1 2 16 self immoralOther H h 1 0.5990 
02-Jun-2018_14:04:31 73370 18 female R 1 2 17 self immoralOther H h 1 0.4020 
02-Jun-2018_14:04:32 73370 18 female R 1 2 18 self immoralOther H h 1 0.4779 
02-Jun-2018_14:04:35 73370 18 female R 1 2 19 self moralSelf J NA -1 1.0841 
02-Jun-2018_14:04:37 73370 18 female R 1 2 20 self moralSelf J NA -1 1.0841 
02-Jun-2018_14:04:39 73370 18 female R 1 2 21 self immoralSelf J NA -1 1.0841 
02-Jun-2018_14:04:41 73370 18 female R 1 2 22 self moralOther H h 1 0.8085 
02-Jun-2018_14:04:43 73370 18 female R 1 2 23 self immoralSelf J j 1 0.4012 
02-Jun-2018_14:04:45 73370 18 female R 1 2 24 self moralOther H h 1 0.6105 
02-Jun-2018_14:04:53 73370 18 female R 1 3 1 self immoralSelf J j 1 0.4824 
02-Jun-2018_14:04:55 73370 18 female R 1 3 2 self moralOther H h 1 0.4010 
02-Jun-2018_14:04:57 73370 18 female R 1 3 3 self moralOther H h 1 0.6622 
02-Jun-2018_14:04:59 73370 18 female R 1 3 4 self immoralOther H h 1 0.7645 
02-Jun-2018_14:05:01 73370 18 female R 1 3 5 self moralSelf J j 1 0.5085 
02-Jun-2018_14:05:02 73370 18 female R 1 3 6 self immoralSelf J j 1 0.6113 
02-Jun-2018_14:05:04 73370 18 female R 1 3 7 self moralOther H h 1 0.7397 
02-Jun-2018_14:05:07 73370 18 female R 1 3 8 self moralOther H NA -1 1.0841 
02-Jun-2018_14:05:09 73370 18 female R 1 3 9 self moralSelf J j 1 0.4954 
02-Jun-2018_14:05:11 73370 18 female R 1 3 10 self immoralOther H h 1 0.7263 
02-Jun-2018_14:05:13 73370 18 female R 1 3 11 self moralSelf J j 1 0.7627 
02-Jun-2018_14:05:15 73370 18 female R 1 3 12 self moralOther H h 1 0.4122 
02-Jun-2018_14:05:17 73370 18 female R 1 3 13 self immoralOther H j 0 0.7473 
02-Jun-2018_14:05:19 73370 18 female R 1 3 14 self immoralSelf J j 1 0.4834 
02-Jun-2018_14:05:20 73370 18 female R 1 3 15 self immoralSelf J j 1 0.6755 
02-Jun-2018_14:05:22 73370 18 female R 1 3 16 self moralSelf J j 1 0.6063 
02-Jun-2018_14:05:24 73370 18 female R 1 3 17 self moralOther H h 1 0.5448 
02-Jun-2018_14:05:26 73370 18 female R 1 3 18 self moralSelf J j 1 0.5561 
02-Jun-2018_14:05:28 73370 18 female R 1 3 19 self immoralOther H h 1 0.5209 
02-Jun-2018_14:05:30 73370 18 female R 1 3 20 self immoralOther H h 1 0.4617 
02-Jun-2018_14:05:31 73370 18 female R 1 3 21 self immoralSelf J j 1 0.5837 
02-Jun-2018_14:05:33 73370 18 female R 1 3 22 self immoralSelf J j 1 0.6317 
02-Jun-2018_14:05:35 73370 18 female R 1 3 23 self immoralOther H h 1 0.5062 
02-Jun-2018_14:05:37 73370 18 female R 1 3 24 self moralSelf J j 1 0.5910 
02-Jun-2018_14:05:39 73370 18 female R 1 4 1 self immoralSelf J j 1 0.5901 
02-Jun-2018_14:05:41 73370 18 female R 1 4 2 self moralOther H h 1 0.5666 
02-Jun-2018_14:05:43 73370 18 female R 1 4 3 self moralOther H h 1 0.7286 
02-Jun-2018_14:05:44 73370 18 female R 1 4 4 self immoralOther H h 1 0.4920 
02-Jun-2018_14:05:46 73370 18 female R 1 4 5 self immoralSelf J j 1 0.6384 
02-Jun-2018_14:05:48 73370 18 female R 1 4 6 self moralSelf J j 1 0.5961 
02-Jun-2018_14:05:50 73370 18 female R 1 4 7 self immoralOther H j 0 0.9251 
02-Jun-2018_14:05:52 73370 18 female R 1 4 8 self moralOther H h 1 0.4867 
02-Jun-2018_14:05:54 73370 18 female R 1 4 9 self moralOther H h 1 0.5098 
02-Jun-2018_14:05:55 73370 18 female R 1 4 10 self moralOther H h 1 0.4745 
02-Jun-2018_14:05:57 73370 18 female R 1 4 11 self immoralOther H h 1 0.5781 
02-Jun-2018_14:05:59 73370 18 female R 1 4 12 self moralSelf J j 1 0.7231 
02-Jun-2018_14:06:01 73370 18 female R 1 4 13 self moralSelf J j 1 0.5966 
02-Jun-2018_14:06:03 73370 18 female R 1 4 14 self moralSelf J j 1 0.5228 
02-Jun-2018_14:06:04 73370 18 female R 1 4 15 self immoralOther H h 1 0.5822 
02-Jun-2018_14:06:06 73370 18 female R 1 4 16 self immoralOther H NA -1 1.0841 
02-Jun-2018_14:06:09 73370 18 female R 1 4 17 self moralOther H NA -1 1.0841 
02-Jun-2018_14:06:11 73370 18 female R 1 4 18 self immoralOther H NA -1 1.0841 
02-Jun-2018_14:06:13 73370 18 female R 1 4 19 self immoralSelf J j 1 0.7349 
02-Jun-2018_14:06:15 73370 18 female R 1 4 20 self moralSelf J j 1 0.6183 
02-Jun-2018_14:06:17 73370 18 female R 1 4 21 self moralSelf J j 1 0.4693 
02-Jun-2018_14:06:19 73370 18 female R 1 4 22 self immoralSelf J j 1 0.5362 
02-Jun-2018_14:06:20 73370 18 female R 1 4 23 self immoralSelf J j 1 0.5037 
02-Jun-2018_14:06:22 73370 18 female R 1 4 24 self immoralSelf J j 1 0.4272 
02-Jun-2018_14:06:43 73370 18 female R 1 5 1 self immoralOther H h 1 0.7465 
02-Jun-2018_14:06:45 73370 18 female R 1 5 2 self immoralOther H h 1 0.5504 
02-Jun-2018_14:06:47 73370 18 female R 1 5 3 self moralSelf J j 1 0.5702 
02-Jun-2018_14:06:49 73370 18 female R 1 5 4 self moralSelf J j 1 0.6752 
02-Jun-2018_14:06:51 73370 18 female R 1 5 5 self moralSelf J j 1 0.6146 
02-Jun-2018_14:06:52 73370 18 female R 1 5 6 self moralOther H h 1 0.4660 
02-Jun-2018_14:06:54 73370 18 female R 1 5 7 self immoralOther H h 1 0.8472 
02-Jun-2018_14:06:56 73370 18 female R 1 5 8 self moralSelf J j 1 0.6229 
02-Jun-2018_14:06:58 73370 18 female R 1 5 9 self immoralOther H h 1 0.5656 
02-Jun-2018_14:07:00 73370 18 female R 1 5 10 self moralSelf J j 1 0.5857 
02-Jun-2018_14:07:02 73370 18 female R 1 5 11 self moralOther H h 1 0.6461 
02-Jun-2018_14:07:03 73370 18 female R 1 5 12 self moralOther H h 1 0.5926 
02-Jun-2018_14:07:05 73370 18 female R 1 5 13 self immoralSelf J j 1 0.6650 
02-Jun-2018_14:07:07 73370 18 female R 1 5 14 self immoralSelf J j 1 0.7536 
02-Jun-2018_14:07:09 73370 18 female R 1 5 15 self immoralSelf J j 1 0.4610 
02-Jun-2018_14:07:11 73370 18 female R 1 5 16 self immoralSelf J j 1 0.4149 
02-Jun-2018_14:07:12 73370 18 female R 1 5 17 self moralSelf J j 1 0.2555 
02-Jun-2018_14:07:14 73370 18 female R 1 5 18 self moralOther H h 1 0.3887 
02-Jun-2018_14:07:15 73370 18 female R 1 5 19 self immoralSelf J j 1 0.5686 
02-Jun-2018_14:07:17 73370 18 female R 1 5 20 self immoralSelf J j 1 0.4576 
02-Jun-2018_14:07:19 73370 18 female R 1 5 21 self moralOther H h 1 0.5377 
02-Jun-2018_14:07:20 73370 18 female R 1 5 22 self immoralOther H h 1 0.4695 
02-Jun-2018_14:07:22 73370 18 female R 1 5 23 self moralOther H h 1 0.4394 
02-Jun-2018_14:07:23 73370 18 female R 1 5 24 self immoralOther H j 0 0.4069 
Date Sub Age Sex Hand Block Bin Trial Task Shape corrResp Resp ACC RT
02-Jun-2018_14:09:58 73370 18 female R 2 1 1 moral immoralSelf Y y 1 0.6361 
02-Jun-2018_14:10:00 73370 18 female R 2 1 2 moral immoralOther Y y 1 0.7158 
02-Jun-2018_14:10:02 73370 18 female R 2 1 3 moral immoralOther Y y 1 0.5009 
02-Jun-2018_14:10:04 73370 18 female R 2 1 4 moral immoralSelf Y y 1 0.4356 
02-Jun-2018_14:10:06 73370 18 female R 2 1 5 moral moralOther U u 1 0.8304 
02-Jun-2018_14:10:08 73370 18 female R 2 1 6 moral moralOther U u 1 0.3877 
02-Jun-2018_14:10:10 73370 18 female R 2 1 7 moral moralOther U u 1 0.3849 
02-Jun-2018_14:10:11 73370 18 female R 2 1 8 moral moralSelf U u 1 0.3356 
02-Jun-2018_14:10:13 73370 18 female R 2 1 9 moral moralSelf U u 1 0.3300 
02-Jun-2018_14:10:15 73370 18 female R 2 1 10 moral moralSelf U u 1 0.3432 
02-Jun-2018_14:10:16 73370 18 female R 2 1 11 moral immoralSelf Y y 1 0.3960 
02-Jun-2018_14:10:18 73370 18 female R 2 1 12 moral immoralOther Y y 1 0.6304 
02-Jun-2018_14:10:20 73370 18 female R 2 1 13 moral immoralOther Y y 1 0.5053 
02-Jun-2018_14:10:22 73370 18 female R 2 1 14 moral moralOther U u 1 0.6056 
02-Jun-2018_14:10:23 73370 18 female R 2 1 15 moral moralOther U u 1 0.5070 
02-Jun-2018_14:10:25 73370 18 female R 2 1 16 moral moralSelf U u 1 0.4519 
02-Jun-2018_14:10:27 73370 18 female R 2 1 17 moral moralSelf U u 1 0.4459 
02-Jun-2018_14:10:29 73370 18 female R 2 1 18 moral moralOther U u 1 0.4962 
02-Jun-2018_14:10:31 73370 18 female R 2 1 19 moral immoralSelf Y y 1 0.4216 
02-Jun-2018_14:10:32 73370 18 female R 2 1 20 moral immoralOther Y y 1 0.4536 
02-Jun-2018_14:10:34 73370 18 female R 2 1 21 moral immoralOther Y y 1 0.5812 
02-Jun-2018_14:10:37 73370 18 female R 2 1 22 moral immoralSelf Y NA -1 1.0841 
02-Jun-2018_14:10:39 73370 18 female R 2 1 23 moral immoralSelf Y y 1 0.8171 
02-Jun-2018_14:10:41 73370 18 female R 2 1 24 moral moralSelf U u 1 0.4897 
02-Jun-2018_14:10:42 73370 18 female R 2 2 1 moral immoralSelf Y y 1 0.6615 
02-Jun-2018_14:10:44 73370 18 female R 2 2 2 moral moralSelf U u 1 0.4376 
02-Jun-2018_14:10:46 73370 18 female R 2 2 3 moral moralOther U u 1 0.5515 
02-Jun-2018_14:10:48 73370 18 female R 2 2 4 moral moralSelf U u 1 0.5394 
02-Jun-2018_14:10:50 73370 18 female R 2 2 5 moral moralSelf U NA -1 1.0841 
02-Jun-2018_14:10:52 73370 18 female R 2 2 6 moral immoralSelf Y NA -1 1.0841 
02-Jun-2018_14:10:54 73370 18 female R 2 2 7 moral moralSelf U u 1 0.4267 
02-Jun-2018_14:10:56 73370 18 female R 2 2 8 moral immoralOther Y y 1 0.5775 
02-Jun-2018_14:10:58 73370 18 female R 2 2 9 moral immoralSelf Y y 1 0.6561 
02-Jun-2018_14:11:00 73370 18 female R 2 2 10 moral moralOther U u 1 0.5098 
02-Jun-2018_14:11:01 73370 18 female R 2 2 11 moral immoralOther Y y 1 0.5781 
02-Jun-2018_14:11:03 73370 18 female R 2 2 12 moral immoralSelf Y u 0 0.8784 
02-Jun-2018_14:11:05 73370 18 female R 2 2 13 moral immoralSelf Y y 1 0.5802 
02-Jun-2018_14:11:07 73370 18 female R 2 2 14 moral immoralOther Y y 1 0.4122 
02-Jun-2018_14:11:09 73370 18 female R 2 2 15 moral moralOther U u 1 0.4156 
02-Jun-2018_14:11:10 73370 18 female R 2 2 16 moral moralSelf U u 1 0.4622 
02-Jun-2018_14:11:12 73370 18 female R 2 2 17 moral immoralOther Y y 1 0.4990 
02-Jun-2018_14:11:14 73370 18 female R 2 2 18 moral immoralOther Y y 1 0.3867 
02-Jun-2018_14:11:15 73370 18 female R 2 2 19 moral immoralOther Y y 1 0.4215 
02-Jun-2018_14:11:17 73370 18 female R 2 2 20 moral moralOther U y 0 0.4522 
02-Jun-2018_14:11:19 73370 18 female R 2 2 21 moral immoralSelf Y y 1 0.4630 
02-Jun-2018_14:11:20 73370 18 female R 2 2 22 moral moralSelf U u 1 0.4542 
02-Jun-2018_14:11:22 73370 18 female R 2 2 23 moral moralOther U u 1 0.6283 
02-Jun-2018_14:11:24 73370 18 female R 2 2 24 moral moralOther U u 1 0.3983 
02-Jun-2018_14:11:33 73370 18 female R 2 3 1 moral moralSelf U u 1 0.3247 
02-Jun-2018_14:11:34 73370 18 female R 2 3 2 moral immoralSelf Y y 1 0.4834 
02-Jun-2018_14:11:36 73370 18 female R 2 3 3 moral immoralOther Y y 1 0.5616 
02-Jun-2018_14:11:38 73370 18 female R 2 3 4 moral immoralOther Y y 1 0.5284 
02-Jun-2018_14:11:40 73370 18 female R 2 3 5 moral immoralSelf Y y 1 0.5161 
02-Jun-2018_14:11:42 73370 18 female R 2 3 6 moral moralOther U u 1 0.4870 
02-Jun-2018_14:11:43 73370 18 female R 2 3 7 moral moralSelf U u 1 0.3845 
02-Jun-2018_14:11:45 73370 18 female R 2 3 8 moral moralSelf U u 1 0.3130 
02-Jun-2018_14:11:47 73370 18 female R 2 3 9 moral immoralOther Y y 1 0.4053 
02-Jun-2018_14:11:48 73370 18 female R 2 3 10 moral moralSelf U u 1 0.4388 
02-Jun-2018_14:11:50 73370 18 female R 2 3 11 moral immoralOther Y y 1 0.5019 
02-Jun-2018_14:11:52 73370 18 female R 2 3 12 moral moralOther U u 1 0.6445 
02-Jun-2018_14:11:54 73370 18 female R 2 3 13 moral immoralSelf Y y 1 0.7694 
02-Jun-2018_14:11:56 73370 18 female R 2 3 14 moral moralOther U u 1 0.5375 
02-Jun-2018_14:11:57 73370 18 female R 2 3 15 moral immoralSelf Y y 1 0.4259 
02-Jun-2018_14:11:59 73370 18 female R 2 3 16 moral moralOther U u 1 0.4906 
02-Jun-2018_14:12:01 73370 18 female R 2 3 17 moral moralOther U u 1 0.5461 
02-Jun-2018_14:12:03 73370 18 female R 2 3 18 moral immoralSelf Y y 1 0.4832 
02-Jun-2018_14:12:04 73370 18 female R 2 3 19 moral moralSelf U u 1 0.5500 
02-Jun-2018_14:12:06 73370 18 female R 2 3 20 moral immoralOther Y y 1 0.4626 
02-Jun-2018_14:12:08 73370 18 female R 2 3 21 moral immoralOther Y y 1 0.5299 
02-Jun-2018_14:12:11 73370 18 female R 2 3 22 moral immoralSelf Y u 0 0.6656 
02-Jun-2018_14:12:12 73370 18 female R 2 3 23 moral moralSelf U u 1 0.4167 
02-Jun-2018_14:12:14 73370 18 female R 2 3 24 moral moralOther U u 1 0.4360 
02-Jun-2018_14:12:16 73370 18 female R 2 4 1 moral moralSelf U u 1 0.5331 
02-Jun-2018_14:12:18 73370 18 female R 2 4 2 moral moralSelf U NA -1 1.0841 
02-Jun-2018_14:12:20 73370 18 female R 2 4 3 moral moralSelf U u 1 0.4815 
02-Jun-2018_14:12:21 73370 18 female R 2 4 4 moral moralOther U u 1 0.4632 
02-Jun-2018_14:12:23 73370 18 female R 2 4 5 moral immoralOther Y y 1 0.4152 
02-Jun-2018_14:12:25 73370 18 female R 2 4 6 moral immoralSelf Y y 1 0.6135 
02-Jun-2018_14:12:27 73370 18 female R 2 4 7 moral immoralSelf Y y 1 0.9927 
02-Jun-2018_14:12:29 73370 18 female R 2 4 8 moral immoralOther Y y 1 0.5348 
02-Jun-2018_14:12:30 73370 18 female R 2 4 9 moral immoralSelf Y y 1 0.4401 
02-Jun-2018_14:12:32 73370 18 female R 2 4 10 moral moralOther U u 1 0.4363 
02-Jun-2018_14:12:34 73370 18 female R 2 4 11 moral moralOther U u 1 0.4622 
02-Jun-2018_14:12:36 73370 18 female R 2 4 12 moral moralOther U u 1 0.7564 
02-Jun-2018_14:12:38 73370 18 female R 2 4 13 moral immoralSelf Y NA -1 1.0841 
02-Jun-2018_14:12:40 73370 18 female R 2 4 14 moral immoralSelf Y y 1 0.5877 
02-Jun-2018_14:12:42 73370 18 female R 2 4 15 moral moralOther U u 1 0.4654 
02-Jun-2018_14:12:44 73370 18 female R 2 4 16 moral immoralSelf Y y 1 0.6711 
02-Jun-2018_14:12:46 73370 18 female R 2 4 17 moral immoralOther Y y 1 0.5173 
02-Jun-2018_14:12:48 73370 18 female R 2 4 18 moral immoralOther Y u 0 0.9702 
02-Jun-2018_14:12:50 73370 18 female R 2 4 19 moral immoralOther Y y 1 0.4615 
02-Jun-2018_14:12:52 73370 18 female R 2 4 20 moral moralSelf U u 1 0.7279 
02-Jun-2018_14:12:54 73370 18 female R 2 4 21 moral moralSelf U u 1 0.4668 
02-Jun-2018_14:12:55 73370 18 female R 2 4 22 moral moralSelf U u 1 0.4330 
02-Jun-2018_14:12:57 73370 18 female R 2 4 23 moral moralOther U u 1 0.4142 
02-Jun-2018_14:13:00 73370 18 female R 2 4 24 moral immoralOther Y NA -1 1.0841 
02-Jun-2018_14:13:08 73370 18 female R 2 5 1 moral moralOther U u 1 0.4081 
02-Jun-2018_14:13:10 73370 18 female R 2 5 2 moral moralSelf U u 1 0.4119 
02-Jun-2018_14:13:11 73370 18 female R 2 5 3 moral immoralSelf Y y 1 0.4723 
02-Jun-2018_14:13:13 73370 18 female R 2 5 4 moral moralOther U u 1 0.5104 
02-Jun-2018_14:13:15 73370 18 female R 2 5 5 moral immoralOther Y y 1 0.5372 
02-Jun-2018_14:13:16 73370 18 female R 2 5 6 moral moralSelf U u 1 0.4846 
02-Jun-2018_14:13:18 73370 18 female R 2 5 7 moral immoralOther Y y 1 0.4631 
02-Jun-2018_14:13:19 73370 18 female R 2 5 8 moral immoralOther Y y 1 0.4176 
02-Jun-2018_14:13:21 73370 18 female R 2 5 9 moral moralOther U u 1 0.3362 
02-Jun-2018_14:13:23 73370 18 female R 2 5 10 moral immoralSelf Y y 1 0.5296 
02-Jun-2018_14:13:25 73370 18 female R 2 5 11 moral moralSelf U u 1 0.3970 
02-Jun-2018_14:13:27 73370 18 female R 2 5 12 moral immoralOther Y y 1 0.5660 
02-Jun-2018_14:13:29 73370 18 female R 2 5 13 moral immoralSelf Y y 1 0.6511 
02-Jun-2018_14:13:31 73370 18 female R 2 5 14 moral immoralSelf Y NA -1 1.0841 
02-Jun-2018_14:13:32 73370 18 female R 2 5 15 moral moralOther U u 1 0.4139 
02-Jun-2018_14:13:34 73370 18 female R 2 5 16 moral moralOther U u 1 0.5047 
02-Jun-2018_14:13:37 73370 18 female R 2 5 17 moral immoralSelf Y NA -1 1.0841 
02-Jun-2018_14:13:38 73370 18 female R 2 5 18 moral moralSelf U u 1 0.4102 
02-Jun-2018_14:13:40 73370 18 female R 2 5 19 moral immoralOther Y y 1 0.5063 
02-Jun-2018_14:13:42 73370 18 female R 2 5 20 moral moralSelf U u 1 0.5934 
02-Jun-2018_14:13:45 73370 18 female R 2 5 21 moral moralSelf U NA -1 1.0841 
02-Jun-2018_14:13:46 73370 18 female R 2 5 22 moral moralOther U u 1 0.4671 
02-Jun-2018_14:13:48 73370 18 female R 2 5 23 moral immoralSelf Y y 1 0.5221 
02-Jun-2018_14:13:50 73370 18 female R 2 5 24 moral immoralOther Y NA -1 1.0841 
Date Sub Age Sex Hand Block Bin Trial Task Shape corrResp Resp ACC RT
02-Jun-2018_14:16:05 73370 18 female R 3 1 1 moral moralOther U u 1 0.4762 
02-Jun-2018_14:16:07 73370 18 female R 3 1 2 moral immoralSelf Y y 1 0.7197 
02-Jun-2018_14:16:09 73370 18 female R 3 1 3 moral moralSelf U u 1 0.4469 
02-Jun-2018_14:16:11 73370 18 female R 3 1 4 moral immoralOther Y y 1 0.5537 
02-Jun-2018_14:16:13 73370 18 female R 3 1 5 moral moralOther U u 1 0.3943 
02-Jun-2018_14:16:14 73370 18 female R 3 1 6 moral immoralOther Y y 1 0.4885 
02-Jun-2018_14:16:16 73370 18 female R 3 1 7 moral immoralSelf Y y 1 0.5619 
02-Jun-2018_14:16:18 73370 18 female R 3 1 8 moral moralOther U u 1 0.4980 
02-Jun-2018_14:16:19 73370 18 female R 3 1 9 moral moralSelf U u 1 0.4539 
02-Jun-2018_14:16:21 73370 18 female R 3 1 10 moral moralSelf U u 1 0.4835 
02-Jun-2018_14:16:23 73370 18 female R 3 1 11 moral immoralOther Y y 1 0.5528 
02-Jun-2018_14:16:25 73370 18 female R 3 1 12 moral immoralOther Y y 1 1.0625 
02-Jun-2018_14:16:27 73370 18 female R 3 1 13 moral moralOther U u 1 0.5454 
02-Jun-2018_14:16:30 73370 18 female R 3 1 14 moral moralOther U NA -1 1.0841 
02-Jun-2018_14:16:31 73370 18 female R 3 1 15 moral moralSelf U u 1 0.6349 
02-Jun-2018_14:16:34 73370 18 female R 3 1 16 moral immoralSelf Y y 1 0.8445 
02-Jun-2018_14:16:36 73370 18 female R 3 1 17 moral immoralSelf Y y 1 0.7711 
02-Jun-2018_14:16:38 73370 18 female R 3 1 18 moral immoralOther Y y 1 0.7670 
02-Jun-2018_14:16:40 73370 18 female R 3 1 19 moral moralSelf U u 1 0.5727 
02-Jun-2018_14:16:41 73370 18 female R 3 1 20 moral moralSelf U u 1 0.4763 
02-Jun-2018_14:16:43 73370 18 female R 3 1 21 moral moralOther U u 1 0.5324 
02-Jun-2018_14:16:45 73370 18 female R 3 1 22 moral immoralOther Y y 1 0.5367 
02-Jun-2018_14:16:48 73370 18 female R 3 1 23 moral immoralSelf Y NA -1 1.0841 
02-Jun-2018_14:16:50 73370 18 female R 3 1 24 moral immoralSelf Y y 1 0.7496 
02-Jun-2018_14:16:52 73370 18 female R 3 2 1 moral moralSelf U NA -1 1.0841 
02-Jun-2018_14:16:54 73370 18 female R 3 2 2 moral moralOther U u 1 0.5224 
02-Jun-2018_14:16:56 73370 18 female R 3 2 3 moral moralOther U u 1 0.4722 
02-Jun-2018_14:16:58 73370 18 female R 3 2 4 moral immoralSelf Y y 1 0.3894 
02-Jun-2018_14:16:59 73370 18 female R 3 2 5 moral moralSelf U u 1 0.5411 
02-Jun-2018_14:17:01 73370 18 female R 3 2 6 moral moralSelf U u 1 0.5641 
02-Jun-2018_14:17:03 73370 18 female R 3 2 7 moral moralSelf U u 1 0.7242 
02-Jun-2018_14:17:06 73370 18 female R 3 2 8 moral immoralSelf Y NA -1 1.0841 
02-Jun-2018_14:17:08 73370 18 female R 3 2 9 moral moralOther U NA -1 1.0841 
02-Jun-2018_14:17:10 73370 18 female R 3 2 10 moral moralOther U u 1 0.3910 
02-Jun-2018_14:17:12 73370 18 female R 3 2 11 moral immoralOther Y y 1 0.5458 
02-Jun-2018_14:17:14 73370 18 female R 3 2 12 moral immoralSelf Y y 1 0.6352 
02-Jun-2018_14:17:16 73370 18 female R 3 2 13 moral immoralOther Y y 1 0.5981 
02-Jun-2018_14:17:17 73370 18 female R 3 2 14 moral immoralOther Y y 1 0.4561 
02-Jun-2018_14:17:19 73370 18 female R 3 2 15 moral immoralOther Y y 1 0.3705 
02-Jun-2018_14:17:21 73370 18 female R 3 2 16 moral immoralOther Y y 1 0.7353 
02-Jun-2018_14:17:23 73370 18 female R 3 2 17 moral moralSelf U NA -1 1.0841 
02-Jun-2018_14:17:26 73370 18 female R 3 2 18 moral immoralSelf Y NA -1 1.0841 
02-Jun-2018_14:17:28 73370 18 female R 3 2 19 moral immoralSelf Y y 1 0.6335 
02-Jun-2018_14:17:29 73370 18 female R 3 2 20 moral moralSelf U u 1 0.4674 
02-Jun-2018_14:17:31 73370 18 female R 3 2 21 moral moralOther U u 1 0.5575 
02-Jun-2018_14:17:33 73370 18 female R 3 2 22 moral immoralSelf Y y 1 0.4087 
02-Jun-2018_14:17:35 73370 18 female R 3 2 23 moral immoralOther Y y 1 0.5590 
02-Jun-2018_14:17:36 73370 18 female R 3 2 24 moral moralOther U u 1 0.5007 
02-Jun-2018_14:17:45 73370 18 female R 3 3 1 moral immoralOther Y y 1 0.4888 
02-Jun-2018_14:17:46 73370 18 female R 3 3 2 moral immoralSelf Y y 1 0.4516 
02-Jun-2018_14:17:48 73370 18 female R 3 3 3 moral immoralSelf Y y 1 0.3270 
02-Jun-2018_14:17:50 73370 18 female R 3 3 4 moral immoralOther Y y 1 0.5938 
02-Jun-2018_14:17:52 73370 18 female R 3 3 5 moral moralSelf U u 1 0.4838 
02-Jun-2018_14:17:54 73370 18 female R 3 3 6 moral moralSelf U u 1 0.6057 
02-Jun-2018_14:17:56 73370 18 female R 3 3 7 moral moralSelf U u 1 0.4567 
02-Jun-2018_14:17:58 73370 18 female R 3 3 8 moral immoralOther Y y 1 0.9514 
02-Jun-2018_14:18:00 73370 18 female R 3 3 9 moral moralSelf U u 1 0.5369 
02-Jun-2018_14:18:02 73370 18 female R 3 3 10 moral moralOther U u 1 1.0744 
02-Jun-2018_14:18:03 73370 18 female R 3 3 11 moral moralOther U u 1 0.3013 
02-Jun-2018_14:18:05 73370 18 female R 3 3 12 moral immoralSelf Y y 1 0.4839 
02-Jun-2018_14:18:07 73370 18 female R 3 3 13 moral immoralSelf Y u 0 0.6402 
02-Jun-2018_14:18:09 73370 18 female R 3 3 14 moral moralSelf U u 1 0.3749 
02-Jun-2018_14:18:11 73370 18 female R 3 3 15 moral immoralSelf Y y 1 0.4483 
02-Jun-2018_14:18:13 73370 18 female R 3 3 16 moral moralOther U u 1 0.5412 
02-Jun-2018_14:18:14 73370 18 female R 3 3 17 moral moralOther U u 1 0.4269 
02-Jun-2018_14:18:16 73370 18 female R 3 3 18 moral immoralOther Y y 1 0.4250 
02-Jun-2018_14:18:18 73370 18 female R 3 3 19 moral moralOther U u 1 0.5484 
02-Jun-2018_14:18:20 73370 18 female R 3 3 20 moral moralOther U u 1 0.7372 
02-Jun-2018_14:18:22 73370 18 female R 3 3 21 moral immoralOther Y y 1 0.4696 
02-Jun-2018_14:18:24 73370 18 female R 3 3 22 moral immoralOther Y NA -1 1.0841 
02-Jun-2018_14:18:26 73370 18 female R 3 3 23 moral immoralSelf Y y 1 0.4847 
02-Jun-2018_14:18:27 73370 18 female R 3 3 24 moral moralSelf U u 1 0.4359 
02-Jun-2018_14:18:30 73370 18 female R 3 4 1 moral moralOther U NA -1 1.0841 
02-Jun-2018_14:18:31 73370 18 female R 3 4 2 moral immoralOther Y y 1 0.4577 
02-Jun-2018_14:18:33 73370 18 female R 3 4 3 moral immoralSelf Y y 1 0.7132 
02-Jun-2018_14:18:35 73370 18 female R 3 4 4 moral immoralOther Y y 1 0.5801 
02-Jun-2018_14:18:37 73370 18 female R 3 4 5 moral immoralSelf Y y 1 0.5364 
02-Jun-2018_14:18:38 73370 18 female R 3 4 6 moral moralSelf U u 1 0.4966 
02-Jun-2018_14:18:40 73370 18 female R 3 4 7 moral immoralSelf Y y 1 0.5070 
02-Jun-2018_14:18:42 73370 18 female R 3 4 8 moral immoralSelf Y y 1 0.3946 
02-Jun-2018_14:18:44 73370 18 female R 3 4 9 moral immoralOther Y y 1 0.8234 
02-Jun-2018_14:18:46 73370 18 female R 3 4 10 moral moralSelf U u 1 0.5406 
02-Jun-2018_14:18:48 73370 18 female R 3 4 11 moral immoralSelf Y y 1 0.4894 
02-Jun-2018_14:18:49 73370 18 female R 3 4 12 moral moralSelf U u 1 0.5115 
02-Jun-2018_14:18:52 73370 18 female R 3 4 13 moral moralOther U u 1 0.7130 
02-Jun-2018_14:18:53 73370 18 female R 3 4 14 moral immoralOther Y y 1 0.3841 
02-Jun-2018_14:18:55 73370 18 female R 3 4 15 moral immoralOther Y NA -1 1.0841 
02-Jun-2018_14:18:57 73370 18 female R 3 4 16 moral moralOther U y 0 0.4409 
02-Jun-2018_14:18:59 73370 18 female R 3 4 17 moral immoralOther Y y 1 0.6225 
02-Jun-2018_14:19:01 73370 18 female R 3 4 18 moral moralSelf U u 1 0.5290 
02-Jun-2018_14:19:03 73370 18 female R 3 4 19 moral moralSelf U u 1 0.5638 
02-Jun-2018_14:19:05 73370 18 female R 3 4 20 moral immoralSelf Y y 1 0.7799 
02-Jun-2018_14:19:07 73370 18 female R 3 4 21 moral moralOther U NA -1 1.0841 
02-Jun-2018_14:19:09 73370 18 female R 3 4 22 moral moralSelf U u 1 0.3617 
02-Jun-2018_14:19:10 73370 18 female R 3 4 23 moral moralOther U u 1 0.4808 
02-Jun-2018_14:19:12 73370 18 female R 3 4 24 moral moralOther U u 1 0.6320 
02-Jun-2018_14:19:17 73370 18 female R 3 5 1 moral immoralSelf Y y 1 0.5644 
02-Jun-2018_14:19:19 73370 18 female R 3 5 2 moral immoralSelf Y y 1 0.3414 
02-Jun-2018_14:19:20 73370 18 female R 3 5 3 moral immoralSelf Y y 1 0.4276 
02-Jun-2018_14:19:22 73370 18 female R 3 5 4 moral moralSelf U u 1 0.3665 
02-Jun-2018_14:19:24 73370 18 female R 3 5 5 moral immoralOther Y y 1 0.5195 
02-Jun-2018_14:19:26 73370 18 female R 3 5 6 moral immoralSelf Y y 1 0.3812 
02-Jun-2018_14:19:28 73370 18 female R 3 5 7 moral immoralOther Y y 1 0.5827 
02-Jun-2018_14:19:29 73370 18 female R 3 5 8 moral moralSelf U u 1 0.4670 
02-Jun-2018_14:19:31 73370 18 female R 3 5 9 moral moralOther U u 1 0.5175 
02-Jun-2018_14:19:32 73370 18 female R 3 5 10 moral moralOther U u 1 0.4167 
02-Jun-2018_14:19:34 73370 18 female R 3 5 11 moral moralSelf U u 1 0.3957 
02-Jun-2018_14:19:36 73370 18 female R 3 5 12 moral moralSelf U u 1 0.3397 
02-Jun-2018_14:19:38 73370 18 female R 3 5 13 moral immoralSelf Y y 1 0.4019 
02-Jun-2018_14:19:39 73370 18 female R 3 5 14 moral moralSelf U u 1 0.4698 
02-Jun-2018_14:19:41 73370 18 female R 3 5 15 moral immoralOther Y y 1 0.4732 
02-Jun-2018_14:19:43 73370 18 female R 3 5 16 moral moralOther U u 1 0.5640 
02-Jun-2018_14:19:45 73370 18 female R 3 5 17 moral moralOther U u 1 0.4814 
02-Jun-2018_14:19:46 73370 18 female R 3 5 18 moral immoralOther Y y 1 0.5519 
02-Jun-2018_14:19:49 73370 18 female R 3 5 19 moral immoralOther Y NA -1 1.0841 
02-Jun-2018_14:19:51 73370 18 female R 3 5 20 moral immoralSelf Y y 1 0.5352 
02-Jun-2018_14:19:53 73370 18 female R 3 5 21 moral immoralOther Y y 1 0.6632 
02-Jun-2018_14:19:55 73370 18 female R 3 5 22 moral moralSelf U NA -1 1.0841 
02-Jun-2018_14:19:57 73370 18 female R 3 5 23 moral moralOther U u 1 0.5058 
02-Jun-2018_14:19:59 73370 18 female R 3 5 24 moral moralOther U u 1 0.5218 
Date Sub Age Sex Hand Block Bin Trial Task Shape corrResp Resp ACC RT
02-Jun-2018_14:22:15 73370 18 female R 4 1 1 self moralOther H j 0 0.4971 
02-Jun-2018_14:22:18 73370 18 female R 4 1 2 self moralSelf J h 0 1.0049 
02-Jun-2018_14:22:20 73370 18 female R 4 1 3 self moralOther H NA -1 1.0841 
02-Jun-2018_14:22:22 73370 18 female R 4 1 4 self immoralOther H h 1 0.8245 
02-Jun-2018_14:22:24 73370 18 female R 4 1 5 self immoralSelf J j 1 0.4744 
02-Jun-2018_14:22:25 73370 18 female R 4 1 6 self immoralSelf J j 1 0.4096 
02-Jun-2018_14:22:27 73370 18 female R 4 1 7 self immoralOther H h 1 0.5866 
02-Jun-2018_14:22:29 73370 18 female R 4 1 8 self immoralSelf J j 1 0.5386 
02-Jun-2018_14:22:31 73370 18 female R 4 1 9 self immoralOther H h 1 0.7509 
02-Jun-2018_14:22:33 73370 18 female R 4 1 10 self moralOther H h 1 0.8757 
02-Jun-2018_14:22:35 73370 18 female R 4 1 11 self immoralSelf J h 0 0.5186 
02-Jun-2018_14:22:37 73370 18 female R 4 1 12 self immoralOther H NA -1 1.0841 
02-Jun-2018_14:22:40 73370 18 female R 4 1 13 self moralSelf J NA -1 1.0841 
02-Jun-2018_14:22:42 73370 18 female R 4 1 14 self moralSelf J NA -1 1.0841 
02-Jun-2018_14:22:44 73370 18 female R 4 1 15 self immoralSelf J j 1 0.5933 
02-Jun-2018_14:22:46 73370 18 female R 4 1 16 self moralOther H h 1 0.8235 
02-Jun-2018_14:22:48 73370 18 female R 4 1 17 self immoralSelf J j 1 1.0574 
02-Jun-2018_14:22:50 73370 18 female R 4 1 18 self immoralOther H h 1 0.5168 
02-Jun-2018_14:22:52 73370 18 female R 4 1 19 self moralOther H h 1 0.8285 
02-Jun-2018_14:22:54 73370 18 female R 4 1 20 self moralOther H h 1 0.6324 
02-Jun-2018_14:22:56 73370 18 female R 4 1 21 self immoralOther H h 1 0.6375 
02-Jun-2018_14:22:58 73370 18 female R 4 1 22 self moralSelf J j 1 0.4870 
02-Jun-2018_14:23:00 73370 18 female R 4 1 23 self moralSelf J j 1 0.5921 
02-Jun-2018_14:23:02 73370 18 female R 4 1 24 self moralSelf J NA -1 1.0841 
02-Jun-2018_14:23:04 73370 18 female R 4 2 1 self immoralSelf J NA -1 1.0841 
02-Jun-2018_14:23:06 73370 18 female R 4 2 2 self immoralSelf J j 1 0.4238 
02-Jun-2018_14:23:07 73370 18 female R 4 2 3 self moralOther H j 0 0.4465 
02-Jun-2018_14:23:10 73370 18 female R 4 2 4 self moralSelf J j 1 0.6052 
02-Jun-2018_14:23:11 73370 18 female R 4 2 5 self immoralOther H h 1 0.6664 
02-Jun-2018_14:23:14 73370 18 female R 4 2 6 self moralOther H h 1 1.0123 
02-Jun-2018_14:23:16 73370 18 female R 4 2 7 self immoralOther H h 1 0.6078 
02-Jun-2018_14:23:17 73370 18 female R 4 2 8 self moralSelf J j 1 0.4953 
02-Jun-2018_14:23:20 73370 18 female R 4 2 9 self immoralOther H NA -1 1.0841 
02-Jun-2018_14:23:22 73370 18 female R 4 2 10 self moralSelf J NA -1 1.0841 
02-Jun-2018_14:23:24 73370 18 female R 4 2 11 self moralOther H h 1 0.5996 
02-Jun-2018_14:23:26 73370 18 female R 4 2 12 self moralSelf J j 1 0.7560 
02-Jun-2018_14:23:28 73370 18 female R 4 2 13 self immoralOther H h 1 0.5597 
02-Jun-2018_14:23:30 73370 18 female R 4 2 14 self moralOther H NA -1 1.0842 
02-Jun-2018_14:23:32 73370 18 female R 4 2 15 self moralSelf J j 1 0.5582 
02-Jun-2018_14:23:34 73370 18 female R 4 2 16 self immoralSelf J NA -1 1.0841 
02-Jun-2018_14:23:36 73370 18 female R 4 2 17 self immoralSelf J NA -1 1.0841 
02-Jun-2018_14:23:39 73370 18 female R 4 2 18 self moralOther H NA -1 1.0841 
02-Jun-2018_14:23:41 73370 18 female R 4 2 19 self moralSelf J j 1 0.9372 
02-Jun-2018_14:23:43 73370 18 female R 4 2 20 self moralOther H h 1 0.6323 
02-Jun-2018_14:23:44 73370 18 female R 4 2 21 self immoralOther H h 1 0.6004 
02-Jun-2018_14:23:47 73370 18 female R 4 2 22 self immoralSelf J j 1 0.6221 
02-Jun-2018_14:23:48 73370 18 female R 4 2 23 self immoralSelf J j 1 0.7677 
02-Jun-2018_14:23:50 73370 18 female R 4 2 24 self immoralOther H h 1 0.5761 
02-Jun-2018_14:23:57 73370 18 female R 4 3 1 self moralSelf J j 1 0.3816 
02-Jun-2018_14:23:59 73370 18 female R 4 3 2 self immoralOther H h 1 0.5479 
02-Jun-2018_14:24:01 73370 18 female R 4 3 3 self immoralSelf J NA -1 1.0841 
02-Jun-2018_14:24:03 73370 18 female R 4 3 4 self moralOther H h 1 0.7225 
02-Jun-2018_14:24:05 73370 18 female R 4 3 5 self moralSelf J j 1 0.4488 
02-Jun-2018_14:24:07 73370 18 female R 4 3 6 self immoralSelf J j 1 0.7147 
02-Jun-2018_14:24:09 73370 18 female R 4 3 7 self moralSelf J NA -1 1.0841 
02-Jun-2018_14:24:12 73370 18 female R 4 3 8 self moralOther H NA -1 1.0841 
02-Jun-2018_14:24:14 73370 18 female R 4 3 9 self moralOther H NA -1 1.0841 
02-Jun-2018_14:24:16 73370 18 female R 4 3 10 self immoralSelf J NA -1 1.0841 
02-Jun-2018_14:24:19 73370 18 female R 4 3 11 self moralOther H NA -1 1.0841 
02-Jun-2018_14:24:21 73370 18 female R 4 3 12 self moralSelf J j 1 0.5369 
02-Jun-2018_14:24:22 73370 18 female R 4 3 13 self immoralSelf J j 1 0.6932 
02-Jun-2018_14:24:24 73370 18 female R 4 3 14 self immoralOther H h 1 0.5611 
02-Jun-2018_14:24:26 73370 18 female R 4 3 15 self immoralOther H h 1 0.6327 
02-Jun-2018_14:24:28 73370 18 female R 4 3 16 self moralSelf J j 1 0.5656 
02-Jun-2018_14:24:30 73370 18 female R 4 3 17 self moralOther H h 1 0.8088 
02-Jun-2018_14:24:32 73370 18 female R 4 3 18 self moralOther H h 1 0.6136 
02-Jun-2018_14:24:33 73370 18 female R 4 3 19 self moralSelf J j 1 0.6108 
02-Jun-2018_14:24:36 73370 18 female R 4 3 20 self immoralSelf J NA -1 1.0841 
02-Jun-2018_14:24:38 73370 18 female R 4 3 21 self immoralSelf J NA -1 1.0841 
02-Jun-2018_14:24:40 73370 18 female R 4 3 22 self immoralOther H h 1 0.5184 
02-Jun-2018_14:24:42 73370 18 female R 4 3 23 self immoralOther H h 1 0.5905 
02-Jun-2018_14:24:44 73370 18 female R 4 3 24 self immoralOther H h 1 0.5012 
02-Jun-2018_14:24:45 73370 18 female R 4 4 1 self immoralOther H h 1 0.4485 
02-Jun-2018_14:24:47 73370 18 female R 4 4 2 self moralSelf J j 1 0.5267 
02-Jun-2018_14:24:49 73370 18 female R 4 4 3 self moralOther H h 1 0.7441 
02-Jun-2018_14:24:50 73370 18 female R 4 4 4 self immoralOther H h 1 0.5395 
02-Jun-2018_14:24:52 73370 18 female R 4 4 5 self moralOther H h 1 0.7507 
02-Jun-2018_14:24:54 73370 18 female R 4 4 6 self moralSelf J j 1 0.4177 
02-Jun-2018_14:24:56 73370 18 female R 4 4 7 self moralSelf J j 1 0.4117 
02-Jun-2018_14:24:58 73370 18 female R 4 4 8 self immoralOther H h 1 0.5897 
02-Jun-2018_14:25:00 73370 18 female R 4 4 9 self moralOther H h 1 0.7967 
02-Jun-2018_14:25:02 73370 18 female R 4 4 10 self moralOther H h 1 0.5165 
02-Jun-2018_14:25:04 73370 18 female R 4 4 11 self immoralOther H NA -1 1.0841 
02-Jun-2018_14:25:06 73370 18 female R 4 4 12 self immoralOther H NA -1 1.0841 
02-Jun-2018_14:25:08 73370 18 female R 4 4 13 self moralSelf J NA -1 1.0841 
02-Jun-2018_14:25:10 73370 18 female R 4 4 14 self moralSelf J j 1 0.3718 
02-Jun-2018_14:25:12 73370 18 female R 4 4 15 self immoralSelf J j 1 0.6161 
02-Jun-2018_14:25:14 73370 18 female R 4 4 16 self immoralSelf J j 1 0.5047 
02-Jun-2018_14:25:16 73370 18 female R 4 4 17 self immoralSelf J j 1 0.4662 
02-Jun-2018_14:25:17 73370 18 female R 4 4 18 self immoralSelf J j 1 0.5180 
02-Jun-2018_14:25:19 73370 18 female R 4 4 19 self moralOther H j 0 0.1062 
02-Jun-2018_14:25:20 73370 18 female R 4 4 20 self moralOther H j 0 0.1062 
02-Jun-2018_14:25:22 73370 18 female R 4 4 21 self immoralOther H j 0 0.1062 
02-Jun-2018_14:25:23 73370 18 female R 4 4 22 self immoralSelf J h 0 0.6157 
02-Jun-2018_14:25:25 73370 18 female R 4 4 23 self moralSelf J j 1 0.7470 
02-Jun-2018_14:25:27 73370 18 female R 4 4 24 self immoralSelf J j 1 0.4267 
02-Jun-2018_14:25:31 73370 18 female R 4 5 1 self immoralOther H h 1 0.5943 
02-Jun-2018_14:25:33 73370 18 female R 4 5 2 self immoralSelf J j 1 0.5666 
02-Jun-2018_14:25:35 73370 18 female R 4 5 3 self moralOther H h 1 0.7605 
02-Jun-2018_14:25:37 73370 18 female R 4 5 4 self immoralOther H h 1 0.4944 
02-Jun-2018_14:25:39 73370 18 female R 4 5 5 self moralSelf J j 1 0.4699 
02-Jun-2018_14:25:41 73370 18 female R 4 5 6 self moralSelf J j 1 0.5589 
02-Jun-2018_14:25:42 73370 18 female R 4 5 7 self immoralOther H h 1 0.4324 
02-Jun-2018_14:25:44 73370 18 female R 4 5 8 self moralSelf J j 1 0.4192 
02-Jun-2018_14:25:46 73370 18 female R 4 5 9 self immoralOther H h 1 0.4842 
02-Jun-2018_14:25:48 73370 18 female R 4 5 10 self immoralOther H h 1 0.6847 
02-Jun-2018_14:25:49 73370 18 female R 4 5 11 self immoralSelf J j 1 0.5752 
02-Jun-2018_14:25:52 73370 18 female R 4 5 12 self moralSelf J j 1 1.0473 
02-Jun-2018_14:25:53 73370 18 female R 4 5 13 self moralSelf J j 1 0.3707 
02-Jun-2018_14:25:56 73370 18 female R 4 5 14 self moralSelf J NA -1 1.0841 
02-Jun-2018_14:25:58 73370 18 female R 4 5 15 self immoralSelf J NA -1 1.0841 
02-Jun-2018_14:26:00 73370 18 female R 4 5 16 self moralOther H h 1 0.6293 
02-Jun-2018_14:26:01 73370 18 female R 4 5 17 self moralOther H h 1 0.4111 
02-Jun-2018_14:26:03 73370 18 female R 4 5 18 self moralOther H h 1 0.6421 
02-Jun-2018_14:26:05 73370 18 female R 4 5 19 self moralOther H h 1 0.3754 
02-Jun-2018_14:26:07 73370 18 female R 4 5 20 self immoralSelf J j 1 0.6875 
02-Jun-2018_14:26:09 73370 18 female R 4 5 21 self immoralOther H NA -1 1.0841 
02-Jun-2018_14:26:11 73370 18 female R 4 5 22 self immoralSelf J NA -1 1.0841 
02-Jun-2018_14:26:14 73370 18 female R 4 5 23 self immoralSelf J NA -1 1.0841 
02-Jun-2018_14:26:16 73370 18 female R 4 5 24 self moralOther H h 1 0.9621 
Date Sub Age Sex Hand Block Bin Trial Task Shape corrResp Resp ACC RT
02-Jun-2018_14:28:32 73370 18 female R 5 1 1 self immoralSelf J j 1 0.8047 
02-Jun-2018_14:28:34 73370 18 female R 5 1 2 self immoralOther H h 1 0.7305 
02-Jun-2018_14:28:36 73370 18 female R 5 1 3 self immoralOther H h 1 0.7061 
02-Jun-2018_14:28:38 73370 18 female R 5 1 4 self immoralOther H h 1 0.3786 
02-Jun-2018_14:28:40 73370 18 female R 5 1 5 self moralOther H h 1 0.6093 
02-Jun-2018_14:28:41 73370 18 female R 5 1 6 self immoralOther H h 1 0.5346 
02-Jun-2018_14:28:44 73370 18 female R 5 1 7 self moralOther H NA -1 1.0841 
02-Jun-2018_14:28:45 73370 18 female R 5 1 8 self moralSelf J j 1 0.5089 
02-Jun-2018_14:28:47 73370 18 female R 5 1 9 self immoralOther H h 1 0.5226 
02-Jun-2018_14:28:49 73370 18 female R 5 1 10 self immoralSelf J j 1 0.6167 
02-Jun-2018_14:28:51 73370 18 female R 5 1 11 self moralSelf J j 1 0.4893 
02-Jun-2018_14:28:53 73370 18 female R 5 1 12 self immoralSelf J j 1 0.8526 
02-Jun-2018_14:28:55 73370 18 female R 5 1 13 self immoralSelf J j 1 0.4348 
02-Jun-2018_14:28:56 73370 18 female R 5 1 14 self immoralSelf J j 1 0.3996 
02-Jun-2018_14:28:59 73370 18 female R 5 1 15 self moralSelf J NA -1 1.0841 
02-Jun-2018_14:29:00 73370 18 female R 5 1 16 self moralOther H h 1 0.7254 
02-Jun-2018_14:29:03 73370 18 female R 5 1 17 self immoralSelf J j 1 0.6318 
02-Jun-2018_14:29:04 73370 18 female R 5 1 18 self moralSelf J j 1 0.5533 
02-Jun-2018_14:29:06 73370 18 female R 5 1 19 self immoralOther H h 1 0.5929 
02-Jun-2018_14:29:08 73370 18 female R 5 1 20 self moralOther H h 1 0.4673 
02-Jun-2018_14:29:10 73370 18 female R 5 1 21 self moralOther H h 1 0.4472 
02-Jun-2018_14:29:11 73370 18 female R 5 1 22 self moralSelf J j 1 0.3733 
02-Jun-2018_14:29:14 73370 18 female R 5 1 23 self moralSelf J h 0 1.0741 
02-Jun-2018_14:29:16 73370 18 female R 5 1 24 self moralOther H h 1 0.6013 
02-Jun-2018_14:29:18 73370 18 female R 5 2 1 self moralOther H h 1 0.8658 
02-Jun-2018_14:29:20 73370 18 female R 5 2 2 self immoralOther H h 1 0.8518 
02-Jun-2018_14:29:21 73370 18 female R 5 2 3 self immoralOther H h 1 0.4345 
02-Jun-2018_14:29:23 73370 18 female R 5 2 4 self immoralSelf J j 1 0.5724 
02-Jun-2018_14:29:25 73370 18 female R 5 2 5 self immoralSelf J j 1 0.4835 
02-Jun-2018_14:29:27 73370 18 female R 5 2 6 self moralSelf J j 1 0.4502 
02-Jun-2018_14:29:29 73370 18 female R 5 2 7 self moralSelf J j 1 0.5543 
02-Jun-2018_14:29:31 73370 18 female R 5 2 8 self immoralOther H NA -1 1.0841 
02-Jun-2018_14:29:33 73370 18 female R 5 2 9 self moralSelf J j 1 0.9365 
02-Jun-2018_14:29:36 73370 18 female R 5 2 10 self immoralOther H NA -1 1.0841 
02-Jun-2018_14:29:38 73370 18 female R 5 2 11 self moralSelf J j 1 0.4727 
02-Jun-2018_14:29:40 73370 18 female R 5 2 12 self moralSelf J j 1 0.4532 
02-Jun-2018_14:29:41 73370 18 female R 5 2 13 self immoralOther H h 1 0.5990 
02-Jun-2018_14:29:43 73370 18 female R 5 2 14 self moralSelf J j 1 0.9200 
02-Jun-2018_14:29:45 73370 18 female R 5 2 15 self moralOther H h 1 0.4641 
02-Jun-2018_14:29:47 73370 18 female R 5 2 16 self immoralSelf J j 1 0.7503 
02-Jun-2018_14:29:49 73370 18 female R 5 2 17 self moralOther H h 1 0.8289 
02-Jun-2018_14:29:51 73370 18 female R 5 2 18 self moralOther H j 0 0.7608 
02-Jun-2018_14:29:53 73370 18 female R 5 2 19 self moralOther H h 1 0.5270 
02-Jun-2018_14:29:55 73370 18 female R 5 2 20 self immoralOther H h 1 0.5685 
02-Jun-2018_14:29:57 73370 18 female R 5 2 21 self immoralSelf J j 1 0.6334 
02-Jun-2018_14:29:59 73370 18 female R 5 2 22 self immoralSelf J j 1 0.5899 
02-Jun-2018_14:30:01 73370 18 female R 5 2 23 self immoralSelf J j 1 0.5152 
02-Jun-2018_14:30:03 73370 18 female R 5 2 24 self moralOther H NA -1 1.0841 
02-Jun-2018_14:30:08 73370 18 female R 5 3 1 self moralOther H h 1 0.6852 
02-Jun-2018_14:30:10 73370 18 female R 5 3 2 self immoralOther H h 1 0.5254 
02-Jun-2018_14:30:12 73370 18 female R 5 3 3 self moralOther H h 1 0.4167 
02-Jun-2018_14:30:14 73370 18 female R 5 3 4 self immoralSelf J j 1 0.5296 
02-Jun-2018_14:30:16 73370 18 female R 5 3 5 self moralOther H h 1 0.4940 
02-Jun-2018_14:30:17 73370 18 female R 5 3 6 self immoralOther H h 1 0.5383 
02-Jun-2018_14:30:19 73370 18 female R 5 3 7 self immoralOther H h 1 0.5507 
02-Jun-2018_14:30:21 73370 18 female R 5 3 8 self moralSelf J j 1 0.5827 
02-Jun-2018_14:30:23 73370 18 female R 5 3 9 self moralSelf J j 1 0.4872 
02-Jun-2018_14:30:25 73370 18 female R 5 3 10 self moralSelf J j 1 0.4511 
02-Jun-2018_14:30:27 73370 18 female R 5 3 11 self immoralSelf J NA -1 1.0841 
02-Jun-2018_14:30:30 73370 18 female R 5 3 12 self immoralOther H NA -1 1.0841 
02-Jun-2018_14:30:32 73370 18 female R 5 3 13 self moralOther H NA -1 1.0841 
02-Jun-2018_14:30:34 73370 18 female R 5 3 14 self immoralSelf J j 1 0.5851 
02-Jun-2018_14:30:35 73370 18 female R 5 3 15 self immoralOther H h 1 0.4924 
02-Jun-2018_14:30:37 73370 18 female R 5 3 16 self moralOther H h 1 0.7188 
02-Jun-2018_14:30:39 73370 18 female R 5 3 17 self moralSelf J j 1 0.5213 
02-Jun-2018_14:30:42 73370 18 female R 5 3 18 self moralOther H h 1 0.8654 
02-Jun-2018_14:30:43 73370 18 female R 5 3 19 self moralSelf J j 1 0.5205 
02-Jun-2018_14:30:45 73370 18 female R 5 3 20 self immoralSelf J h 0 0.3800 
02-Jun-2018_14:30:47 73370 18 female R 5 3 21 self immoralOther H h 1 0.5047 
02-Jun-2018_14:30:48 73370 18 female R 5 3 22 self immoralSelf J j 1 0.3541 
02-Jun-2018_14:30:50 73370 18 female R 5 3 23 self immoralSelf J j 1 0.4832 
02-Jun-2018_14:30:52 73370 18 female R 5 3 24 self moralSelf J j 1 0.5189 
02-Jun-2018_14:30:54 73370 18 female R 5 4 1 self immoralOther H h 1 0.5309 
02-Jun-2018_14:30:56 73370 18 female R 5 4 2 self immoralOther H h 1 0.5380 
02-Jun-2018_14:30:57 73370 18 female R 5 4 3 self moralOther H h 1 0.6299 
02-Jun-2018_14:30:59 73370 18 female R 5 4 4 self moralOther H h 1 0.4962 
02-Jun-2018_14:31:01 73370 18 female R 5 4 5 self immoralSelf J j 1 0.5772 
02-Jun-2018_14:31:03 73370 18 female R 5 4 6 self moralOther H h 1 0.5692 
02-Jun-2018_14:31:05 73370 18 female R 5 4 7 self moralSelf J j 1 0.6700 
02-Jun-2018_14:31:07 73370 18 female R 5 4 8 self immoralSelf J j 1 0.7054 
02-Jun-2018_14:31:08 73370 18 female R 5 4 9 self immoralSelf J j 1 0.5098 
02-Jun-2018_14:31:11 73370 18 female R 5 4 10 self moralSelf J NA -1 1.0841 
02-Jun-2018_14:31:13 73370 18 female R 5 4 11 self moralOther H NA -1 1.0841 
02-Jun-2018_14:31:16 73370 18 female R 5 4 12 self immoralOther H NA -1 1.0841 
02-Jun-2018_14:31:17 73370 18 female R 5 4 13 self moralSelf J j 1 0.4268 
02-Jun-2018_14:31:19 73370 18 female R 5 4 14 self immoralOther H h 1 0.5040 
02-Jun-2018_14:31:21 73370 18 female R 5 4 15 self immoralSelf J j 1 0.5587 
02-Jun-2018_14:31:23 73370 18 female R 5 4 16 self immoralOther H h 1 1.0044 
02-Jun-2018_14:31:25 73370 18 female R 5 4 17 self immoralSelf J j 1 0.5608 
02-Jun-2018_14:31:27 73370 18 female R 5 4 18 self moralSelf J j 1 0.7759 
02-Jun-2018_14:31:29 73370 18 female R 5 4 19 self immoralSelf J j 1 0.5769 
02-Jun-2018_14:31:31 73370 18 female R 5 4 20 self moralOther H h 1 0.5836 
02-Jun-2018_14:31:33 73370 18 female R 5 4 21 self immoralOther H h 1 0.5032 
02-Jun-2018_14:31:35 73370 18 female R 5 4 22 self moralOther H h 1 0.6199 
02-Jun-2018_14:31:36 73370 18 female R 5 4 23 self moralSelf J j 1 0.5471 
02-Jun-2018_14:31:38 73370 18 female R 5 4 24 self moralSelf J j 1 0.4601 
02-Jun-2018_14:31:43 73370 18 female R 5 5 1 self moralSelf J j 1 0.5817 
02-Jun-2018_14:31:45 73370 18 female R 5 5 2 self moralOther H h 1 0.5323 
02-Jun-2018_14:31:46 73370 18 female R 5 5 3 self immoralOther H h 1 0.6199 
02-Jun-2018_14:31:48 73370 18 female R 5 5 4 self moralSelf J j 1 0.5631 
02-Jun-2018_14:31:50 73370 18 female R 5 5 5 self immoralOther H h 1 0.5363 
02-Jun-2018_14:31:52 73370 18 female R 5 5 6 self moralSelf J j 1 0.5378 
02-Jun-2018_14:31:54 73370 18 female R 5 5 7 self immoralSelf J j 1 0.5839 
02-Jun-2018_14:31:56 73370 18 female R 5 5 8 self immoralOther H h 1 0.5530 
02-Jun-2018_14:31:58 73370 18 female R 5 5 9 self immoralSelf J j 1 0.5973 
02-Jun-2018_14:32:00 73370 18 female R 5 5 10 self immoralOther H h 1 0.7057 
02-Jun-2018_14:32:02 73370 18 female R 5 5 11 self moralOther H h 1 0.6294 
02-Jun-2018_14:32:04 73370 18 female R 5 5 12 self moralSelf J NA -1 1.0841 
02-Jun-2018_14:32:06 73370 18 female R 5 5 13 self moralOther H NA -1 1.0841 
02-Jun-2018_14:32:09 73370 18 female R 5 5 14 self immoralSelf J NA -1 1.0841 
02-Jun-2018_14:32:11 73370 18 female R 5 5 15 self immoralOther H h 1 0.4868 
02-Jun-2018_14:32:13 73370 18 female R 5 5 16 self moralOther H h 1 0.6714 
02-Jun-2018_14:32:15 73370 18 female R 5 5 17 self immoralSelf J j 1 0.6050 
02-Jun-2018_14:32:16 73370 18 female R 5 5 18 self immoralOther H h 1 0.4969 
02-Jun-2018_14:32:18 73370 18 female R 5 5 19 self immoralSelf J j 1 0.6354 
02-Jun-2018_14:32:20 73370 18 female R 5 5 20 self moralOther H h 1 0.6025 
02-Jun-2018_14:32:22 73370 18 female R 5 5 21 self moralSelf J j 1 0.5116 
02-Jun-2018_14:32:24 73370 18 female R 5 5 22 self moralSelf J j 1 0.4234 
02-Jun-2018_14:32:25 73370 18 female R 5 5 23 self moralOther H h 1 0.5527 
02-Jun-2018_14:32:27 73370 18 female R 5 5 24 self immoralSelf J j 1 0.7176 
Date Sub Age Sex Hand Block Bin Trial Task Shape corrResp Resp ACC RT
02-Jun-2018_14:34:42 73370 18 female R 6 1 1 moral moralSelf U u 1 0.4004 
02-Jun-2018_14:34:44 73370 18 female R 6 1 2 moral immoralSelf Y y 1 0.5898 
02-Jun-2018_14:34:46 73370 18 female R 6 1 3 moral immoralSelf Y y 1 0.7286 
02-Jun-2018_14:34:48 73370 18 female R 6 1 4 moral immoralSelf Y y 1 0.5415 
02-Jun-2018_14:34:49 73370 18 female R 6 1 5 moral moralSelf U u 1 0.4065 
02-Jun-2018_14:34:51 73370 18 female R 6 1 6 moral moralSelf U u 1 0.5515 
02-Jun-2018_14:34:53 73370 18 female R 6 1 7 moral immoralOther Y y 1 0.6752 
02-Jun-2018_14:34:55 73370 18 female R 6 1 8 moral moralOther U u 1 0.5243 
02-Jun-2018_14:34:56 73370 18 female R 6 1 9 moral moralOther U u 1 0.4505 
02-Jun-2018_14:34:58 73370 18 female R 6 1 10 moral moralOther U u 1 0.4224 
02-Jun-2018_14:35:00 73370 18 female R 6 1 11 moral immoralOther Y y 1 0.4968 
02-Jun-2018_14:35:02 73370 18 female R 6 1 12 moral moralOther U u 1 0.5806 
02-Jun-2018_14:35:03 73370 18 female R 6 1 13 moral moralSelf U u 1 0.4419 
02-Jun-2018_14:35:05 73370 18 female R 6 1 14 moral moralSelf U u 1 0.3374 
02-Jun-2018_14:35:07 73370 18 female R 6 1 15 moral immoralSelf Y y 1 0.5582 
02-Jun-2018_14:35:09 73370 18 female R 6 1 16 moral moralSelf U u 1 0.5508 
02-Jun-2018_14:35:11 73370 18 female R 6 1 17 moral immoralOther Y y 1 0.5391 
02-Jun-2018_14:35:13 73370 18 female R 6 1 18 moral immoralSelf Y y 1 0.7311 
02-Jun-2018_14:35:15 73370 18 female R 6 1 19 moral immoralOther Y y 1 0.6225 
02-Jun-2018_14:35:16 73370 18 female R 6 1 20 moral immoralOther Y y 1 0.5025 
02-Jun-2018_14:35:18 73370 18 female R 6 1 21 moral immoralSelf Y y 1 0.4094 
02-Jun-2018_14:35:20 73370 18 female R 6 1 22 moral moralOther U u 1 0.4575 
02-Jun-2018_14:35:21 73370 18 female R 6 1 23 moral moralOther U u 1 0.5164 
02-Jun-2018_14:35:23 73370 18 female R 6 1 24 moral immoralOther Y y 1 0.6186 
02-Jun-2018_14:35:25 73370 18 female R 6 2 1 moral moralSelf U u 1 0.5231 
02-Jun-2018_14:35:27 73370 18 female R 6 2 2 moral moralOther U u 1 0.5528 
02-Jun-2018_14:35:29 73370 18 female R 6 2 3 moral moralOther U u 1 0.4697 
02-Jun-2018_14:35:30 73370 18 female R 6 2 4 moral immoralSelf Y y 1 0.4880 
02-Jun-2018_14:35:32 73370 18 female R 6 2 5 moral moralSelf U u 1 0.4072 
02-Jun-2018_14:35:34 73370 18 female R 6 2 6 moral immoralOther Y y 1 0.5150 
02-Jun-2018_14:35:36 73370 18 female R 6 2 7 moral immoralSelf Y y 1 0.5362 
02-Jun-2018_14:35:37 73370 18 female R 6 2 8 moral moralOther U u 1 0.4728 
02-Jun-2018_14:35:39 73370 18 female R 6 2 9 moral immoralOther Y y 1 0.4527 
02-Jun-2018_14:35:41 73370 18 female R 6 2 10 moral immoralOther Y y 1 0.4649 
02-Jun-2018_14:35:43 73370 18 female R 6 2 11 moral immoralSelf Y y 1 0.7545 
02-Jun-2018_14:35:45 73370 18 female R 6 2 12 moral moralOther U u 1 0.4298 
02-Jun-2018_14:35:46 73370 18 female R 6 2 13 moral moralOther U u 1 0.3584 
02-Jun-2018_14:35:48 73370 18 female R 6 2 14 moral immoralSelf Y y 1 0.6012 
02-Jun-2018_14:35:50 73370 18 female R 6 2 15 moral immoralSelf Y y 1 0.4502 
02-Jun-2018_14:35:52 73370 18 female R 6 2 16 moral moralSelf U u 1 0.5026 
02-Jun-2018_14:35:53 73370 18 female R 6 2 17 moral moralSelf U u 1 0.4189 
02-Jun-2018_14:35:55 73370 18 female R 6 2 18 moral immoralOther Y y 1 0.5211 
02-Jun-2018_14:35:57 73370 18 female R 6 2 19 moral moralSelf U u 1 0.4848 
02-Jun-2018_14:35:59 73370 18 female R 6 2 20 moral immoralOther Y y 1 0.4040 
02-Jun-2018_14:36:00 73370 18 female R 6 2 21 moral moralOther U u 1 0.4493 
02-Jun-2018_14:36:02 73370 18 female R 6 2 22 moral immoralOther Y y 1 0.5429 
02-Jun-2018_14:36:04 73370 18 female R 6 2 23 moral moralSelf U u 1 0.4423 
02-Jun-2018_14:36:05 73370 18 female R 6 2 24 moral immoralSelf Y y 1 0.4292 
02-Jun-2018_14:36:12 73370 18 female R 6 3 1 moral moralOther U u 1 0.4026 
02-Jun-2018_14:36:14 73370 18 female R 6 3 2 moral immoralOther Y y 1 0.9857 
02-Jun-2018_14:36:15 73370 18 female R 6 3 3 moral immoralOther Y y 1 0.4197 
02-Jun-2018_14:36:17 73370 18 female R 6 3 4 moral moralSelf U u 1 0.3539 
02-Jun-2018_14:36:19 73370 18 female R 6 3 5 moral immoralSelf Y y 1 0.6749 
02-Jun-2018_14:36:21 73370 18 female R 6 3 6 moral immoralOther Y y 1 0.5427 
02-Jun-2018_14:36:23 73370 18 female R 6 3 7 moral immoralOther Y y 1 0.4901 
02-Jun-2018_14:36:25 73370 18 female R 6 3 8 moral immoralOther Y y 1 0.5020 
02-Jun-2018_14:36:27 73370 18 female R 6 3 9 moral immoralSelf Y y 1 0.5251 
02-Jun-2018_14:36:28 73370 18 female R 6 3 10 moral moralSelf U u 1 0.3939 
02-Jun-2018_14:36:30 73370 18 female R 6 3 11 moral moralOther U u 1 0.3624 
02-Jun-2018_14:36:31 73370 18 female R 6 3 12 moral moralOther U u 1 0.3705 
02-Jun-2018_14:36:33 73370 18 female R 6 3 13 moral moralSelf U u 1 0.4382 
02-Jun-2018_14:36:35 73370 18 female R 6 3 14 moral immoralSelf Y y 1 0.5240 
02-Jun-2018_14:36:36 73370 18 female R 6 3 15 moral immoralOther Y y 1 0.5603 
02-Jun-2018_14:36:39 73370 18 female R 6 3 16 moral immoralSelf Y NA -1 1.0841 
02-Jun-2018_14:36:40 73370 18 female R 6 3 17 moral moralSelf U u 1 0.3564 
02-Jun-2018_14:36:42 73370 18 female R 6 3 18 moral moralOther U u 1 0.3921 
02-Jun-2018_14:36:44 73370 18 female R 6 3 19 moral moralSelf U u 1 0.3526 
02-Jun-2018_14:36:46 73370 18 female R 6 3 20 moral moralSelf U u 1 0.3362 
02-Jun-2018_14:36:47 73370 18 female R 6 3 21 moral moralOther U u 1 0.4798 
02-Jun-2018_14:36:49 73370 18 female R 6 3 22 moral immoralSelf Y y 1 0.6214 
02-Jun-2018_14:36:51 73370 18 female R 6 3 23 moral moralOther U u 1 0.5076 
02-Jun-2018_14:36:53 73370 18 female R 6 3 24 moral immoralSelf Y y 1 0.4616 
02-Jun-2018_14:36:55 73370 18 female R 6 4 1 moral moralOther U u 1 0.5587 
02-Jun-2018_14:36:57 73370 18 female R 6 4 2 moral moralSelf U u 1 0.4520 
02-Jun-2018_14:36:58 73370 18 female R 6 4 3 moral immoralOther Y y 1 0.3978 
02-Jun-2018_14:37:00 73370 18 female R 6 4 4 moral immoralOther Y y 1 0.4562 
02-Jun-2018_14:37:02 73370 18 female R 6 4 5 moral immoralSelf Y y 1 0.5647 
02-Jun-2018_14:37:04 73370 18 female R 6 4 6 moral immoralSelf Y y 1 0.3934 
02-Jun-2018_14:37:05 73370 18 female R 6 4 7 moral immoralSelf Y y 1 0.3755 
02-Jun-2018_14:37:07 73370 18 female R 6 4 8 moral immoralOther Y y 1 0.4986 
02-Jun-2018_14:37:09 73370 18 female R 6 4 9 moral moralOther U u 1 0.3696 
02-Jun-2018_14:37:10 73370 18 female R 6 4 10 moral moralOther U u 1 0.3861 
02-Jun-2018_14:37:12 73370 18 female R 6 4 11 moral moralOther U u 1 0.4474 
02-Jun-2018_14:37:14 73370 18 female R 6 4 12 moral immoralOther Y y 1 0.5994 
02-Jun-2018_14:37:16 73370 18 female R 6 4 13 moral moralSelf U u 1 0.5891 
02-Jun-2018_14:37:18 73370 18 female R 6 4 14 moral moralSelf U u 1 0.7752 
02-Jun-2018_14:37:19 73370 18 female R 6 4 15 moral moralSelf U u 1 0.4712 
02-Jun-2018_14:37:22 73370 18 female R 6 4 16 moral moralOther U NA -1 1.0841 
02-Jun-2018_14:37:24 73370 18 female R 6 4 17 moral moralSelf U NA -1 1.0841 
02-Jun-2018_14:37:26 73370 18 female R 6 4 18 moral immoralOther Y y 1 0.4573 
02-Jun-2018_14:37:27 73370 18 female R 6 4 19 moral immoralSelf Y y 1 0.5985 
02-Jun-2018_14:37:29 73370 18 female R 6 4 20 moral moralOther U u 1 0.5196 
02-Jun-2018_14:37:31 73370 18 female R 6 4 21 moral immoralSelf Y y 1 0.6819 
02-Jun-2018_14:37:33 73370 18 female R 6 4 22 moral moralSelf U u 1 0.4783 
02-Jun-2018_14:37:34 73370 18 female R 6 4 23 moral immoralOther Y y 1 0.4501 
02-Jun-2018_14:37:36 73370 18 female R 6 4 24 moral immoralSelf Y y 1 0.4915 
02-Jun-2018_14:37:40 73370 18 female R 6 5 1 moral moralSelf U u 1 0.3967 
02-Jun-2018_14:37:41 73370 18 female R 6 5 2 moral immoralOther Y y 1 0.3812 
02-Jun-2018_14:37:43 73370 18 female R 6 5 3 moral moralSelf U u 1 0.3916 
02-Jun-2018_14:37:45 73370 18 female R 6 5 4 moral moralSelf U u 1 0.4439 
02-Jun-2018_14:37:47 73370 18 female R 6 5 5 moral immoralSelf Y y 1 0.4731 
02-Jun-2018_14:37:48 73370 18 female R 6 5 6 moral immoralSelf Y y 1 0.4196 
02-Jun-2018_14:37:50 73370 18 female R 6 5 7 moral moralOther U u 1 0.4272 
02-Jun-2018_14:37:52 73370 18 female R 6 5 8 moral immoralSelf Y y 1 0.3948 
02-Jun-2018_14:37:54 73370 18 female R 6 5 9 moral immoralOther Y y 1 0.4932 
02-Jun-2018_14:37:56 73370 18 female R 6 5 10 moral immoralSelf Y y 1 0.4228 
02-Jun-2018_14:37:58 73370 18 female R 6 5 11 moral immoralOther Y y 1 0.4679 
02-Jun-2018_14:38:00 73370 18 female R 6 5 12 moral immoralOther Y y 1 1.0087 
02-Jun-2018_14:38:02 73370 18 female R 6 5 13 moral moralSelf U u 1 0.4874 
02-Jun-2018_14:38:04 73370 18 female R 6 5 14 moral immoralOther Y NA -1 1.0841 
02-Jun-2018_14:38:06 73370 18 female R 6 5 15 moral moralOther U u 1 0.5238 
02-Jun-2018_14:38:08 73370 18 female R 6 5 16 moral immoralSelf Y y 1 0.4472 
02-Jun-2018_14:38:10 73370 18 female R 6 5 17 moral moralSelf U u 1 0.4491 
02-Jun-2018_14:38:11 73370 18 female R 6 5 18 moral moralOther U u 1 0.5000 
02-Jun-2018_14:38:13 73370 18 female R 6 5 19 moral immoralSelf Y y 1 0.4112 
02-Jun-2018_14:38:14 73370 18 female R 6 5 20 moral moralOther U u 1 0.4253 
02-Jun-2018_14:38:16 73370 18 female R 6 5 21 moral moralSelf U u 1 0.4701 
02-Jun-2018_14:38:18 73370 18 female R 6 5 22 moral immoralOther Y y 1 0.4011 
02-Jun-2018_14:38:20 73370 18 female R 6 5 23 moral moralOther U u 1 0.4566 
02-Jun-2018_14:38:21 73370 18 female R 6 5 24 moral moralOther U u 1 0.3842 