Date Sub Age Sex Hand Block Bin Trial Task Shape corrResp Resp ACC RT
17-May-2018_14:04:35 7318 25 female R 1 1 1 self immoralSelf H h 1 0.7188 
17-May-2018_14:04:37 7318 25 female R 1 1 2 self moralOther J j 1 0.8590 
17-May-2018_14:04:39 7318 25 female R 1 1 3 self immoralSelf H h 1 0.6470 
17-May-2018_14:04:41 7318 25 female R 1 1 4 self moralSelf H h 1 0.6812 
17-May-2018_14:04:43 7318 25 female R 1 1 5 self moralOther J j 1 0.4453 
17-May-2018_14:04:45 7318 25 female R 1 1 6 self immoralOther J j 1 0.6554 
17-May-2018_14:04:47 7318 25 female R 1 1 7 self moralSelf H h 1 0.5775 
17-May-2018_14:04:49 7318 25 female R 1 1 8 self moralOther J j 1 0.4357 
17-May-2018_14:04:50 7318 25 female R 1 1 9 self moralSelf H h 1 0.6257 
17-May-2018_14:04:52 7318 25 female R 1 1 10 self immoralOther J j 1 0.4718 
17-May-2018_14:04:54 7318 25 female R 1 1 11 self immoralSelf H h 1 0.6060 
17-May-2018_14:04:56 7318 25 female R 1 1 12 self moralOther J j 1 0.5440 
17-May-2018_14:04:58 7318 25 female R 1 1 13 self immoralOther J j 1 0.6601 
17-May-2018_14:04:59 7318 25 female R 1 1 14 self moralSelf H h 1 0.4722 
17-May-2018_14:05:01 7318 25 female R 1 1 15 self immoralOther J j 1 0.4583 
17-May-2018_14:05:03 7318 25 female R 1 1 16 self moralOther J j 1 0.4724 
17-May-2018_14:05:05 7318 25 female R 1 1 17 self moralOther J j 1 0.5345 
17-May-2018_14:05:06 7318 25 female R 1 1 18 self immoralOther J j 1 0.5667 
17-May-2018_14:05:08 7318 25 female R 1 1 19 self immoralSelf H h 1 0.4587 
17-May-2018_14:05:10 7318 25 female R 1 1 20 self immoralOther J j 1 0.4327 
17-May-2018_14:05:11 7318 25 female R 1 1 21 self moralSelf H h 1 0.4729 
17-May-2018_14:05:13 7318 25 female R 1 1 22 self immoralSelf H h 1 0.4170 
17-May-2018_14:05:15 7318 25 female R 1 1 23 self immoralSelf H h 1 0.4372 
17-May-2018_14:05:17 7318 25 female R 1 1 24 self moralSelf H h 1 0.3673 
17-May-2018_14:05:18 7318 25 female R 1 2 1 self immoralOther J j 1 0.4753 
17-May-2018_14:05:20 7318 25 female R 1 2 2 self immoralOther J j 1 0.3395 
17-May-2018_14:05:22 7318 25 female R 1 2 3 self moralSelf H h 1 0.4795 
17-May-2018_14:05:23 7318 25 female R 1 2 4 self immoralSelf H h 1 0.3416 
17-May-2018_14:05:25 7318 25 female R 1 2 5 self moralSelf H h 1 0.5476 
17-May-2018_14:05:26 7318 25 female R 1 2 6 self immoralSelf H h 1 0.3378 
17-May-2018_14:05:28 7318 25 female R 1 2 7 self immoralOther J j 1 0.4098 
17-May-2018_14:05:29 7318 25 female R 1 2 8 self moralOther J j 1 0.5420 
17-May-2018_14:05:31 7318 25 female R 1 2 9 self moralSelf H h 1 0.4500 
17-May-2018_14:05:32 7318 25 female R 1 2 10 self moralOther J j 1 0.4041 
17-May-2018_14:05:34 7318 25 female R 1 2 11 self immoralSelf H h 1 0.4543 
17-May-2018_14:05:36 7318 25 female R 1 2 12 self immoralSelf H h 1 0.3303 
17-May-2018_14:05:38 7318 25 female R 1 2 13 self immoralSelf H h 1 0.3244 
17-May-2018_14:05:39 7318 25 female R 1 2 14 self moralOther J j 1 0.3825 
17-May-2018_14:05:41 7318 25 female R 1 2 15 self immoralSelf H h 1 0.3766 
17-May-2018_14:05:42 7318 25 female R 1 2 16 self immoralOther J j 1 0.5608 
17-May-2018_14:05:44 7318 25 female R 1 2 17 self moralSelf H h 1 0.5247 
17-May-2018_14:05:46 7318 25 female R 1 2 18 self moralSelf H h 1 0.4169 
17-May-2018_14:05:48 7318 25 female R 1 2 19 self immoralOther J j 1 0.4450 
17-May-2018_14:05:50 7318 25 female R 1 2 20 self moralOther J j 1 0.4771 
17-May-2018_14:05:51 7318 25 female R 1 2 21 self moralOther J j 1 0.3912 
17-May-2018_14:05:53 7318 25 female R 1 2 22 self moralSelf H h 1 0.5012 
17-May-2018_14:05:55 7318 25 female R 1 2 23 self moralOther J j 1 0.4013 
17-May-2018_14:05:56 7318 25 female R 1 2 24 self immoralOther J j 1 0.5214 
17-May-2018_14:06:03 7318 25 female R 1 3 1 self moralOther J j 1 0.5678 
17-May-2018_14:06:05 7318 25 female R 1 3 2 self moralSelf H h 1 0.4139 
17-May-2018_14:06:07 7318 25 female R 1 3 3 self immoralSelf H h 1 0.4040 
17-May-2018_14:06:08 7318 25 female R 1 3 4 self immoralSelf H h 1 0.3041 
17-May-2018_14:06:09 7318 25 female R 1 3 5 self immoralSelf H h 1 0.3002 
17-May-2018_14:06:11 7318 25 female R 1 3 6 self moralSelf H h 1 0.4683 
17-May-2018_14:06:13 7318 25 female R 1 3 7 self moralOther J j 1 0.3563 
17-May-2018_14:06:14 7318 25 female R 1 3 8 self immoralOther J j 1 0.3505 
17-May-2018_14:06:16 7318 25 female R 1 3 9 self moralSelf H h 1 0.3685 
17-May-2018_14:06:18 7318 25 female R 1 3 10 self immoralOther J j 1 0.3787 
17-May-2018_14:06:20 7318 25 female R 1 3 11 self immoralOther J j 1 0.3927 
17-May-2018_14:06:22 7318 25 female R 1 3 12 self immoralOther J j 1 0.5208 
17-May-2018_14:06:23 7318 25 female R 1 3 13 self moralSelf H h 1 0.5650 
17-May-2018_14:06:25 7318 25 female R 1 3 14 self immoralOther J j 1 0.3992 
17-May-2018_14:06:27 7318 25 female R 1 3 15 self moralSelf H h 1 0.3812 
17-May-2018_14:06:29 7318 25 female R 1 3 16 self moralSelf H h 1 0.2973 
17-May-2018_14:06:31 7318 25 female R 1 3 17 self immoralOther J j 1 0.4934 
17-May-2018_14:06:32 7318 25 female R 1 3 18 self moralOther J j 1 0.4895 
17-May-2018_14:06:34 7318 25 female R 1 3 19 self moralOther J j 1 0.3075 
17-May-2018_14:06:35 7318 25 female R 1 3 20 self moralOther J j 1 0.3216 
17-May-2018_14:06:37 7318 25 female R 1 3 21 self immoralSelf H h 1 0.4197 
17-May-2018_14:06:39 7318 25 female R 1 3 22 self immoralSelf H h 1 0.2778 
17-May-2018_14:06:40 7318 25 female R 1 3 23 self immoralSelf H h 1 0.3360 
17-May-2018_14:06:42 7318 25 female R 1 3 24 self moralOther J j 1 0.3440 
17-May-2018_14:06:44 7318 25 female R 1 4 1 self moralSelf H h 1 0.4041 
17-May-2018_14:06:46 7318 25 female R 1 4 2 self immoralSelf H h 1 0.3382 
17-May-2018_14:06:47 7318 25 female R 1 4 3 self immoralOther J j 1 0.3924 
17-May-2018_14:06:49 7318 25 female R 1 4 4 self immoralSelf H h 1 0.4404 
17-May-2018_14:06:50 7318 25 female R 1 4 5 self immoralOther J j 1 0.3545 
17-May-2018_14:06:52 7318 25 female R 1 4 6 self moralSelf H h 1 0.3966 
17-May-2018_14:06:54 7318 25 female R 1 4 7 self moralSelf H h 1 0.3467 
17-May-2018_14:06:55 7318 25 female R 1 4 8 self immoralSelf H h 1 0.3848 
17-May-2018_14:06:57 7318 25 female R 1 4 9 self moralOther J j 1 0.3589 
17-May-2018_14:06:59 7318 25 female R 1 4 10 self moralSelf H h 1 0.3710 
17-May-2018_14:07:01 7318 25 female R 1 4 11 self immoralSelf H h 1 0.3231 
17-May-2018_14:07:02 7318 25 female R 1 4 12 self immoralOther J j 1 0.3854 
17-May-2018_14:07:04 7318 25 female R 1 4 13 self immoralSelf H h 1 0.3752 
17-May-2018_14:07:06 7318 25 female R 1 4 14 self immoralOther J j 1 0.3694 
17-May-2018_14:07:07 7318 25 female R 1 4 15 self moralSelf H h 1 0.3796 
17-May-2018_14:07:09 7318 25 female R 1 4 16 self immoralSelf H h 1 0.3775 
17-May-2018_14:07:10 7318 25 female R 1 4 17 self moralOther J j 1 0.3797 
17-May-2018_14:07:12 7318 25 female R 1 4 18 self moralOther J j 1 0.3377 
17-May-2018_14:07:14 7318 25 female R 1 4 19 self immoralOther J h 0 0.4038 
17-May-2018_14:07:15 7318 25 female R 1 4 20 self moralOther J j 1 0.3339 
17-May-2018_14:07:17 7318 25 female R 1 4 21 self moralSelf H h 1 0.4959 
17-May-2018_14:07:19 7318 25 female R 1 4 22 self immoralOther J j 1 0.3541 
17-May-2018_14:07:20 7318 25 female R 1 4 23 self moralOther J j 1 0.4042 
17-May-2018_14:07:22 7318 25 female R 1 4 24 self moralOther J j 1 0.3522 
17-May-2018_14:07:28 7318 25 female R 1 5 1 self moralOther J j 1 0.5066 
17-May-2018_14:07:30 7318 25 female R 1 5 2 self moralSelf H h 1 0.4307 
17-May-2018_14:07:32 7318 25 female R 1 5 3 self immoralOther J j 1 0.4229 
17-May-2018_14:07:34 7318 25 female R 1 5 4 self moralSelf H h 1 0.4490 
17-May-2018_14:07:35 7318 25 female R 1 5 5 self immoralOther J j 1 0.3791 
17-May-2018_14:07:37 7318 25 female R 1 5 6 self immoralOther J j 1 0.3591 
17-May-2018_14:07:38 7318 25 female R 1 5 7 self immoralOther J j 1 0.3512 
17-May-2018_14:07:39 7318 25 female R 1 5 8 self moralSelf H h 1 0.3993 
17-May-2018_14:07:41 7318 25 female R 1 5 9 self moralSelf H h 1 0.3093 
17-May-2018_14:07:42 7318 25 female R 1 5 10 self moralOther J j 1 0.3735 
17-May-2018_14:07:44 7318 25 female R 1 5 11 self moralOther J j 1 0.3316 
17-May-2018_14:07:45 7318 25 female R 1 5 12 self immoralSelf H h 1 0.3677 
17-May-2018_14:07:47 7318 25 female R 1 5 13 self immoralSelf H h 1 0.3177 
17-May-2018_14:07:48 7318 25 female R 1 5 14 self immoralSelf H h 1 0.3618 
17-May-2018_14:07:50 7318 25 female R 1 5 15 self immoralOther J j 1 0.4979 
17-May-2018_14:07:52 7318 25 female R 1 5 16 self moralOther J j 1 0.3659 
17-May-2018_14:07:54 7318 25 female R 1 5 17 self immoralSelf H h 1 0.3421 
17-May-2018_14:07:56 7318 25 female R 1 5 18 self moralOther J j 1 0.5582 
17-May-2018_14:07:57 7318 25 female R 1 5 19 self immoralSelf H h 1 0.3882 
17-May-2018_14:07:59 7318 25 female R 1 5 20 self moralOther J j 1 0.3444 
17-May-2018_14:08:01 7318 25 female R 1 5 21 self immoralOther J j 1 0.4744 
17-May-2018_14:08:02 7318 25 female R 1 5 22 self moralSelf H h 1 0.4946 
17-May-2018_14:08:04 7318 25 female R 1 5 23 self moralSelf H h 1 0.4667 
17-May-2018_14:08:06 7318 25 female R 1 5 24 self immoralSelf H h 1 0.3228 
Date Sub Age Sex Hand Block Bin Trial Task Shape corrResp Resp ACC RT
17-May-2018_14:10:46 7318 25 female R 2 1 1 moral immoralOther Y y 1 0.7579 
17-May-2018_14:10:48 7318 25 female R 2 1 2 moral immoralOther Y y 1 0.7639 
17-May-2018_14:10:50 7318 25 female R 2 1 3 moral immoralSelf Y u 0 0.6780 
17-May-2018_14:10:52 7318 25 female R 2 1 4 moral moralSelf U u 1 0.6022 
17-May-2018_14:10:54 7318 25 female R 2 1 5 moral moralOther U u 1 0.6382 
17-May-2018_14:10:56 7318 25 female R 2 1 6 moral immoralSelf Y y 1 0.6843 
17-May-2018_14:10:58 7318 25 female R 2 1 7 moral moralOther U u 1 0.5685 
17-May-2018_14:11:00 7318 25 female R 2 1 8 moral moralOther U u 1 0.4126 
17-May-2018_14:11:01 7318 25 female R 2 1 9 moral immoralSelf Y y 1 0.8126 
17-May-2018_14:11:03 7318 25 female R 2 1 10 moral moralSelf U u 1 0.6408 
17-May-2018_14:11:05 7318 25 female R 2 1 11 moral moralSelf U u 1 0.4669 
17-May-2018_14:11:07 7318 25 female R 2 1 12 moral immoralOther Y u 0 0.5189 
17-May-2018_14:11:09 7318 25 female R 2 1 13 moral immoralSelf Y y 1 0.7172 
17-May-2018_14:11:11 7318 25 female R 2 1 14 moral moralSelf U u 1 0.6532 
17-May-2018_14:11:13 7318 25 female R 2 1 15 moral moralOther U u 1 0.6033 
17-May-2018_14:11:14 7318 25 female R 2 1 16 moral moralSelf U u 1 0.4435 
17-May-2018_14:11:17 7318 25 female R 2 1 17 moral immoralOther Y y 1 0.9795 
17-May-2018_14:11:19 7318 25 female R 2 1 18 moral moralOther U u 1 0.7436 
17-May-2018_14:11:21 7318 25 female R 2 1 19 moral immoralOther Y y 1 0.6557 
17-May-2018_14:11:23 7318 25 female R 2 1 20 moral immoralSelf Y y 1 0.7818 
17-May-2018_14:11:25 7318 25 female R 2 1 21 moral moralSelf U u 1 0.6960 
17-May-2018_14:11:27 7318 25 female R 2 1 22 moral immoralSelf Y y 1 0.5083 
17-May-2018_14:11:29 7318 25 female R 2 1 23 moral moralOther U u 1 0.5122 
17-May-2018_14:11:31 7318 25 female R 2 1 24 moral immoralOther Y y 1 0.6783 
17-May-2018_14:11:33 7318 25 female R 2 2 1 moral moralSelf U u 1 0.7704 
17-May-2018_14:11:34 7318 25 female R 2 2 2 moral immoralSelf Y y 1 0.5245 
17-May-2018_14:11:36 7318 25 female R 2 2 3 moral moralSelf U u 1 0.4467 
17-May-2018_14:11:37 7318 25 female R 2 2 4 moral moralSelf U u 1 0.5387 
17-May-2018_14:11:39 7318 25 female R 2 2 5 moral immoralSelf Y y 1 0.4848 
17-May-2018_14:11:41 7318 25 female R 2 2 6 moral moralSelf U u 1 0.7549 
17-May-2018_14:11:43 7318 25 female R 2 2 7 moral immoralSelf Y y 1 0.4930 
17-May-2018_14:11:45 7318 25 female R 2 2 8 moral immoralSelf Y y 1 0.4112 
17-May-2018_14:11:46 7318 25 female R 2 2 9 moral immoralOther Y u 0 0.4413 
17-May-2018_14:11:48 7318 25 female R 2 2 10 moral moralOther U u 1 0.5713 
17-May-2018_14:11:50 7318 25 female R 2 2 11 moral moralSelf U y 0 0.6114 
17-May-2018_14:11:52 7318 25 female R 2 2 12 moral moralSelf U u 1 0.3975 
17-May-2018_14:11:54 7318 25 female R 2 2 13 moral immoralOther Y y 1 0.6716 
17-May-2018_14:11:56 7318 25 female R 2 2 14 moral moralOther U u 1 0.4837 
17-May-2018_14:11:57 7318 25 female R 2 2 15 moral immoralSelf Y y 1 0.4719 
17-May-2018_14:11:59 7318 25 female R 2 2 16 moral immoralOther Y y 1 0.7339 
17-May-2018_14:12:01 7318 25 female R 2 2 17 moral immoralOther Y y 1 0.3940 
17-May-2018_14:12:03 7318 25 female R 2 2 18 moral immoralSelf Y y 1 0.6141 
17-May-2018_14:12:04 7318 25 female R 2 2 19 moral moralOther U u 1 0.4162 
17-May-2018_14:12:06 7318 25 female R 2 2 20 moral moralOther U u 1 0.4103 
17-May-2018_14:12:07 7318 25 female R 2 2 21 moral immoralOther Y y 1 0.4544 
17-May-2018_14:12:09 7318 25 female R 2 2 22 moral moralOther U u 1 0.5405 
17-May-2018_14:12:11 7318 25 female R 2 2 23 moral immoralOther Y y 1 0.6426 
17-May-2018_14:12:13 7318 25 female R 2 2 24 moral moralOther U u 1 0.3988 
17-May-2018_14:12:19 7318 25 female R 2 3 1 moral moralSelf U u 1 0.5490 
17-May-2018_14:12:21 7318 25 female R 2 3 2 moral immoralSelf Y y 1 0.4492 
17-May-2018_14:12:23 7318 25 female R 2 3 3 moral moralSelf U u 1 0.4572 
17-May-2018_14:12:24 7318 25 female R 2 3 4 moral moralOther U u 1 0.3154 
17-May-2018_14:12:26 7318 25 female R 2 3 5 moral moralOther U u 1 0.3854 
17-May-2018_14:12:27 7318 25 female R 2 3 6 moral immoralSelf Y y 1 0.4156 
17-May-2018_14:12:29 7318 25 female R 2 3 7 moral moralSelf U u 1 0.6257 
17-May-2018_14:12:31 7318 25 female R 2 3 8 moral moralSelf U u 1 0.3758 
17-May-2018_14:12:32 7318 25 female R 2 3 9 moral immoralSelf Y u 0 0.3098 
17-May-2018_14:12:34 7318 25 female R 2 3 10 moral moralOther U u 1 0.4739 
17-May-2018_14:12:36 7318 25 female R 2 3 11 moral immoralOther Y y 1 0.6600 
17-May-2018_14:12:37 7318 25 female R 2 3 12 moral moralOther U u 1 0.4701 
17-May-2018_14:12:39 7318 25 female R 2 3 13 moral moralOther U u 1 0.4802 
17-May-2018_14:12:41 7318 25 female R 2 3 14 moral immoralSelf Y y 1 0.4583 
17-May-2018_14:12:42 7318 25 female R 2 3 15 moral moralSelf U u 1 0.3924 
17-May-2018_14:12:44 7318 25 female R 2 3 16 moral immoralOther Y y 1 0.6565 
17-May-2018_14:12:46 7318 25 female R 2 3 17 moral immoralSelf Y y 1 0.4067 
17-May-2018_14:12:47 7318 25 female R 2 3 18 moral immoralSelf Y y 1 0.3327 
17-May-2018_14:12:49 7318 25 female R 2 3 19 moral moralOther U u 1 0.4068 
17-May-2018_14:12:51 7318 25 female R 2 3 20 moral immoralOther Y y 1 0.6149 
17-May-2018_14:12:52 7318 25 female R 2 3 21 moral immoralOther Y y 1 0.5789 
17-May-2018_14:12:54 7318 25 female R 2 3 22 moral moralSelf U u 1 0.5051 
17-May-2018_14:12:56 7318 25 female R 2 3 23 moral immoralOther Y y 1 0.5231 
17-May-2018_14:12:57 7318 25 female R 2 3 24 moral immoralOther Y y 1 0.3472 
17-May-2018_14:12:59 7318 25 female R 2 4 1 moral moralSelf U u 1 0.4974 
17-May-2018_14:13:01 7318 25 female R 2 4 2 moral moralOther U u 1 0.5557 
17-May-2018_14:13:02 7318 25 female R 2 4 3 moral immoralSelf Y y 1 0.4115 
17-May-2018_14:13:04 7318 25 female R 2 4 4 moral moralOther U u 1 0.4456 
17-May-2018_14:13:06 7318 25 female R 2 4 5 moral moralOther U u 1 0.4457 
17-May-2018_14:13:07 7318 25 female R 2 4 6 moral moralSelf U y 0 0.3478 
17-May-2018_14:13:09 7318 25 female R 2 4 7 moral moralOther U u 1 0.4919 
17-May-2018_14:13:11 7318 25 female R 2 4 8 moral immoralOther Y y 1 0.4200 
17-May-2018_14:13:13 7318 25 female R 2 4 9 moral moralSelf U u 1 0.4681 
17-May-2018_14:13:15 7318 25 female R 2 4 10 moral immoralSelf Y y 1 0.4623 
17-May-2018_14:13:16 7318 25 female R 2 4 11 moral immoralOther Y y 1 0.6023 
17-May-2018_14:13:18 7318 25 female R 2 4 12 moral moralOther U u 1 0.5044 
17-May-2018_14:13:20 7318 25 female R 2 4 13 moral immoralSelf Y y 1 0.4144 
17-May-2018_14:13:22 7318 25 female R 2 4 14 moral moralSelf U u 1 0.4966 
17-May-2018_14:13:23 7318 25 female R 2 4 15 moral immoralSelf Y y 1 0.4427 
17-May-2018_14:13:25 7318 25 female R 2 4 16 moral immoralOther Y y 1 0.5909 
17-May-2018_14:13:26 7318 25 female R 2 4 17 moral moralSelf U y 0 0.4129 
17-May-2018_14:13:28 7318 25 female R 2 4 18 moral immoralSelf Y y 1 0.5090 
17-May-2018_14:13:30 7318 25 female R 2 4 19 moral moralOther U u 1 0.4531 
17-May-2018_14:13:32 7318 25 female R 2 4 20 moral immoralOther Y y 1 0.6033 
17-May-2018_14:13:34 7318 25 female R 2 4 21 moral immoralSelf Y y 1 0.5073 
17-May-2018_14:13:36 7318 25 female R 2 4 22 moral moralSelf U u 1 0.4874 
17-May-2018_14:13:38 7318 25 female R 2 4 23 moral immoralOther Y y 1 0.5034 
17-May-2018_14:13:39 7318 25 female R 2 4 24 moral immoralOther Y y 1 0.5196 
17-May-2018_14:13:44 7318 25 female R 2 5 1 moral immoralOther Y NA -1 1.0850 
17-May-2018_14:13:46 7318 25 female R 2 5 2 moral immoralSelf Y y 1 0.5379 
17-May-2018_14:13:48 7318 25 female R 2 5 3 moral immoralSelf Y y 1 0.3982 
17-May-2018_14:13:49 7318 25 female R 2 5 4 moral moralSelf U u 1 0.5402 
17-May-2018_14:13:51 7318 25 female R 2 5 5 moral immoralOther Y y 1 0.5942 
17-May-2018_14:13:53 7318 25 female R 2 5 6 moral moralSelf U u 1 0.5323 
17-May-2018_14:13:55 7318 25 female R 2 5 7 moral immoralOther Y y 1 0.5464 
17-May-2018_14:13:57 7318 25 female R 2 5 8 moral moralSelf U u 1 0.4806 
17-May-2018_14:13:58 7318 25 female R 2 5 9 moral moralSelf U u 1 0.4267 
17-May-2018_14:14:00 7318 25 female R 2 5 10 moral immoralSelf Y y 1 0.4068 
17-May-2018_14:14:02 7318 25 female R 2 5 11 moral immoralOther Y y 1 0.5429 
17-May-2018_14:14:04 7318 25 female R 2 5 12 moral moralOther U u 1 0.4889 
17-May-2018_14:14:06 7318 25 female R 2 5 13 moral immoralOther Y y 1 0.3971 
17-May-2018_14:14:07 7318 25 female R 2 5 14 moral moralOther U u 1 0.4752 
17-May-2018_14:14:09 7318 25 female R 2 5 15 moral moralOther U u 1 0.5232 
17-May-2018_14:14:11 7318 25 female R 2 5 16 moral immoralSelf Y y 1 0.4314 
17-May-2018_14:14:12 7318 25 female R 2 5 17 moral moralOther U u 1 0.4055 
17-May-2018_14:14:14 7318 25 female R 2 5 18 moral immoralSelf Y y 1 0.3816 
17-May-2018_14:14:16 7318 25 female R 2 5 19 moral moralOther U u 1 0.4216 
17-May-2018_14:14:18 7318 25 female R 2 5 20 moral moralSelf U u 1 0.4597 
17-May-2018_14:14:19 7318 25 female R 2 5 21 moral immoralOther Y y 1 0.4899 
17-May-2018_14:14:21 7318 25 female R 2 5 22 moral moralSelf U y 0 0.5079 
17-May-2018_14:14:23 7318 25 female R 2 5 23 moral moralOther U u 1 0.4701 
17-May-2018_14:14:25 7318 25 female R 2 5 24 moral immoralSelf Y y 1 0.4502 
Date Sub Age Sex Hand Block Bin Trial Task Shape corrResp Resp ACC RT
17-May-2018_14:16:44 7318 25 female R 3 1 1 self immoralOther J j 1 0.8360 
17-May-2018_14:16:46 7318 25 female R 3 1 2 self moralSelf H h 1 0.5662 
17-May-2018_14:16:48 7318 25 female R 3 1 3 self immoralSelf H h 1 0.8162 
17-May-2018_14:16:50 7318 25 female R 3 1 4 self moralSelf H h 1 0.5924 
17-May-2018_14:16:52 7318 25 female R 3 1 5 self immoralSelf H h 1 0.4145 
17-May-2018_14:16:53 7318 25 female R 3 1 6 self moralSelf H h 1 0.4226 
17-May-2018_14:16:55 7318 25 female R 3 1 7 self immoralOther J j 1 0.5546 
17-May-2018_14:16:57 7318 25 female R 3 1 8 self moralOther J j 1 0.6867 
17-May-2018_14:16:59 7318 25 female R 3 1 9 self immoralOther J j 1 0.5228 
17-May-2018_14:17:01 7318 25 female R 3 1 10 self moralOther J j 1 0.3809 
17-May-2018_14:17:03 7318 25 female R 3 1 11 self immoralOther J j 1 0.5570 
17-May-2018_14:17:04 7318 25 female R 3 1 12 self moralOther J j 1 0.4251 
17-May-2018_14:17:06 7318 25 female R 3 1 13 self moralSelf H h 1 0.5753 
17-May-2018_14:17:08 7318 25 female R 3 1 14 self immoralOther J j 1 0.3934 
17-May-2018_14:17:09 7318 25 female R 3 1 15 self immoralSelf H h 1 0.5515 
17-May-2018_14:17:11 7318 25 female R 3 1 16 self moralOther J j 1 0.3595 
17-May-2018_14:17:13 7318 25 female R 3 1 17 self immoralOther J j 1 0.4036 
17-May-2018_14:17:15 7318 25 female R 3 1 18 self moralOther J j 1 0.3397 
17-May-2018_14:17:16 7318 25 female R 3 1 19 self moralSelf H h 1 0.4038 
17-May-2018_14:17:18 7318 25 female R 3 1 20 self immoralSelf H h 1 0.4339 
17-May-2018_14:17:20 7318 25 female R 3 1 21 self moralSelf H h 1 0.3880 
17-May-2018_14:17:21 7318 25 female R 3 1 22 self immoralSelf H h 1 0.3182 
17-May-2018_14:17:23 7318 25 female R 3 1 23 self moralOther J j 1 0.3702 
17-May-2018_14:17:25 7318 25 female R 3 1 24 self immoralSelf H j 0 0.3703 
17-May-2018_14:17:26 7318 25 female R 3 2 1 self moralOther J j 1 0.3804 
17-May-2018_14:17:28 7318 25 female R 3 2 2 self moralSelf H h 1 0.5425 
17-May-2018_14:17:30 7318 25 female R 3 2 3 self immoralOther J j 1 0.6786 
17-May-2018_14:17:31 7318 25 female R 3 2 4 self moralSelf H h 1 0.5307 
17-May-2018_14:17:33 7318 25 female R 3 2 5 self immoralOther J j 1 0.3588 
17-May-2018_14:17:35 7318 25 female R 3 2 6 self immoralOther J j 1 0.4729 
17-May-2018_14:17:37 7318 25 female R 3 2 7 self moralOther J j 1 0.3531 
17-May-2018_14:17:38 7318 25 female R 3 2 8 self moralSelf H h 1 0.4711 
17-May-2018_14:17:40 7318 25 female R 3 2 9 self immoralSelf H h 1 0.3472 
17-May-2018_14:17:42 7318 25 female R 3 2 10 self moralSelf H h 1 0.4493 
17-May-2018_14:17:44 7318 25 female R 3 2 11 self moralSelf H h 1 0.5394 
17-May-2018_14:17:45 7318 25 female R 3 2 12 self immoralSelf H h 1 0.3835 
17-May-2018_14:17:47 7318 25 female R 3 2 13 self moralOther J j 1 0.4516 
17-May-2018_14:17:48 7318 25 female R 3 2 14 self immoralSelf H h 1 0.3716 
17-May-2018_14:17:50 7318 25 female R 3 2 15 self immoralSelf H h 1 0.3278 
17-May-2018_14:17:52 7318 25 female R 3 2 16 self immoralOther J j 1 0.3858 
17-May-2018_14:17:54 7318 25 female R 3 2 17 self moralOther J j 1 0.3479 
17-May-2018_14:17:55 7318 25 female R 3 2 18 self moralOther J j 1 0.3159 
17-May-2018_14:17:57 7318 25 female R 3 2 19 self immoralSelf H h 1 0.4662 
17-May-2018_14:17:58 7318 25 female R 3 2 20 self moralOther J j 1 0.3842 
17-May-2018_14:18:00 7318 25 female R 3 2 21 self moralSelf H h 1 0.5064 
17-May-2018_14:18:02 7318 25 female R 3 2 22 self immoralSelf H h 1 0.3663 
17-May-2018_14:18:03 7318 25 female R 3 2 23 self immoralOther J j 1 0.3665 
17-May-2018_14:18:05 7318 25 female R 3 2 24 self immoralOther J j 1 0.3906 
17-May-2018_14:18:10 7318 25 female R 3 3 1 self moralSelf H h 1 0.5348 
17-May-2018_14:18:11 7318 25 female R 3 3 2 self moralOther J j 1 0.4250 
17-May-2018_14:18:13 7318 25 female R 3 3 3 self immoralSelf H h 1 0.4633 
17-May-2018_14:18:14 7318 25 female R 3 3 4 self immoralSelf H h 1 0.3471 
17-May-2018_14:18:16 7318 25 female R 3 3 5 self immoralSelf H h 1 0.3474 
17-May-2018_14:18:18 7318 25 female R 3 3 6 self immoralSelf H h 1 0.3253 
17-May-2018_14:18:19 7318 25 female R 3 3 7 self immoralSelf H h 1 0.3235 
17-May-2018_14:18:21 7318 25 female R 3 3 8 self immoralOther J j 1 0.3835 
17-May-2018_14:18:23 7318 25 female R 3 3 9 self immoralOther J j 1 0.4537 
17-May-2018_14:18:24 7318 25 female R 3 3 10 self moralSelf H h 1 0.5036 
17-May-2018_14:18:26 7318 25 female R 3 3 11 self moralSelf H h 1 0.3998 
17-May-2018_14:18:28 7318 25 female R 3 3 12 self moralSelf H h 1 0.3639 
17-May-2018_14:18:29 7318 25 female R 3 3 13 self moralOther J j 1 0.4260 
17-May-2018_14:18:31 7318 25 female R 3 3 14 self immoralOther J j 1 0.3901 
17-May-2018_14:18:33 7318 25 female R 3 3 15 self moralSelf H h 1 0.4022 
17-May-2018_14:18:35 7318 25 female R 3 3 16 self moralOther J h 0 0.3502 
17-May-2018_14:18:36 7318 25 female R 3 3 17 self moralOther J j 1 0.4224 
17-May-2018_14:18:38 7318 25 female R 3 3 18 self moralOther J j 1 0.3684 
17-May-2018_14:18:39 7318 25 female R 3 3 19 self immoralOther J j 1 0.3924 
17-May-2018_14:18:41 7318 25 female R 3 3 20 self immoralOther J j 1 0.3471 
17-May-2018_14:18:42 7318 25 female R 3 3 21 self immoralOther J j 1 0.3069 
17-May-2018_14:18:44 7318 25 female R 3 3 22 self moralOther J j 1 0.3768 
17-May-2018_14:18:45 7318 25 female R 3 3 23 self moralSelf H h 1 0.4169 
17-May-2018_14:18:47 7318 25 female R 3 3 24 self immoralSelf H h 1 0.3610 
17-May-2018_14:18:49 7318 25 female R 3 4 1 self moralOther J j 1 0.3791 
17-May-2018_14:18:50 7318 25 female R 3 4 2 self moralOther J j 1 0.3271 
17-May-2018_14:18:52 7318 25 female R 3 4 3 self immoralOther J j 1 0.5153 
17-May-2018_14:18:53 7318 25 female R 3 4 4 self immoralOther J j 1 0.3414 
17-May-2018_14:18:55 7318 25 female R 3 4 5 self immoralOther J j 1 0.3934 
17-May-2018_14:18:57 7318 25 female R 3 4 6 self moralSelf H j 0 0.3675 
17-May-2018_14:18:59 7318 25 female R 3 4 7 self immoralSelf H h 1 0.4016 
17-May-2018_14:19:00 7318 25 female R 3 4 8 self moralSelf H h 1 0.3397 
17-May-2018_14:19:02 7318 25 female R 3 4 9 self immoralSelf H h 1 0.3098 
17-May-2018_14:19:04 7318 25 female R 3 4 10 self immoralOther J j 1 0.4319 
17-May-2018_14:19:06 7318 25 female R 3 4 11 self immoralSelf H h 1 0.4501 
17-May-2018_14:19:07 7318 25 female R 3 4 12 self moralSelf H h 1 0.5081 
17-May-2018_14:19:09 7318 25 female R 3 4 13 self moralOther J j 1 0.3762 
17-May-2018_14:19:11 7318 25 female R 3 4 14 self moralOther J j 1 0.3063 
17-May-2018_14:19:12 7318 25 female R 3 4 15 self moralOther J j 1 0.2884 
17-May-2018_14:19:14 7318 25 female R 3 4 16 self immoralSelf H h 1 0.4204 
17-May-2018_14:19:16 7318 25 female R 3 4 17 self moralSelf H h 1 0.7106 
17-May-2018_14:19:17 7318 25 female R 3 4 18 self immoralSelf H h 1 0.3107 
17-May-2018_14:19:19 7318 25 female R 3 4 19 self moralSelf H h 1 0.3548 
17-May-2018_14:19:20 7318 25 female R 3 4 20 self moralOther J j 1 0.3869 
17-May-2018_14:19:22 7318 25 female R 3 4 21 self immoralOther J j 1 0.5950 
17-May-2018_14:19:24 7318 25 female R 3 4 22 self immoralOther J j 1 0.3371 
17-May-2018_14:19:26 7318 25 female R 3 4 23 self immoralSelf H h 1 0.4332 
17-May-2018_14:19:27 7318 25 female R 3 4 24 self moralSelf H h 1 0.4772 
17-May-2018_14:19:33 7318 25 female R 3 5 1 self moralOther J j 1 0.6096 
17-May-2018_14:19:35 7318 25 female R 3 5 2 self immoralOther J j 1 0.3858 
17-May-2018_14:19:37 7318 25 female R 3 5 3 self moralSelf H h 1 0.4239 
17-May-2018_14:19:38 7318 25 female R 3 5 4 self immoralSelf H h 1 0.3579 
17-May-2018_14:19:40 7318 25 female R 3 5 5 self immoralSelf H h 1 0.3099 
17-May-2018_14:19:41 7318 25 female R 3 5 6 self moralOther J j 1 0.3741 
17-May-2018_14:19:43 7318 25 female R 3 5 7 self moralOther J j 1 0.3922 
17-May-2018_14:19:45 7318 25 female R 3 5 8 self immoralOther J j 1 0.4082 
17-May-2018_14:19:46 7318 25 female R 3 5 9 self immoralOther J j 1 0.2666 
17-May-2018_14:19:48 7318 25 female R 3 5 10 self moralSelf H h 1 0.3964 
17-May-2018_14:19:49 7318 25 female R 3 5 11 self moralOther J j 1 0.3806 
17-May-2018_14:19:51 7318 25 female R 3 5 12 self moralSelf H h 1 0.4567 
17-May-2018_14:19:53 7318 25 female R 3 5 13 self immoralOther J j 1 0.3667 
17-May-2018_14:19:55 7318 25 female R 3 5 14 self moralSelf H h 1 0.4367 
17-May-2018_14:19:57 7318 25 female R 3 5 15 self moralSelf H h 1 0.3728 
17-May-2018_14:19:58 7318 25 female R 3 5 16 self immoralSelf H h 1 0.3451 
17-May-2018_14:20:00 7318 25 female R 3 5 17 self immoralSelf H h 1 0.3571 
17-May-2018_14:20:02 7318 25 female R 3 5 18 self immoralSelf H h 1 0.3552 
17-May-2018_14:20:04 7318 25 female R 3 5 19 self moralSelf H h 1 0.4212 
17-May-2018_14:20:05 7318 25 female R 3 5 20 self immoralOther J j 1 0.4135 
17-May-2018_14:20:07 7318 25 female R 3 5 21 self moralOther J j 1 0.3295 
17-May-2018_14:20:09 7318 25 female R 3 5 22 self moralOther J j 1 0.3676 
17-May-2018_14:20:10 7318 25 female R 3 5 23 self immoralSelf H h 1 0.4436 
17-May-2018_14:20:12 7318 25 female R 3 5 24 self immoralOther J j 1 0.3938 
Date Sub Age Sex Hand Block Bin Trial Task Shape corrResp Resp ACC RT
17-May-2018_14:22:27 7318 25 female R 4 1 1 moral moralOther U u 1 0.4954 
17-May-2018_14:22:29 7318 25 female R 4 1 2 moral immoralSelf Y u 0 0.5016 
17-May-2018_14:22:30 7318 25 female R 4 1 3 moral immoralOther Y y 1 0.8776 
17-May-2018_14:22:32 7318 25 female R 4 1 4 moral moralSelf U u 1 0.4277 
17-May-2018_14:22:34 7318 25 female R 4 1 5 moral immoralSelf Y y 1 0.6178 
17-May-2018_14:22:36 7318 25 female R 4 1 6 moral moralSelf U u 1 0.4920 
17-May-2018_14:22:38 7318 25 female R 4 1 7 moral moralSelf U u 1 0.3800 
17-May-2018_14:22:40 7318 25 female R 4 1 8 moral immoralSelf Y y 1 0.4541 
17-May-2018_14:22:42 7318 25 female R 4 1 9 moral immoralOther Y y 1 0.6883 
17-May-2018_14:22:44 7318 25 female R 4 1 10 moral moralSelf U u 1 0.6203 
17-May-2018_14:22:46 7318 25 female R 4 1 11 moral immoralOther Y y 1 0.6805 
17-May-2018_14:22:48 7318 25 female R 4 1 12 moral immoralSelf Y u 0 0.4666 
17-May-2018_14:22:49 7318 25 female R 4 1 13 moral moralOther U u 1 0.6906 
17-May-2018_14:22:51 7318 25 female R 4 1 14 moral immoralOther Y y 1 0.6747 
17-May-2018_14:22:53 7318 25 female R 4 1 15 moral moralOther U u 1 0.4509 
17-May-2018_14:22:55 7318 25 female R 4 1 16 moral moralOther U u 1 0.4310 
17-May-2018_14:22:56 7318 25 female R 4 1 17 moral moralOther U u 1 0.4511 
17-May-2018_14:22:58 7318 25 female R 4 1 18 moral immoralOther Y y 1 0.5451 
17-May-2018_14:23:00 7318 25 female R 4 1 19 moral immoralSelf Y y 1 0.7993 
17-May-2018_14:23:02 7318 25 female R 4 1 20 moral moralSelf U u 1 0.5934 
17-May-2018_14:23:04 7318 25 female R 4 1 21 moral immoralOther Y y 1 0.6434 
17-May-2018_14:23:06 7318 25 female R 4 1 22 moral immoralSelf Y y 1 0.9136 
17-May-2018_14:23:08 7318 25 female R 4 1 23 moral moralSelf U u 1 0.5997 
17-May-2018_14:23:10 7318 25 female R 4 1 24 moral moralOther U u 1 0.3798 
17-May-2018_14:23:11 7318 25 female R 4 2 1 moral moralOther U u 1 0.3119 
17-May-2018_14:23:13 7318 25 female R 4 2 2 moral moralOther U u 1 0.4000 
17-May-2018_14:23:14 7318 25 female R 4 2 3 moral immoralSelf Y y 1 0.3901 
17-May-2018_14:23:16 7318 25 female R 4 2 4 moral moralSelf U u 1 0.5403 
17-May-2018_14:23:18 7318 25 female R 4 2 5 moral moralOther U u 1 0.6802 
17-May-2018_14:23:20 7318 25 female R 4 2 6 moral immoralSelf Y y 1 0.5204 
17-May-2018_14:23:22 7318 25 female R 4 2 7 moral immoralOther Y y 1 0.5805 
17-May-2018_14:23:24 7318 25 female R 4 2 8 moral moralOther U u 1 0.5106 
17-May-2018_14:23:25 7318 25 female R 4 2 9 moral moralOther U u 1 0.3627 
17-May-2018_14:23:27 7318 25 female R 4 2 10 moral immoralSelf Y y 1 0.5367 
17-May-2018_14:23:29 7318 25 female R 4 2 11 moral immoralOther Y y 1 0.6030 
17-May-2018_14:23:30 7318 25 female R 4 2 12 moral immoralOther Y y 1 0.4370 
17-May-2018_14:23:32 7318 25 female R 4 2 13 moral moralSelf U u 1 0.5751 
17-May-2018_14:23:34 7318 25 female R 4 2 14 moral moralSelf U u 1 0.3372 
17-May-2018_14:23:36 7318 25 female R 4 2 15 moral immoralSelf Y y 1 0.4992 
17-May-2018_14:23:37 7318 25 female R 4 2 16 moral immoralOther Y y 1 0.4776 
17-May-2018_14:23:39 7318 25 female R 4 2 17 moral moralSelf U u 1 0.5435 
17-May-2018_14:23:41 7318 25 female R 4 2 18 moral moralSelf U u 1 0.4276 
17-May-2018_14:23:42 7318 25 female R 4 2 19 moral moralSelf U u 1 0.3616 
17-May-2018_14:23:44 7318 25 female R 4 2 20 moral moralOther U u 1 0.6118 
17-May-2018_14:23:46 7318 25 female R 4 2 21 moral immoralSelf Y y 1 0.4359 
17-May-2018_14:23:47 7318 25 female R 4 2 22 moral immoralSelf Y y 1 0.2919 
17-May-2018_14:23:49 7318 25 female R 4 2 23 moral immoralOther Y y 1 0.5900 
17-May-2018_14:23:51 7318 25 female R 4 2 24 moral immoralOther Y y 1 0.3801 
17-May-2018_14:23:54 7318 25 female R 4 3 1 moral moralSelf U u 1 0.7344 
17-May-2018_14:23:56 7318 25 female R 4 3 2 moral moralSelf U u 1 0.3584 
17-May-2018_14:23:57 7318 25 female R 4 3 3 moral moralSelf U u 1 0.3705 
17-May-2018_14:23:59 7318 25 female R 4 3 4 moral moralOther U u 1 0.4986 
17-May-2018_14:24:01 7318 25 female R 4 3 5 moral immoralSelf Y y 1 0.6046 
17-May-2018_14:24:03 7318 25 female R 4 3 6 moral immoralOther Y y 1 0.5428 
17-May-2018_14:24:05 7318 25 female R 4 3 7 moral immoralOther Y y 1 0.3190 
17-May-2018_14:24:06 7318 25 female R 4 3 8 moral moralOther U u 1 0.4270 
17-May-2018_14:24:08 7318 25 female R 4 3 9 moral moralSelf U u 1 0.4652 
17-May-2018_14:24:10 7318 25 female R 4 3 10 moral immoralSelf Y y 1 0.6012 
17-May-2018_14:24:11 7318 25 female R 4 3 11 moral moralSelf U u 1 0.5693 
17-May-2018_14:24:13 7318 25 female R 4 3 12 moral immoralOther Y y 1 0.5974 
17-May-2018_14:24:15 7318 25 female R 4 3 13 moral moralSelf U u 1 0.4576 
17-May-2018_14:24:17 7318 25 female R 4 3 14 moral moralOther U u 1 0.4456 
17-May-2018_14:24:18 7318 25 female R 4 3 15 moral moralOther U u 1 0.3337 
17-May-2018_14:24:20 7318 25 female R 4 3 16 moral moralOther U u 1 0.3458 
17-May-2018_14:24:21 7318 25 female R 4 3 17 moral immoralSelf Y y 1 0.4519 
17-May-2018_14:24:23 7318 25 female R 4 3 18 moral immoralOther Y y 1 0.4100 
17-May-2018_14:24:24 7318 25 female R 4 3 19 moral immoralSelf Y y 1 0.6080 
17-May-2018_14:24:26 7318 25 female R 4 3 20 moral immoralOther Y y 1 0.4501 
17-May-2018_14:24:28 7318 25 female R 4 3 21 moral immoralSelf Y y 1 0.2983 
17-May-2018_14:24:29 7318 25 female R 4 3 22 moral immoralSelf Y y 1 0.3124 
17-May-2018_14:24:30 7318 25 female R 4 3 23 moral moralOther U u 1 0.4084 
17-May-2018_14:24:32 7318 25 female R 4 3 24 moral immoralOther Y y 1 0.5485 
17-May-2018_14:24:34 7318 25 female R 4 4 1 moral immoralSelf Y y 1 0.4086 
17-May-2018_14:24:35 7318 25 female R 4 4 2 moral moralSelf U u 1 0.4606 
17-May-2018_14:24:37 7318 25 female R 4 4 3 moral immoralSelf Y u 0 0.2927 
17-May-2018_14:24:39 7318 25 female R 4 4 4 moral immoralSelf Y y 1 0.5088 
17-May-2018_14:24:40 7318 25 female R 4 4 5 moral moralOther U u 1 0.4909 
17-May-2018_14:24:42 7318 25 female R 4 4 6 moral immoralOther Y y 1 0.5150 
17-May-2018_14:24:44 7318 25 female R 4 4 7 moral immoralSelf Y y 1 0.4671 
17-May-2018_14:24:46 7318 25 female R 4 4 8 moral moralOther U u 1 0.4573 
17-May-2018_14:24:47 7318 25 female R 4 4 9 moral immoralOther Y y 1 0.4894 
17-May-2018_14:24:49 7318 25 female R 4 4 10 moral immoralOther Y y 1 0.3854 
17-May-2018_14:24:51 7318 25 female R 4 4 11 moral moralSelf U u 1 0.5776 
17-May-2018_14:24:52 7318 25 female R 4 4 12 moral moralSelf U u 1 0.3316 
17-May-2018_14:24:54 7318 25 female R 4 4 13 moral moralOther U u 1 0.5177 
17-May-2018_14:24:56 7318 25 female R 4 4 14 moral immoralOther Y y 1 0.4737 
17-May-2018_14:24:58 7318 25 female R 4 4 15 moral immoralSelf Y y 1 0.3739 
17-May-2018_14:25:00 7318 25 female R 4 4 16 moral moralSelf U u 1 0.6520 
17-May-2018_14:25:02 7318 25 female R 4 4 17 moral immoralOther Y y 1 0.5241 
17-May-2018_14:25:03 7318 25 female R 4 4 18 moral moralOther U y 0 0.3262 
17-May-2018_14:25:05 7318 25 female R 4 4 19 moral moralSelf U u 1 0.4303 
17-May-2018_14:25:07 7318 25 female R 4 4 20 moral immoralSelf Y y 1 0.4644 
17-May-2018_14:25:08 7318 25 female R 4 4 21 moral moralSelf U u 1 0.5465 
17-May-2018_14:25:10 7318 25 female R 4 4 22 moral moralOther U u 1 0.4506 
17-May-2018_14:25:12 7318 25 female R 4 4 23 moral moralOther U u 1 0.2947 
17-May-2018_14:25:13 7318 25 female R 4 4 24 moral immoralOther Y y 1 0.3988 
17-May-2018_14:25:16 7318 25 female R 4 5 1 moral immoralOther Y y 1 0.6109 
17-May-2018_14:25:18 7318 25 female R 4 5 2 moral immoralSelf Y y 1 0.5650 
17-May-2018_14:25:20 7318 25 female R 4 5 3 moral moralOther U u 1 0.4651 
17-May-2018_14:25:21 7318 25 female R 4 5 4 moral immoralSelf Y y 1 0.3893 
17-May-2018_14:25:23 7318 25 female R 4 5 5 moral moralSelf U u 1 0.5193 
17-May-2018_14:25:25 7318 25 female R 4 5 6 moral moralSelf U u 1 0.4095 
17-May-2018_14:25:27 7318 25 female R 4 5 7 moral moralOther U u 1 0.6375 
17-May-2018_14:25:29 7318 25 female R 4 5 8 moral immoralSelf Y y 1 0.4237 
17-May-2018_14:25:31 7318 25 female R 4 5 9 moral moralOther U u 1 0.3938 
17-May-2018_14:25:32 7318 25 female R 4 5 10 moral immoralOther Y y 1 0.3998 
17-May-2018_14:25:34 7318 25 female R 4 5 11 moral immoralOther Y y 1 0.3480 
17-May-2018_14:25:35 7318 25 female R 4 5 12 moral moralOther U u 1 0.4480 
17-May-2018_14:25:37 7318 25 female R 4 5 13 moral moralSelf U y 0 0.3481 
17-May-2018_14:25:39 7318 25 female R 4 5 14 moral immoralSelf Y y 1 0.3704 
17-May-2018_14:25:40 7318 25 female R 4 5 15 moral moralSelf U u 1 0.4263 
17-May-2018_14:25:42 7318 25 female R 4 5 16 moral moralOther U u 1 0.4384 
17-May-2018_14:25:44 7318 25 female R 4 5 17 moral moralOther U u 1 0.3384 
17-May-2018_14:25:45 7318 25 female R 4 5 18 moral immoralOther Y y 1 0.4346 
17-May-2018_14:25:47 7318 25 female R 4 5 19 moral moralSelf U u 1 0.4447 
17-May-2018_14:25:48 7318 25 female R 4 5 20 moral immoralSelf Y y 1 0.3867 
17-May-2018_14:25:50 7318 25 female R 4 5 21 moral immoralOther Y u 0 0.4509 
17-May-2018_14:25:52 7318 25 female R 4 5 22 moral moralSelf U u 1 0.4010 
17-May-2018_14:25:54 7318 25 female R 4 5 23 moral immoralSelf Y y 1 0.4131 
17-May-2018_14:25:55 7318 25 female R 4 5 24 moral immoralOther Y y 1 0.5232 
Date Sub Age Sex Hand Block Bin Trial Task Shape corrResp Resp ACC RT
17-May-2018_14:28:08 7318 25 female R 5 1 1 moral moralOther U u 1 0.6127 
17-May-2018_14:28:10 7318 25 female R 5 1 2 moral moralOther U u 1 0.6627 
17-May-2018_14:28:12 7318 25 female R 5 1 3 moral moralSelf U u 1 0.6968 
17-May-2018_14:28:14 7318 25 female R 5 1 4 moral moralSelf U u 1 0.4430 
17-May-2018_14:28:16 7318 25 female R 5 1 5 moral moralSelf U u 1 0.3351 
17-May-2018_14:28:17 7318 25 female R 5 1 6 moral immoralOther Y y 1 0.4832 
17-May-2018_14:28:19 7318 25 female R 5 1 7 moral immoralSelf Y y 1 0.5793 
17-May-2018_14:28:21 7318 25 female R 5 1 8 moral immoralSelf Y y 1 0.3154 
17-May-2018_14:28:22 7318 25 female R 5 1 9 moral immoralSelf Y y 1 0.3075 
17-May-2018_14:28:24 7318 25 female R 5 1 10 moral immoralOther Y y 1 0.5915 
17-May-2018_14:28:26 7318 25 female R 5 1 11 moral immoralOther Y y 1 0.5497 
17-May-2018_14:28:28 7318 25 female R 5 1 12 moral moralSelf U u 1 0.4518 
17-May-2018_14:28:29 7318 25 female R 5 1 13 moral immoralOther Y y 1 0.6019 
17-May-2018_14:28:31 7318 25 female R 5 1 14 moral moralSelf U u 1 0.5580 
17-May-2018_14:28:33 7318 25 female R 5 1 15 moral moralOther U u 1 0.4501 
17-May-2018_14:28:35 7318 25 female R 5 1 16 moral immoralSelf Y y 1 0.5002 
17-May-2018_14:28:37 7318 25 female R 5 1 17 moral moralOther U u 1 0.4343 
17-May-2018_14:28:38 7318 25 female R 5 1 18 moral immoralOther Y y 1 0.4624 
17-May-2018_14:28:40 7318 25 female R 5 1 19 moral moralOther U u 1 0.4145 
17-May-2018_14:28:42 7318 25 female R 5 1 20 moral immoralOther Y y 1 0.4607 
17-May-2018_14:28:44 7318 25 female R 5 1 21 moral moralSelf U u 1 0.7807 
17-May-2018_14:28:46 7318 25 female R 5 1 22 moral immoralSelf Y y 1 0.4664 
17-May-2018_14:28:47 7318 25 female R 5 1 23 moral immoralSelf Y y 1 0.2969 
17-May-2018_14:28:49 7318 25 female R 5 1 24 moral moralOther U u 1 0.3890 
17-May-2018_14:28:50 7318 25 female R 5 2 1 moral immoralOther Y y 1 0.3475 
17-May-2018_14:28:52 7318 25 female R 5 2 2 moral immoralOther Y y 1 0.3372 
17-May-2018_14:28:54 7318 25 female R 5 2 3 moral moralOther U u 1 0.3793 
17-May-2018_14:28:56 7318 25 female R 5 2 4 moral immoralOther Y y 1 0.3834 
17-May-2018_14:28:57 7318 25 female R 5 2 5 moral moralOther U u 1 0.4095 
17-May-2018_14:28:59 7318 25 female R 5 2 6 moral moralSelf U u 1 0.4975 
17-May-2018_14:29:01 7318 25 female R 5 2 7 moral immoralSelf Y y 1 0.3797 
17-May-2018_14:29:03 7318 25 female R 5 2 8 moral immoralSelf Y y 1 0.3357 
17-May-2018_14:29:05 7318 25 female R 5 2 9 moral immoralSelf Y y 1 0.2719 
17-May-2018_14:29:06 7318 25 female R 5 2 10 moral moralSelf U y 0 0.3221 
17-May-2018_14:29:07 7318 25 female R 5 2 11 moral moralSelf U u 1 0.4100 
17-May-2018_14:29:09 7318 25 female R 5 2 12 moral immoralOther Y y 1 0.4601 
17-May-2018_14:29:11 7318 25 female R 5 2 13 moral moralOther U u 1 0.4603 
17-May-2018_14:29:13 7318 25 female R 5 2 14 moral immoralSelf Y y 1 0.3384 
17-May-2018_14:29:15 7318 25 female R 5 2 15 moral moralOther U u 1 0.4364 
17-May-2018_14:29:16 7318 25 female R 5 2 16 moral moralSelf U u 1 0.4966 
17-May-2018_14:29:18 7318 25 female R 5 2 17 moral immoralSelf Y y 1 0.3706 
17-May-2018_14:29:19 7318 25 female R 5 2 18 moral immoralSelf Y y 1 0.4166 
17-May-2018_14:29:21 7318 25 female R 5 2 19 moral moralSelf U u 1 0.4628 
17-May-2018_14:29:23 7318 25 female R 5 2 20 moral immoralOther Y y 1 0.4109 
17-May-2018_14:29:24 7318 25 female R 5 2 21 moral moralOther U u 1 0.3650 
17-May-2018_14:29:26 7318 25 female R 5 2 22 moral immoralOther Y y 1 0.3011 
17-May-2018_14:29:28 7318 25 female R 5 2 23 moral moralSelf U u 1 0.4852 
17-May-2018_14:29:29 7318 25 female R 5 2 24 moral moralOther U u 1 0.4253 
17-May-2018_14:29:35 7318 25 female R 5 3 1 moral immoralSelf Y y 1 0.5416 
17-May-2018_14:29:36 7318 25 female R 5 3 2 moral immoralSelf Y y 1 0.3637 
17-May-2018_14:29:38 7318 25 female R 5 3 3 moral moralOther U u 1 0.4538 
17-May-2018_14:29:40 7318 25 female R 5 3 4 moral moralSelf U u 1 0.7919 
17-May-2018_14:29:42 7318 25 female R 5 3 5 moral immoralOther Y y 1 0.4600 
17-May-2018_14:29:43 7318 25 female R 5 3 6 moral immoralSelf Y y 1 0.4761 
17-May-2018_14:29:45 7318 25 female R 5 3 7 moral moralSelf U u 1 0.6162 
17-May-2018_14:29:47 7318 25 female R 5 3 8 moral moralOther U u 1 0.5183 
17-May-2018_14:29:49 7318 25 female R 5 3 9 moral immoralOther Y y 1 0.3864 
17-May-2018_14:29:51 7318 25 female R 5 3 10 moral moralOther U u 1 0.4485 
17-May-2018_14:29:53 7318 25 female R 5 3 11 moral immoralOther Y y 1 0.5046 
17-May-2018_14:29:54 7318 25 female R 5 3 12 moral immoralSelf Y y 1 0.6067 
17-May-2018_14:29:56 7318 25 female R 5 3 13 moral moralSelf U y 0 0.3588 
17-May-2018_14:29:58 7318 25 female R 5 3 14 moral moralSelf U u 1 0.3729 
17-May-2018_14:30:00 7318 25 female R 5 3 15 moral moralSelf U u 1 0.3570 
17-May-2018_14:30:01 7318 25 female R 5 3 16 moral immoralOther Y y 1 0.4471 
17-May-2018_14:30:03 7318 25 female R 5 3 17 moral moralSelf U u 1 0.3712 
17-May-2018_14:30:04 7318 25 female R 5 3 18 moral immoralOther Y y 1 0.4173 
17-May-2018_14:30:06 7318 25 female R 5 3 19 moral immoralOther Y y 1 0.3874 
17-May-2018_14:30:08 7318 25 female R 5 3 20 moral moralOther U u 1 0.3714 
17-May-2018_14:30:09 7318 25 female R 5 3 21 moral immoralSelf Y y 1 0.3476 
17-May-2018_14:30:11 7318 25 female R 5 3 22 moral immoralSelf Y y 1 0.4457 
17-May-2018_14:30:13 7318 25 female R 5 3 23 moral moralOther U u 1 0.3857 
17-May-2018_14:30:14 7318 25 female R 5 3 24 moral moralOther U u 1 0.3138 
17-May-2018_14:30:16 7318 25 female R 5 4 1 moral moralOther U u 1 0.3019 
17-May-2018_14:30:18 7318 25 female R 5 4 2 moral moralSelf U y 0 0.4500 
17-May-2018_14:30:19 7318 25 female R 5 4 3 moral moralOther U u 1 0.4521 
17-May-2018_14:30:21 7318 25 female R 5 4 4 moral moralSelf U u 1 0.4702 
17-May-2018_14:30:23 7318 25 female R 5 4 5 moral immoralOther Y y 1 0.4563 
17-May-2018_14:30:24 7318 25 female R 5 4 6 moral moralSelf U u 1 0.4504 
17-May-2018_14:30:26 7318 25 female R 5 4 7 moral moralOther U u 1 0.4785 
17-May-2018_14:30:28 7318 25 female R 5 4 8 moral immoralOther Y y 1 0.5145 
17-May-2018_14:30:29 7318 25 female R 5 4 9 moral moralOther U u 1 0.5047 
17-May-2018_14:30:31 7318 25 female R 5 4 10 moral moralSelf U u 1 0.5348 
17-May-2018_14:30:33 7318 25 female R 5 4 11 moral moralSelf U u 1 0.3808 
17-May-2018_14:30:34 7318 25 female R 5 4 12 moral immoralSelf Y y 1 0.4409 
17-May-2018_14:30:36 7318 25 female R 5 4 13 moral moralSelf U u 1 0.4431 
17-May-2018_14:30:37 7318 25 female R 5 4 14 moral immoralSelf Y y 1 0.5391 
17-May-2018_14:30:39 7318 25 female R 5 4 15 moral immoralSelf Y y 1 0.3332 
17-May-2018_14:30:41 7318 25 female R 5 4 16 moral immoralOther Y y 1 0.5312 
17-May-2018_14:30:42 7318 25 female R 5 4 17 moral moralOther U u 1 0.3833 
17-May-2018_14:30:44 7318 25 female R 5 4 18 moral immoralSelf Y y 1 0.3415 
17-May-2018_14:30:46 7318 25 female R 5 4 19 moral immoralOther Y y 1 0.5475 
17-May-2018_14:30:47 7318 25 female R 5 4 20 moral immoralSelf Y y 1 0.3217 
17-May-2018_14:30:49 7318 25 female R 5 4 21 moral immoralOther Y u 0 0.4038 
17-May-2018_14:30:50 7318 25 female R 5 4 22 moral moralOther U u 1 0.4940 
17-May-2018_14:30:52 7318 25 female R 5 4 23 moral immoralOther Y y 1 0.3140 
17-May-2018_14:30:54 7318 25 female R 5 4 24 moral immoralSelf Y y 1 0.2900 
17-May-2018_14:30:57 7318 25 female R 5 5 1 moral moralSelf U u 1 0.8002 
17-May-2018_14:30:59 7318 25 female R 5 5 2 moral moralSelf U u 1 0.3603 
17-May-2018_14:31:00 7318 25 female R 5 5 3 moral moralOther U u 1 0.3924 
17-May-2018_14:31:02 7318 25 female R 5 5 4 moral immoralSelf Y y 1 0.3565 
17-May-2018_14:31:04 7318 25 female R 5 5 5 moral moralOther U y 0 0.6126 
17-May-2018_14:31:06 7318 25 female R 5 5 6 moral moralSelf U u 1 0.6288 
17-May-2018_14:31:08 7318 25 female R 5 5 7 moral moralOther U u 1 0.3369 
17-May-2018_14:31:09 7318 25 female R 5 5 8 moral moralSelf U u 1 0.5089 
17-May-2018_14:31:11 7318 25 female R 5 5 9 moral immoralSelf Y y 1 0.4951 
17-May-2018_14:31:13 7318 25 female R 5 5 10 moral immoralOther Y u 0 0.4231 
17-May-2018_14:31:15 7318 25 female R 5 5 11 moral immoralOther Y y 1 0.3432 
17-May-2018_14:31:16 7318 25 female R 5 5 12 moral moralOther U u 1 0.4013 
17-May-2018_14:31:18 7318 25 female R 5 5 13 moral immoralOther Y y 1 0.3734 
17-May-2018_14:31:19 7318 25 female R 5 5 14 moral immoralOther Y y 1 0.3036 
17-May-2018_14:31:21 7318 25 female R 5 5 15 moral immoralSelf Y y 1 0.4976 
17-May-2018_14:31:23 7318 25 female R 5 5 16 moral immoralOther Y y 1 0.4257 
17-May-2018_14:31:24 7318 25 female R 5 5 17 moral immoralSelf Y y 1 0.2619 
17-May-2018_14:31:26 7318 25 female R 5 5 18 moral immoralSelf Y y 1 0.3438 
17-May-2018_14:31:28 7318 25 female R 5 5 19 moral moralOther U u 1 0.5200 
17-May-2018_14:31:30 7318 25 female R 5 5 20 moral immoralOther Y y 1 0.4161 
17-May-2018_14:31:31 7318 25 female R 5 5 21 moral moralSelf U y 0 0.3422 
17-May-2018_14:31:33 7318 25 female R 5 5 22 moral moralOther U y 0 0.5662 
17-May-2018_14:31:35 7318 25 female R 5 5 23 moral moralSelf U u 1 0.6422 
17-May-2018_14:31:37 7318 25 female R 5 5 24 moral immoralSelf Y y 1 0.3985 
Date Sub Age Sex Hand Block Bin Trial Task Shape corrResp Resp ACC RT
17-May-2018_14:33:49 7318 25 female R 6 1 1 self immoralSelf H h 1 0.6059 
17-May-2018_14:33:50 7318 25 female R 6 1 2 self moralSelf H h 1 0.4281 
17-May-2018_14:33:52 7318 25 female R 6 1 3 self immoralOther J j 1 0.5721 
17-May-2018_14:33:54 7318 25 female R 6 1 4 self moralOther J j 1 0.5323 
17-May-2018_14:33:56 7318 25 female R 6 1 5 self moralSelf H h 1 0.6103 
17-May-2018_14:33:58 7318 25 female R 6 1 6 self moralSelf H h 1 0.3944 
17-May-2018_14:33:59 7318 25 female R 6 1 7 self moralSelf H h 1 0.2946 
17-May-2018_14:34:01 7318 25 female R 6 1 8 self immoralSelf H h 1 0.6067 
17-May-2018_14:34:03 7318 25 female R 6 1 9 self moralOther J j 1 0.5808 
17-May-2018_14:34:05 7318 25 female R 6 1 10 self moralSelf H j 0 0.3628 
17-May-2018_14:34:06 7318 25 female R 6 1 11 self immoralOther J j 1 0.4830 
17-May-2018_14:34:08 7318 25 female R 6 1 12 self moralOther J j 1 0.4810 
17-May-2018_14:34:10 7318 25 female R 6 1 13 self immoralSelf H h 1 0.4052 
17-May-2018_14:34:12 7318 25 female R 6 1 14 self immoralOther J j 1 0.5132 
17-May-2018_14:34:13 7318 25 female R 6 1 15 self moralOther J j 1 0.4593 
17-May-2018_14:34:15 7318 25 female R 6 1 16 self moralOther J j 1 0.3654 
17-May-2018_14:34:17 7318 25 female R 6 1 17 self immoralSelf H h 1 0.5715 
17-May-2018_14:34:19 7318 25 female R 6 1 18 self immoralOther J j 1 0.7876 
17-May-2018_14:34:20 7318 25 female R 6 1 19 self immoralOther J j 1 0.4617 
17-May-2018_14:34:22 7318 25 female R 6 1 20 self immoralSelf H j 0 0.5158 
17-May-2018_14:34:24 7318 25 female R 6 1 21 self immoralSelf H h 1 0.3900 
17-May-2018_14:34:26 7318 25 female R 6 1 22 self moralOther J j 1 0.4741 
17-May-2018_14:34:28 7318 25 female R 6 1 23 self moralSelf H h 1 0.4461 
17-May-2018_14:34:29 7318 25 female R 6 1 24 self immoralOther J j 1 0.4022 
17-May-2018_14:34:31 7318 25 female R 6 2 1 self immoralSelf H h 1 0.8584 
17-May-2018_14:34:33 7318 25 female R 6 2 2 self moralSelf H h 1 0.5544 
17-May-2018_14:34:35 7318 25 female R 6 2 3 self moralOther J j 1 0.4605 
17-May-2018_14:34:36 7318 25 female R 6 2 4 self immoralOther J j 1 0.4046 
17-May-2018_14:34:38 7318 25 female R 6 2 5 self immoralOther J j 1 0.3427 
17-May-2018_14:34:40 7318 25 female R 6 2 6 self moralSelf H h 1 0.3668 
17-May-2018_14:34:41 7318 25 female R 6 2 7 self moralSelf H h 1 0.4569 
17-May-2018_14:34:43 7318 25 female R 6 2 8 self immoralOther J j 1 0.5570 
17-May-2018_14:34:45 7318 25 female R 6 2 9 self immoralOther J j 1 0.3291 
17-May-2018_14:34:47 7318 25 female R 6 2 10 self immoralSelf H h 1 0.3870 
17-May-2018_14:34:49 7318 25 female R 6 2 11 self moralOther J j 1 0.6693 
17-May-2018_14:34:50 7318 25 female R 6 2 12 self moralSelf H h 1 0.4554 
17-May-2018_14:34:52 7318 25 female R 6 2 13 self moralOther J j 1 0.4075 
17-May-2018_14:34:53 7318 25 female R 6 2 14 self immoralOther J j 1 0.4636 
17-May-2018_14:34:55 7318 25 female R 6 2 15 self immoralOther J j 1 0.3498 
17-May-2018_14:34:56 7318 25 female R 6 2 16 self immoralSelf H h 1 0.3719 
17-May-2018_14:34:58 7318 25 female R 6 2 17 self moralOther J j 1 0.4879 
17-May-2018_14:35:00 7318 25 female R 6 2 18 self immoralSelf H h 1 0.3520 
17-May-2018_14:35:02 7318 25 female R 6 2 19 self moralSelf H h 1 0.5640 
17-May-2018_14:35:03 7318 25 female R 6 2 20 self immoralSelf H h 1 0.4941 
17-May-2018_14:35:05 7318 25 female R 6 2 21 self moralOther J j 1 0.3562 
17-May-2018_14:35:07 7318 25 female R 6 2 22 self immoralSelf H h 1 0.4545 
17-May-2018_14:35:08 7318 25 female R 6 2 23 self moralSelf H h 1 0.3665 
17-May-2018_14:35:10 7318 25 female R 6 2 24 self moralOther J j 1 0.3986 
17-May-2018_14:35:13 7318 25 female R 6 3 1 self immoralOther J j 1 0.5507 
17-May-2018_14:35:14 7318 25 female R 6 3 2 self immoralSelf H h 1 0.4788 
17-May-2018_14:35:16 7318 25 female R 6 3 3 self moralOther J j 1 0.5049 
17-May-2018_14:35:18 7318 25 female R 6 3 4 self moralSelf H h 1 0.4629 
17-May-2018_14:35:20 7318 25 female R 6 3 5 self immoralSelf H h 1 0.2972 
17-May-2018_14:35:21 7318 25 female R 6 3 6 self immoralSelf H h 1 0.2993 
17-May-2018_14:35:23 7318 25 female R 6 3 7 self moralSelf H h 1 0.3673 
17-May-2018_14:35:24 7318 25 female R 6 3 8 self moralOther J j 1 0.3954 
17-May-2018_14:35:26 7318 25 female R 6 3 9 self moralOther J j 1 0.3635 
17-May-2018_14:35:28 7318 25 female R 6 3 10 self immoralSelf H h 1 0.5955 
17-May-2018_14:35:30 7318 25 female R 6 3 11 self immoralSelf H h 1 0.3636 
17-May-2018_14:35:31 7318 25 female R 6 3 12 self immoralSelf H h 1 0.2937 
17-May-2018_14:35:33 7318 25 female R 6 3 13 self moralOther J j 1 0.3739 
17-May-2018_14:35:34 7318 25 female R 6 3 14 self moralSelf H h 1 0.4699 
17-May-2018_14:35:36 7318 25 female R 6 3 15 self immoralOther J j 1 0.4300 
17-May-2018_14:35:37 7318 25 female R 6 3 16 self moralSelf H h 1 0.5201 
17-May-2018_14:35:39 7318 25 female R 6 3 17 self immoralOther J j 1 0.4502 
17-May-2018_14:35:41 7318 25 female R 6 3 18 self moralSelf H h 1 0.5043 
17-May-2018_14:35:42 7318 25 female R 6 3 19 self moralOther J j 1 0.4064 
17-May-2018_14:35:44 7318 25 female R 6 3 20 self moralOther J j 1 0.3325 
17-May-2018_14:35:46 7318 25 female R 6 3 21 self moralSelf H h 1 0.3946 
17-May-2018_14:35:48 7318 25 female R 6 3 22 self immoralOther J j 1 0.4207 
17-May-2018_14:35:49 7318 25 female R 6 3 23 self immoralOther J j 1 0.3828 
17-May-2018_14:35:51 7318 25 female R 6 3 24 self immoralOther J j 1 0.3370 
17-May-2018_14:35:53 7318 25 female R 6 4 1 self immoralSelf H h 1 0.5329 
17-May-2018_14:35:54 7318 25 female R 6 4 2 self moralOther J j 1 0.5211 
17-May-2018_14:35:56 7318 25 female R 6 4 3 self immoralOther J j 1 0.4051 
17-May-2018_14:35:58 7318 25 female R 6 4 4 self moralSelf H h 1 0.7512 
17-May-2018_14:36:00 7318 25 female R 6 4 5 self immoralOther J j 1 0.4514 
17-May-2018_14:36:01 7318 25 female R 6 4 6 self moralSelf H h 1 0.5194 
17-May-2018_14:36:03 7318 25 female R 6 4 7 self moralSelf H h 1 0.4217 
17-May-2018_14:36:05 7318 25 female R 6 4 8 self immoralSelf H h 1 0.4556 
17-May-2018_14:36:06 7318 25 female R 6 4 9 self moralSelf H h 1 0.3679 
17-May-2018_14:36:08 7318 25 female R 6 4 10 self immoralOther J j 1 0.3579 
17-May-2018_14:36:10 7318 25 female R 6 4 11 self moralOther J j 1 0.4979 
17-May-2018_14:36:11 7318 25 female R 6 4 12 self moralOther J j 1 0.3840 
17-May-2018_14:36:13 7318 25 female R 6 4 13 self immoralSelf H h 1 0.3721 
17-May-2018_14:36:15 7318 25 female R 6 4 14 self immoralOther J j 1 0.4162 
17-May-2018_14:36:17 7318 25 female R 6 4 15 self immoralSelf H h 1 0.3783 
17-May-2018_14:36:18 7318 25 female R 6 4 16 self moralSelf H h 1 0.4024 
17-May-2018_14:36:20 7318 25 female R 6 4 17 self moralSelf H h 1 0.3365 
17-May-2018_14:36:22 7318 25 female R 6 4 18 self immoralOther J j 1 0.4226 
17-May-2018_14:36:23 7318 25 female R 6 4 19 self immoralOther J j 1 0.3788 
17-May-2018_14:36:25 7318 25 female R 6 4 20 self immoralSelf H h 1 0.4087 
17-May-2018_14:36:26 7318 25 female R 6 4 21 self moralOther J j 1 0.3848 
17-May-2018_14:36:28 7318 25 female R 6 4 22 self moralOther J j 1 0.3269 
17-May-2018_14:36:29 7318 25 female R 6 4 23 self immoralSelf H h 1 0.3590 
17-May-2018_14:36:31 7318 25 female R 6 4 24 self moralOther J j 1 0.3772 
17-May-2018_14:36:33 7318 25 female R 6 5 1 self immoralSelf H h 1 0.5513 
17-May-2018_14:36:35 7318 25 female R 6 5 2 self moralOther J j 1 0.4014 
17-May-2018_14:36:37 7318 25 female R 6 5 3 self moralSelf H h 1 0.4674 
17-May-2018_14:36:39 7318 25 female R 6 5 4 self immoralSelf H h 1 0.3416 
17-May-2018_14:36:40 7318 25 female R 6 5 5 self immoralSelf H h 1 0.3097 
17-May-2018_14:36:42 7318 25 female R 6 5 6 self immoralSelf H h 1 0.4597 
17-May-2018_14:36:44 7318 25 female R 6 5 7 self immoralOther J j 1 0.4119 
17-May-2018_14:36:45 7318 25 female R 6 5 8 self moralSelf H h 1 0.4859 
17-May-2018_14:36:47 7318 25 female R 6 5 9 self immoralOther J j 1 0.5560 
17-May-2018_14:36:49 7318 25 female R 6 5 10 self immoralSelf H j 0 0.4102 
17-May-2018_14:36:50 7318 25 female R 6 5 11 self moralSelf H h 1 0.3843 
17-May-2018_14:36:52 7318 25 female R 6 5 12 self immoralOther J j 1 0.6164 
17-May-2018_14:36:54 7318 25 female R 6 5 13 self moralSelf H h 1 0.5944 
17-May-2018_14:36:56 7318 25 female R 6 5 14 self moralSelf H h 1 0.4905 
17-May-2018_14:36:57 7318 25 female R 6 5 15 self moralOther J j 1 0.4906 
17-May-2018_14:36:59 7318 25 female R 6 5 16 self immoralOther J j 1 0.4727 
17-May-2018_14:37:01 7318 25 female R 6 5 17 self immoralOther J j 1 0.3888 
17-May-2018_14:37:02 7318 25 female R 6 5 18 self moralOther J j 1 0.3629 
17-May-2018_14:37:04 7318 25 female R 6 5 19 self immoralSelf H h 1 0.3810 
17-May-2018_14:37:05 7318 25 female R 6 5 20 self moralOther J j 1 0.3750 
17-May-2018_14:37:07 7318 25 female R 6 5 21 self immoralOther J j 1 0.4832 
17-May-2018_14:37:09 7318 25 female R 6 5 22 self moralOther J j 1 0.3513 
17-May-2018_14:37:11 7318 25 female R 6 5 23 self moralSelf H h 1 0.3853 
17-May-2018_14:37:12 7318 25 female R 6 5 24 self moralOther J j 1 0.3895 
