Date Sub Age Sex Hand Block Bin Trial Task Shape corrResp Resp ACC RT
19-May-2018_15:38:12 7323 20 male R 1 1 1 moral immoralOther U NA -1 1.0790 
19-May-2018_15:38:15 7323 20 male R 1 1 2 moral immoralSelf U NA -1 1.0790 
19-May-2018_15:38:17 7323 20 male R 1 1 3 moral moralOther Y NA -1 1.0790 
19-May-2018_15:38:19 7323 20 male R 1 1 4 moral immoralSelf U NA -1 1.0790 
19-May-2018_15:38:21 7323 20 male R 1 1 5 moral moralOther Y NA -1 1.0790 
19-May-2018_15:38:24 7323 20 male R 1 1 6 moral immoralSelf U NA -1 1.0790 
19-May-2018_15:38:26 7323 20 male R 1 1 7 moral moralSelf Y NA -1 1.0790 
19-May-2018_15:38:28 7323 20 male R 1 1 8 moral moralSelf Y NA -1 1.0789 
19-May-2018_15:38:31 7323 20 male R 1 1 9 moral immoralSelf U NA -1 1.0790 
19-May-2018_15:38:33 7323 20 male R 1 1 10 moral immoralOther U NA -1 1.0790 
19-May-2018_15:38:36 7323 20 male R 1 1 11 moral moralOther Y NA -1 1.0790 
19-May-2018_15:38:38 7323 20 male R 1 1 12 moral moralSelf Y NA -1 1.0790 
19-May-2018_15:38:41 7323 20 male R 1 1 13 moral moralSelf Y NA -1 1.0790 
19-May-2018_15:38:43 7323 20 male R 1 1 14 moral moralOther Y y 1 0.8866 
19-May-2018_15:38:45 7323 20 male R 1 1 15 moral immoralSelf U u 1 0.7306 
19-May-2018_15:38:47 7323 20 male R 1 1 16 moral immoralOther U u 1 0.9427 
19-May-2018_15:38:49 7323 20 male R 1 1 17 moral moralSelf Y y 1 0.6650 
19-May-2018_15:38:51 7323 20 male R 1 1 18 moral moralOther Y NA -1 1.0790 
19-May-2018_15:38:53 7323 20 male R 1 1 19 moral moralOther Y y 1 0.6051 
19-May-2018_15:38:55 7323 20 male R 1 1 20 moral immoralOther U u 1 0.6513 
19-May-2018_15:38:57 7323 20 male R 1 1 21 moral immoralOther U u 1 0.6194 
19-May-2018_15:38:59 7323 20 male R 1 1 22 moral immoralSelf U NA -1 1.0790 
19-May-2018_15:39:01 7323 20 male R 1 1 23 moral moralSelf Y y 1 0.7456 
19-May-2018_15:39:03 7323 20 male R 1 1 24 moral immoralOther U u 1 0.8036 
19-May-2018_15:39:06 7323 20 male R 1 2 1 moral moralOther Y y 1 0.8777 
19-May-2018_15:39:08 7323 20 male R 1 2 2 moral immoralOther U u 1 0.7839 
19-May-2018_15:39:10 7323 20 male R 1 2 3 moral moralSelf Y y 1 0.8883 
19-May-2018_15:39:12 7323 20 male R 1 2 4 moral immoralOther U u 1 0.7042 
19-May-2018_15:39:14 7323 20 male R 1 2 5 moral immoralSelf U y 0 0.9103 
19-May-2018_15:39:16 7323 20 male R 1 2 6 moral immoralOther U u 1 0.6044 
19-May-2018_15:39:18 7323 20 male R 1 2 7 moral moralOther Y y 1 0.5005 
19-May-2018_15:39:20 7323 20 male R 1 2 8 moral moralOther Y y 1 0.6206 
19-May-2018_15:39:21 7323 20 male R 1 2 9 moral immoralSelf U u 1 0.7087 
19-May-2018_15:39:23 7323 20 male R 1 2 10 moral immoralSelf U u 1 0.5868 
19-May-2018_15:39:25 7323 20 male R 1 2 11 moral moralSelf Y y 1 0.5329 
19-May-2018_15:39:27 7323 20 male R 1 2 12 moral immoralOther U u 1 0.5552 
19-May-2018_15:39:28 7323 20 male R 1 2 13 moral immoralSelf U u 1 0.5112 
19-May-2018_15:39:30 7323 20 male R 1 2 14 moral moralOther Y y 1 0.4852 
19-May-2018_15:39:32 7323 20 male R 1 2 15 moral moralOther Y y 1 0.3894 
19-May-2018_15:39:34 7323 20 male R 1 2 16 moral immoralOther U u 1 0.5714 
19-May-2018_15:39:36 7323 20 male R 1 2 17 moral moralSelf Y y 1 0.4735 
19-May-2018_15:39:38 7323 20 male R 1 2 18 moral moralSelf Y y 1 0.8136 
19-May-2018_15:39:40 7323 20 male R 1 2 19 moral moralOther Y y 1 0.4958 
19-May-2018_15:39:42 7323 20 male R 1 2 20 moral immoralSelf U u 1 0.4298 
19-May-2018_15:39:43 7323 20 male R 1 2 21 moral moralSelf Y y 1 0.6200 
19-May-2018_15:39:45 7323 20 male R 1 2 22 moral immoralOther U u 1 0.6101 
19-May-2018_15:39:47 7323 20 male R 1 2 23 moral immoralSelf U u 1 0.3421 
19-May-2018_15:39:48 7323 20 male R 1 2 24 moral moralSelf Y y 1 0.5583 
19-May-2018_15:39:58 7323 20 male R 1 3 1 moral immoralSelf U u 1 0.5668 
19-May-2018_15:40:00 7323 20 male R 1 3 2 moral moralSelf Y y 1 0.4309 
19-May-2018_15:40:01 7323 20 male R 1 3 3 moral moralSelf Y y 1 0.3350 
19-May-2018_15:40:03 7323 20 male R 1 3 4 moral immoralSelf U u 1 0.4231 
19-May-2018_15:40:05 7323 20 male R 1 3 5 moral immoralOther U u 1 0.5813 
19-May-2018_15:40:06 7323 20 male R 1 3 6 moral moralOther Y y 1 0.3733 
19-May-2018_15:40:08 7323 20 male R 1 3 7 moral moralOther Y y 1 0.3314 
19-May-2018_15:40:10 7323 20 male R 1 3 8 moral moralOther Y y 1 0.3935 
19-May-2018_15:40:11 7323 20 male R 1 3 9 moral immoralSelf U u 1 0.5316 
19-May-2018_15:40:13 7323 20 male R 1 3 10 moral moralSelf Y y 1 0.4196 
19-May-2018_15:40:15 7323 20 male R 1 3 11 moral moralOther Y y 1 0.6138 
19-May-2018_15:40:17 7323 20 male R 1 3 12 moral immoralOther U u 1 0.4979 
19-May-2018_15:40:19 7323 20 male R 1 3 13 moral immoralSelf U u 1 0.5720 
19-May-2018_15:40:21 7323 20 male R 1 3 14 moral immoralOther U u 1 0.5721 
19-May-2018_15:40:23 7323 20 male R 1 3 15 moral moralOther Y y 1 0.5423 
19-May-2018_15:40:24 7323 20 male R 1 3 16 moral moralSelf Y y 1 0.3324 
19-May-2018_15:40:26 7323 20 male R 1 3 17 moral immoralOther U u 1 0.3564 
19-May-2018_15:40:27 7323 20 male R 1 3 18 moral immoralOther U u 1 0.3145 
19-May-2018_15:40:29 7323 20 male R 1 3 19 moral immoralSelf U u 1 0.4586 
19-May-2018_15:40:30 7323 20 male R 1 3 20 moral moralSelf Y u 0 0.3227 
19-May-2018_15:40:32 7323 20 male R 1 3 21 moral immoralSelf U u 1 0.4967 
19-May-2018_15:40:33 7323 20 male R 1 3 22 moral moralOther Y y 1 0.4408 
19-May-2018_15:40:35 7323 20 male R 1 3 23 moral immoralOther U u 1 0.3629 
19-May-2018_15:40:37 7323 20 male R 1 3 24 moral moralSelf Y y 1 0.4290 
19-May-2018_15:40:39 7323 20 male R 1 4 1 moral immoralSelf U u 1 0.5072 
19-May-2018_15:40:40 7323 20 male R 1 4 2 moral immoralSelf U u 1 0.3173 
19-May-2018_15:40:42 7323 20 male R 1 4 3 moral moralOther Y y 1 0.4133 
19-May-2018_15:40:44 7323 20 male R 1 4 4 moral moralOther Y y 1 0.4054 
19-May-2018_15:40:45 7323 20 male R 1 4 5 moral immoralSelf U u 1 0.3415 
19-May-2018_15:40:47 7323 20 male R 1 4 6 moral moralSelf Y y 1 0.3996 
19-May-2018_15:40:49 7323 20 male R 1 4 7 moral immoralSelf U u 1 0.3237 
19-May-2018_15:40:50 7323 20 male R 1 4 8 moral immoralOther U u 1 0.4219 
19-May-2018_15:40:52 7323 20 male R 1 4 9 moral moralOther Y y 1 0.4759 
19-May-2018_15:40:54 7323 20 male R 1 4 10 moral immoralOther U u 1 0.3920 
19-May-2018_15:40:55 7323 20 male R 1 4 11 moral moralSelf Y y 1 0.3822 
19-May-2018_15:40:57 7323 20 male R 1 4 12 moral moralSelf Y y 1 0.3722 
19-May-2018_15:40:59 7323 20 male R 1 4 13 moral moralOther Y y 1 0.4844 
19-May-2018_15:41:00 7323 20 male R 1 4 14 moral moralSelf Y y 1 0.4044 
19-May-2018_15:41:02 7323 20 male R 1 4 15 moral immoralOther U u 1 0.4024 
19-May-2018_15:41:03 7323 20 male R 1 4 16 moral immoralOther U u 1 0.4405 
19-May-2018_15:41:05 7323 20 male R 1 4 17 moral immoralOther U u 1 0.3207 
19-May-2018_15:41:07 7323 20 male R 1 4 18 moral moralSelf Y y 1 0.4927 
19-May-2018_15:41:08 7323 20 male R 1 4 19 moral immoralOther U u 1 0.5128 
19-May-2018_15:41:10 7323 20 male R 1 4 20 moral immoralSelf U y 0 0.3570 
19-May-2018_15:41:11 7323 20 male R 1 4 21 moral moralSelf Y y 1 0.3271 
19-May-2018_15:41:13 7323 20 male R 1 4 22 moral immoralSelf U u 1 0.4252 
19-May-2018_15:41:15 7323 20 male R 1 4 23 moral moralOther Y y 1 0.3791 
19-May-2018_15:41:17 7323 20 male R 1 4 24 moral moralOther Y y 1 0.5353 
19-May-2018_15:41:25 7323 20 male R 1 5 1 moral immoralSelf U u 1 0.5119 
19-May-2018_15:41:26 7323 20 male R 1 5 2 moral immoralSelf U u 1 0.3779 
19-May-2018_15:41:28 7323 20 male R 1 5 3 moral immoralOther U u 1 0.4179 
19-May-2018_15:41:30 7323 20 male R 1 5 4 moral immoralOther U u 1 0.3560 
19-May-2018_15:41:32 7323 20 male R 1 5 5 moral moralSelf Y y 1 0.4042 
19-May-2018_15:41:33 7323 20 male R 1 5 6 moral moralOther Y y 1 0.4582 
19-May-2018_15:41:35 7323 20 male R 1 5 7 moral immoralOther U u 1 0.4164 
19-May-2018_15:41:36 7323 20 male R 1 5 8 moral immoralSelf U u 1 0.4684 
19-May-2018_15:41:38 7323 20 male R 1 5 9 moral immoralSelf U u 1 0.3826 
19-May-2018_15:41:40 7323 20 male R 1 5 10 moral immoralOther U u 1 0.3306 
19-May-2018_15:41:41 7323 20 male R 1 5 11 moral immoralSelf U u 1 0.3888 
19-May-2018_15:41:43 7323 20 male R 1 5 12 moral moralOther Y y 1 0.4128 
19-May-2018_15:41:44 7323 20 male R 1 5 13 moral moralSelf Y y 1 0.3889 
19-May-2018_15:41:46 7323 20 male R 1 5 14 moral immoralOther U u 1 0.3849 
19-May-2018_15:41:47 7323 20 male R 1 5 15 moral moralSelf Y y 1 0.4350 
19-May-2018_15:41:49 7323 20 male R 1 5 16 moral moralSelf Y y 1 0.4131 
19-May-2018_15:41:50 7323 20 male R 1 5 17 moral moralOther Y y 1 0.4113 
19-May-2018_15:41:52 7323 20 male R 1 5 18 moral immoralSelf U u 1 0.3673 
19-May-2018_15:41:54 7323 20 male R 1 5 19 moral moralSelf Y y 1 0.4294 
19-May-2018_15:41:56 7323 20 male R 1 5 20 moral moralOther Y y 1 0.5315 
19-May-2018_15:41:57 7323 20 male R 1 5 21 moral moralSelf Y y 1 0.4316 
19-May-2018_15:41:59 7323 20 male R 1 5 22 moral moralOther Y y 1 0.3899 
19-May-2018_15:42:01 7323 20 male R 1 5 23 moral moralOther Y y 1 0.3379 
19-May-2018_15:42:02 7323 20 male R 1 5 24 moral immoralOther U u 1 0.3699 
Date Sub Age Sex Hand Block Bin Trial Task Shape corrResp Resp ACC RT
19-May-2018_15:44:34 7323 20 male R 2 1 1 self moralOther H NA -1 1.0790 
19-May-2018_15:44:37 7323 20 male R 2 1 2 self moralOther H NA -1 1.0790 
19-May-2018_15:44:39 7323 20 male R 2 1 3 self immoralSelf J h 0 0.8868 
19-May-2018_15:44:41 7323 20 male R 2 1 4 self moralOther H h 1 0.7809 
19-May-2018_15:44:43 7323 20 male R 2 1 5 self immoralOther H h 1 0.6350 
19-May-2018_15:44:45 7323 20 male R 2 1 6 self immoralSelf J h 0 0.9471 
19-May-2018_15:44:47 7323 20 male R 2 1 7 self moralSelf J j 1 0.6492 
19-May-2018_15:44:49 7323 20 male R 2 1 8 self moralSelf J j 1 0.5215 
19-May-2018_15:44:51 7323 20 male R 2 1 9 self moralSelf J j 1 0.4736 
19-May-2018_15:44:53 7323 20 male R 2 1 10 self immoralSelf J j 1 0.7076 
19-May-2018_15:44:55 7323 20 male R 2 1 11 self moralSelf J j 1 0.4958 
19-May-2018_15:44:57 7323 20 male R 2 1 12 self moralOther H h 1 0.7278 
19-May-2018_15:44:58 7323 20 male R 2 1 13 self moralOther H h 1 0.4360 
19-May-2018_15:45:00 7323 20 male R 2 1 14 self immoralOther H h 1 0.5401 
19-May-2018_15:45:02 7323 20 male R 2 1 15 self immoralOther H h 1 0.4062 
19-May-2018_15:45:04 7323 20 male R 2 1 16 self moralSelf J h 0 0.5583 
19-May-2018_15:45:06 7323 20 male R 2 1 17 self immoralSelf J j 1 0.3983 
19-May-2018_15:45:07 7323 20 male R 2 1 18 self moralOther H h 1 0.4104 
19-May-2018_15:45:09 7323 20 male R 2 1 19 self immoralSelf J j 1 0.4325 
19-May-2018_15:45:11 7323 20 male R 2 1 20 self immoralOther H h 1 0.4726 
19-May-2018_15:45:12 7323 20 male R 2 1 21 self immoralOther H h 1 0.4947 
19-May-2018_15:45:14 7323 20 male R 2 1 22 self moralSelf J j 1 0.5589 
19-May-2018_15:45:16 7323 20 male R 2 1 23 self immoralSelf J j 1 0.4690 
19-May-2018_15:45:18 7323 20 male R 2 1 24 self immoralOther H h 1 0.7310 
19-May-2018_15:45:19 7323 20 male R 2 2 1 self moralSelf J j 1 0.5372 
19-May-2018_15:45:21 7323 20 male R 2 2 2 self immoralOther H h 1 0.5953 
19-May-2018_15:45:23 7323 20 male R 2 2 3 self moralOther H h 1 0.9294 
19-May-2018_15:45:25 7323 20 male R 2 2 4 self immoralSelf J j 1 0.5554 
19-May-2018_15:45:27 7323 20 male R 2 2 5 self moralOther H h 1 0.7396 
19-May-2018_15:45:29 7323 20 male R 2 2 6 self immoralSelf J j 1 0.9676 
19-May-2018_15:45:31 7323 20 male R 2 2 7 self moralSelf J j 1 0.5638 
19-May-2018_15:45:33 7323 20 male R 2 2 8 self immoralSelf J j 1 0.4919 
19-May-2018_15:45:35 7323 20 male R 2 2 9 self moralOther H h 1 0.8320 
19-May-2018_15:45:37 7323 20 male R 2 2 10 self moralSelf J j 1 0.6100 
19-May-2018_15:45:39 7323 20 male R 2 2 11 self immoralSelf J j 1 0.5082 
19-May-2018_15:45:40 7323 20 male R 2 2 12 self moralSelf J j 1 0.5263 
19-May-2018_15:45:42 7323 20 male R 2 2 13 self moralSelf J j 1 0.4045 
19-May-2018_15:45:44 7323 20 male R 2 2 14 self immoralSelf J j 1 0.3966 
19-May-2018_15:45:45 7323 20 male R 2 2 15 self immoralOther H h 1 0.4106 
19-May-2018_15:45:47 7323 20 male R 2 2 16 self moralOther H h 1 0.7327 
19-May-2018_15:45:49 7323 20 male R 2 2 17 self immoralOther H h 1 0.5028 
19-May-2018_15:45:51 7323 20 male R 2 2 18 self moralSelf J j 1 0.6008 
19-May-2018_15:45:53 7323 20 male R 2 2 19 self immoralOther H h 1 0.4992 
19-May-2018_15:45:54 7323 20 male R 2 2 20 self immoralSelf J j 1 0.5672 
19-May-2018_15:45:56 7323 20 male R 2 2 21 self immoralOther H h 1 0.6273 
19-May-2018_15:45:58 7323 20 male R 2 2 22 self moralOther H h 1 0.6673 
19-May-2018_15:46:00 7323 20 male R 2 2 23 self immoralOther H h 1 0.4155 
19-May-2018_15:46:02 7323 20 male R 2 2 24 self moralOther H j 0 0.5615 
19-May-2018_15:46:13 7323 20 male R 2 3 1 self immoralSelf J j 1 0.7182 
19-May-2018_15:46:15 7323 20 male R 2 3 2 self moralOther H h 1 0.4804 
19-May-2018_15:46:17 7323 20 male R 2 3 3 self moralOther H h 1 0.3944 
19-May-2018_15:46:19 7323 20 male R 2 3 4 self moralOther H h 1 0.3765 
19-May-2018_15:46:20 7323 20 male R 2 3 5 self immoralSelf J j 1 0.4566 
19-May-2018_15:46:22 7323 20 male R 2 3 6 self immoralSelf J j 1 0.4063 
19-May-2018_15:46:24 7323 20 male R 2 3 7 self moralSelf J j 1 0.4148 
19-May-2018_15:46:25 7323 20 male R 2 3 8 self immoralOther H h 1 0.3889 
19-May-2018_15:46:27 7323 20 male R 2 3 9 self moralSelf J j 1 0.4590 
19-May-2018_15:46:29 7323 20 male R 2 3 10 self immoralOther H h 1 0.5792 
19-May-2018_15:46:31 7323 20 male R 2 3 11 self immoralOther H h 1 0.4472 
19-May-2018_15:46:32 7323 20 male R 2 3 12 self moralSelf J j 1 0.4913 
19-May-2018_15:46:34 7323 20 male R 2 3 13 self immoralSelf J j 1 0.3834 
19-May-2018_15:46:36 7323 20 male R 2 3 14 self moralOther H j 0 0.5874 
19-May-2018_15:46:37 7323 20 male R 2 3 15 self immoralOther H h 1 0.4519 
19-May-2018_15:46:39 7323 20 male R 2 3 16 self immoralOther H h 1 0.3236 
19-May-2018_15:46:40 7323 20 male R 2 3 17 self moralSelf J j 1 0.4637 
19-May-2018_15:46:42 7323 20 male R 2 3 18 self moralOther H h 1 0.3779 
19-May-2018_15:46:43 7323 20 male R 2 3 19 self moralOther H h 1 0.3460 
19-May-2018_15:46:45 7323 20 male R 2 3 20 self immoralSelf J j 1 0.3920 
19-May-2018_15:46:47 7323 20 male R 2 3 21 self moralSelf J j 1 0.4542 
19-May-2018_15:46:48 7323 20 male R 2 3 22 self moralSelf J j 1 0.3822 
19-May-2018_15:46:50 7323 20 male R 2 3 23 self immoralOther H h 1 0.4243 
19-May-2018_15:46:52 7323 20 male R 2 3 24 self immoralSelf J j 1 0.3844 
19-May-2018_15:46:54 7323 20 male R 2 4 1 self immoralSelf J j 1 0.4185 
19-May-2018_15:46:55 7323 20 male R 2 4 2 self moralOther H h 1 0.4267 
19-May-2018_15:46:57 7323 20 male R 2 4 3 self immoralSelf J j 1 0.4109 
19-May-2018_15:46:58 7323 20 male R 2 4 4 self moralSelf J j 1 0.4328 
19-May-2018_15:47:00 7323 20 male R 2 4 5 self moralSelf J j 1 0.3749 
19-May-2018_15:47:02 7323 20 male R 2 4 6 self moralOther H h 1 0.4570 
19-May-2018_15:47:03 7323 20 male R 2 4 7 self moralSelf J j 1 0.4210 
19-May-2018_15:47:05 7323 20 male R 2 4 8 self immoralOther H h 1 0.3471 
19-May-2018_15:47:07 7323 20 male R 2 4 9 self immoralSelf J j 1 0.4312 
19-May-2018_15:47:09 7323 20 male R 2 4 10 self moralSelf J j 1 0.5154 
19-May-2018_15:47:10 7323 20 male R 2 4 11 self immoralSelf J j 1 0.4115 
19-May-2018_15:47:12 7323 20 male R 2 4 12 self moralOther H h 1 0.5495 
19-May-2018_15:47:14 7323 20 male R 2 4 13 self moralOther H h 1 0.4176 
19-May-2018_15:47:16 7323 20 male R 2 4 14 self immoralOther H j 0 0.4058 
19-May-2018_15:47:18 7323 20 male R 2 4 15 self immoralOther H h 1 0.4498 
19-May-2018_15:47:19 7323 20 male R 2 4 16 self immoralSelf J j 1 0.3979 
19-May-2018_15:47:21 7323 20 male R 2 4 17 self moralOther H h 1 0.6615 
19-May-2018_15:47:23 7323 20 male R 2 4 18 self immoralOther H h 1 0.4141 
19-May-2018_15:47:24 7323 20 male R 2 4 19 self moralSelf J j 1 0.4182 
19-May-2018_15:47:26 7323 20 male R 2 4 20 self immoralOther H h 1 0.4143 
19-May-2018_15:47:28 7323 20 male R 2 4 21 self moralSelf J j 1 0.4285 
19-May-2018_15:47:29 7323 20 male R 2 4 22 self moralOther H h 1 0.3844 
19-May-2018_15:47:31 7323 20 male R 2 4 23 self immoralSelf J j 1 0.4567 
19-May-2018_15:47:32 7323 20 male R 2 4 24 self immoralOther H h 1 0.4727 
19-May-2018_15:47:39 7323 20 male R 2 5 1 self immoralOther H h 1 0.4032 
19-May-2018_15:47:40 7323 20 male R 2 5 2 self immoralOther H h 1 0.4072 
19-May-2018_15:47:42 7323 20 male R 2 5 3 self immoralSelf J j 1 0.5474 
19-May-2018_15:47:44 7323 20 male R 2 5 4 self immoralOther H h 1 0.4235 
19-May-2018_15:47:45 7323 20 male R 2 5 5 self moralSelf J j 1 0.4235 
19-May-2018_15:47:47 7323 20 male R 2 5 6 self immoralSelf J j 1 0.4515 
19-May-2018_15:47:49 7323 20 male R 2 5 7 self immoralSelf J j 1 0.3856 
19-May-2018_15:47:51 7323 20 male R 2 5 8 self moralOther H h 1 0.5177 
19-May-2018_15:47:53 7323 20 male R 2 5 9 self immoralOther H h 1 0.4458 
19-May-2018_15:47:54 7323 20 male R 2 5 10 self immoralOther H h 1 0.3179 
19-May-2018_15:47:56 7323 20 male R 2 5 11 self moralSelf J j 1 0.3881 
19-May-2018_15:47:58 7323 20 male R 2 5 12 self moralOther H h 1 0.5621 
19-May-2018_15:47:59 7323 20 male R 2 5 13 self immoralSelf J j 1 0.3563 
19-May-2018_15:48:01 7323 20 male R 2 5 14 self moralOther H h 1 0.5604 
19-May-2018_15:48:02 7323 20 male R 2 5 15 self moralOther H h 1 0.3106 
19-May-2018_15:48:04 7323 20 male R 2 5 16 self moralSelf J j 1 0.3665 
19-May-2018_15:48:06 7323 20 male R 2 5 17 self moralOther H h 1 0.4026 
19-May-2018_15:48:08 7323 20 male R 2 5 18 self moralSelf J j 1 0.3907 
19-May-2018_15:48:09 7323 20 male R 2 5 19 self immoralSelf J j 1 0.3649 
19-May-2018_15:48:11 7323 20 male R 2 5 20 self moralOther H h 1 0.4509 
19-May-2018_15:48:12 7323 20 male R 2 5 21 self immoralOther H h 1 0.3890 
19-May-2018_15:48:14 7323 20 male R 2 5 22 self moralSelf J j 1 0.3170 
19-May-2018_15:48:15 7323 20 male R 2 5 23 self moralSelf J j 1 0.3132 
19-May-2018_15:48:17 7323 20 male R 2 5 24 self immoralSelf J j 1 0.3932 
Date Sub Age Sex Hand Block Bin Trial Task Shape corrResp Resp ACC RT
19-May-2018_15:50:40 7323 20 male R 3 1 1 self moralSelf J j 1 0.6734 
19-May-2018_15:50:42 7323 20 male R 3 1 2 self moralOther H h 1 0.7475 
19-May-2018_15:50:44 7323 20 male R 3 1 3 self immoralSelf J j 1 0.5715 
19-May-2018_15:50:46 7323 20 male R 3 1 4 self moralOther H h 1 0.6697 
19-May-2018_15:50:48 7323 20 male R 3 1 5 self moralSelf J j 1 0.4078 
19-May-2018_15:50:50 7323 20 male R 3 1 6 self moralOther H h 1 0.5199 
19-May-2018_15:50:52 7323 20 male R 3 1 7 self immoralSelf J j 1 0.4121 
19-May-2018_15:50:54 7323 20 male R 3 1 8 self moralOther H h 1 0.4281 
19-May-2018_15:50:55 7323 20 male R 3 1 9 self immoralSelf J j 1 0.3502 
19-May-2018_15:50:57 7323 20 male R 3 1 10 self immoralSelf J j 1 0.3444 
19-May-2018_15:50:58 7323 20 male R 3 1 11 self moralSelf J j 1 0.4045 
19-May-2018_15:51:00 7323 20 male R 3 1 12 self moralOther H h 1 0.4105 
19-May-2018_15:51:02 7323 20 male R 3 1 13 self immoralSelf J j 1 0.3566 
19-May-2018_15:51:03 7323 20 male R 3 1 14 self moralOther H h 1 0.4267 
19-May-2018_15:51:05 7323 20 male R 3 1 15 self immoralOther H h 1 0.4988 
19-May-2018_15:51:06 7323 20 male R 3 1 16 self immoralOther H h 1 0.3349 
19-May-2018_15:51:08 7323 20 male R 3 1 17 self immoralOther H h 1 0.3171 
19-May-2018_15:51:09 7323 20 male R 3 1 18 self immoralOther H h 1 0.3091 
19-May-2018_15:51:11 7323 20 male R 3 1 19 self moralSelf J j 1 0.4312 
19-May-2018_15:51:12 7323 20 male R 3 1 20 self immoralOther H h 1 0.4292 
19-May-2018_15:51:14 7323 20 male R 3 1 21 self immoralOther H h 1 0.4073 
19-May-2018_15:51:15 7323 20 male R 3 1 22 self moralSelf J j 1 0.3354 
19-May-2018_15:51:17 7323 20 male R 3 1 23 self moralSelf J j 1 0.3355 
19-May-2018_15:51:18 7323 20 male R 3 1 24 self immoralSelf J j 1 0.3876 
19-May-2018_15:51:20 7323 20 male R 3 2 1 self immoralSelf J j 1 0.3516 
19-May-2018_15:51:22 7323 20 male R 3 2 2 self moralOther H h 1 0.4217 
19-May-2018_15:51:23 7323 20 male R 3 2 3 self immoralOther H h 1 0.2898 
19-May-2018_15:51:25 7323 20 male R 3 2 4 self immoralSelf J j 1 0.4118 
19-May-2018_15:51:26 7323 20 male R 3 2 5 self immoralSelf J j 1 0.3141 
19-May-2018_15:51:28 7323 20 male R 3 2 6 self moralSelf J j 1 0.3681 
19-May-2018_15:51:29 7323 20 male R 3 2 7 self immoralSelf J j 1 0.3862 
19-May-2018_15:51:31 7323 20 male R 3 2 8 self immoralOther H h 1 0.3483 
19-May-2018_15:51:33 7323 20 male R 3 2 9 self moralSelf J j 1 0.3204 
19-May-2018_15:51:34 7323 20 male R 3 2 10 self immoralSelf J j 1 0.4146 
19-May-2018_15:51:36 7323 20 male R 3 2 11 self moralSelf J j 1 0.3385 
19-May-2018_15:51:37 7323 20 male R 3 2 12 self moralOther H h 1 0.4487 
19-May-2018_15:51:39 7323 20 male R 3 2 13 self moralOther H h 1 0.3047 
19-May-2018_15:51:41 7323 20 male R 3 2 14 self moralSelf J j 1 0.3808 
19-May-2018_15:51:42 7323 20 male R 3 2 15 self immoralSelf J j 1 0.3330 
19-May-2018_15:51:44 7323 20 male R 3 2 16 self immoralOther H h 1 0.3250 
19-May-2018_15:51:45 7323 20 male R 3 2 17 self moralOther H h 1 0.4352 
19-May-2018_15:51:47 7323 20 male R 3 2 18 self moralOther H h 1 0.3412 
19-May-2018_15:51:48 7323 20 male R 3 2 19 self moralSelf J j 1 0.3393 
19-May-2018_15:51:50 7323 20 male R 3 2 20 self immoralOther H h 1 0.3674 
19-May-2018_15:51:52 7323 20 male R 3 2 21 self moralOther H h 1 0.3574 
19-May-2018_15:51:53 7323 20 male R 3 2 22 self moralSelf J j 1 0.3795 
19-May-2018_15:51:55 7323 20 male R 3 2 23 self immoralOther H h 1 0.3636 
19-May-2018_15:51:56 7323 20 male R 3 2 24 self immoralOther H h 1 0.3677 
19-May-2018_15:52:04 7323 20 male R 3 3 1 self moralSelf J j 1 0.4601 
19-May-2018_15:52:05 7323 20 male R 3 3 2 self immoralOther H h 1 0.3522 
19-May-2018_15:52:07 7323 20 male R 3 3 3 self moralOther H h 1 0.5789 
19-May-2018_15:52:09 7323 20 male R 3 3 4 self moralSelf J j 1 0.3264 
19-May-2018_15:52:10 7323 20 male R 3 3 5 self moralOther H h 1 0.3485 
19-May-2018_15:52:12 7323 20 male R 3 3 6 self immoralSelf J j 1 0.3327 
19-May-2018_15:52:13 7323 20 male R 3 3 7 self immoralSelf J j 1 0.3068 
19-May-2018_15:52:15 7323 20 male R 3 3 8 self immoralSelf J j 1 0.2868 
19-May-2018_15:52:16 7323 20 male R 3 3 9 self immoralOther H h 1 0.3729 
19-May-2018_15:52:18 7323 20 male R 3 3 10 self immoralSelf J j 1 0.3990 
19-May-2018_15:52:19 7323 20 male R 3 3 11 self immoralSelf J j 1 0.3970 
19-May-2018_15:52:21 7323 20 male R 3 3 12 self moralOther H h 1 0.3792 
19-May-2018_15:52:23 7323 20 male R 3 3 13 self moralSelf J j 1 0.3452 
19-May-2018_15:52:24 7323 20 male R 3 3 14 self immoralOther H h 1 0.3357 
19-May-2018_15:52:26 7323 20 male R 3 3 15 self immoralOther H h 1 0.3614 
19-May-2018_15:52:28 7323 20 male R 3 3 16 self moralOther H j 0 0.4174 
19-May-2018_15:52:29 7323 20 male R 3 3 17 self moralOther H h 1 0.4376 
19-May-2018_15:52:31 7323 20 male R 3 3 18 self moralOther H h 1 0.4178 
19-May-2018_15:52:33 7323 20 male R 3 3 19 self immoralSelf J j 1 0.4898 
19-May-2018_15:52:35 7323 20 male R 3 3 20 self moralSelf J j 1 0.4299 
19-May-2018_15:52:36 7323 20 male R 3 3 21 self immoralOther H h 1 0.3720 
19-May-2018_15:52:38 7323 20 male R 3 3 22 self moralSelf J j 1 0.3541 
19-May-2018_15:52:39 7323 20 male R 3 3 23 self moralSelf J j 1 0.4801 
19-May-2018_15:52:41 7323 20 male R 3 3 24 self immoralOther H h 1 0.4064 
19-May-2018_15:52:43 7323 20 male R 3 4 1 self moralOther H h 1 0.6322 
19-May-2018_15:52:44 7323 20 male R 3 4 2 self moralSelf J j 1 0.3125 
19-May-2018_15:52:46 7323 20 male R 3 4 3 self immoralSelf J j 1 0.3925 
19-May-2018_15:52:48 7323 20 male R 3 4 4 self moralSelf J j 1 0.4266 
19-May-2018_15:52:49 7323 20 male R 3 4 5 self immoralOther H h 1 0.3768 
19-May-2018_15:52:51 7323 20 male R 3 4 6 self immoralSelf J j 1 0.3969 
19-May-2018_15:52:53 7323 20 male R 3 4 7 self moralOther H h 1 0.3930 
19-May-2018_15:52:54 7323 20 male R 3 4 8 self immoralSelf J j 1 0.3871 
19-May-2018_15:52:56 7323 20 male R 3 4 9 self immoralSelf J j 1 0.3591 
19-May-2018_15:52:58 7323 20 male R 3 4 10 self moralSelf J j 1 0.4312 
19-May-2018_15:52:59 7323 20 male R 3 4 11 self immoralOther H h 1 0.4533 
19-May-2018_15:53:01 7323 20 male R 3 4 12 self moralSelf J j 1 0.3494 
19-May-2018_15:53:03 7323 20 male R 3 4 13 self immoralOther H h 1 0.3675 
19-May-2018_15:53:04 7323 20 male R 3 4 14 self immoralOther H h 1 0.5216 
19-May-2018_15:53:06 7323 20 male R 3 4 15 self moralOther H h 1 0.3778 
19-May-2018_15:53:08 7323 20 male R 3 4 16 self moralSelf J j 1 0.3998 
19-May-2018_15:53:10 7323 20 male R 3 4 17 self moralOther H h 1 0.4399 
19-May-2018_15:53:11 7323 20 male R 3 4 18 self moralOther H h 1 0.3361 
19-May-2018_15:53:13 7323 20 male R 3 4 19 self immoralOther H h 1 0.5622 
19-May-2018_15:53:15 7323 20 male R 3 4 20 self moralSelf J j 1 0.4262 
19-May-2018_15:53:16 7323 20 male R 3 4 21 self immoralSelf J j 1 0.4482 
19-May-2018_15:53:18 7323 20 male R 3 4 22 self immoralSelf J j 1 0.3563 
19-May-2018_15:53:19 7323 20 male R 3 4 23 self immoralOther H h 1 0.4265 
19-May-2018_15:53:21 7323 20 male R 3 4 24 self moralOther H h 1 0.6005 
19-May-2018_15:53:27 7323 20 male R 3 5 1 self immoralSelf J j 1 0.4169 
19-May-2018_15:53:28 7323 20 male R 3 5 2 self moralOther H h 1 0.5090 
19-May-2018_15:53:30 7323 20 male R 3 5 3 self immoralOther H h 1 0.3531 
19-May-2018_15:53:32 7323 20 male R 3 5 4 self immoralSelf J j 1 0.3871 
19-May-2018_15:53:33 7323 20 male R 3 5 5 self immoralSelf J j 1 0.4533 
19-May-2018_15:53:35 7323 20 male R 3 5 6 self immoralOther H h 1 0.4354 
19-May-2018_15:53:37 7323 20 male R 3 5 7 self immoralOther H h 1 0.4015 
19-May-2018_15:53:39 7323 20 male R 3 5 8 self moralSelf J j 1 0.4456 
19-May-2018_15:53:40 7323 20 male R 3 5 9 self immoralOther H h 1 0.4036 
19-May-2018_15:53:42 7323 20 male R 3 5 10 self moralOther H h 1 0.4137 
19-May-2018_15:53:44 7323 20 male R 3 5 11 self immoralSelf J j 1 0.3478 
19-May-2018_15:53:45 7323 20 male R 3 5 12 self moralSelf J j 1 0.3899 
19-May-2018_15:53:47 7323 20 male R 3 5 13 self moralOther H h 1 0.3780 
19-May-2018_15:53:48 7323 20 male R 3 5 14 self moralSelf J j 1 0.4642 
19-May-2018_15:53:50 7323 20 male R 3 5 15 self immoralOther H h 1 0.3622 
19-May-2018_15:53:51 7323 20 male R 3 5 16 self immoralSelf J j 1 0.4602 
19-May-2018_15:53:53 7323 20 male R 3 5 17 self moralOther H h 1 0.3823 
19-May-2018_15:53:55 7323 20 male R 3 5 18 self immoralSelf J j 1 0.4245 
19-May-2018_15:53:57 7323 20 male R 3 5 19 self moralOther H h 1 0.3346 
19-May-2018_15:53:58 7323 20 male R 3 5 20 self moralOther H h 1 0.3687 
19-May-2018_15:54:00 7323 20 male R 3 5 21 self moralSelf J j 1 0.3687 
19-May-2018_15:54:02 7323 20 male R 3 5 22 self moralSelf J j 1 0.3408 
19-May-2018_15:54:03 7323 20 male R 3 5 23 self immoralOther H h 1 0.3310 
19-May-2018_15:54:05 7323 20 male R 3 5 24 self moralSelf J j 1 0.3810 
Date Sub Age Sex Hand Block Bin Trial Task Shape corrResp Resp ACC RT
19-May-2018_15:56:23 7323 20 male R 4 1 1 moral immoralSelf U u 1 0.7509 
19-May-2018_15:56:26 7323 20 male R 4 1 2 moral moralOther Y NA -1 1.0790 
19-May-2018_15:56:27 7323 20 male R 4 1 3 moral moralOther Y y 1 0.5591 
19-May-2018_15:56:29 7323 20 male R 4 1 4 moral moralSelf Y y 1 0.4432 
19-May-2018_15:56:31 7323 20 male R 4 1 5 moral moralOther Y y 1 0.4613 
19-May-2018_15:56:33 7323 20 male R 4 1 6 moral moralSelf Y y 1 0.6155 
19-May-2018_15:56:34 7323 20 male R 4 1 7 moral moralOther Y y 1 0.5315 
19-May-2018_15:56:36 7323 20 male R 4 1 8 moral immoralSelf U u 1 0.6596 
19-May-2018_15:56:38 7323 20 male R 4 1 9 moral immoralSelf U u 1 0.4238 
19-May-2018_15:56:40 7323 20 male R 4 1 10 moral immoralOther U u 1 0.7058 
19-May-2018_15:56:42 7323 20 male R 4 1 11 moral immoralOther U u 1 0.5439 
19-May-2018_15:56:43 7323 20 male R 4 1 12 moral immoralOther U u 1 0.4221 
19-May-2018_15:56:45 7323 20 male R 4 1 13 moral moralOther Y y 1 0.5782 
19-May-2018_15:56:47 7323 20 male R 4 1 14 moral immoralSelf U u 1 0.5823 
19-May-2018_15:56:49 7323 20 male R 4 1 15 moral moralSelf Y y 1 0.5545 
19-May-2018_15:56:51 7323 20 male R 4 1 16 moral immoralSelf U u 1 0.5884 
19-May-2018_15:56:52 7323 20 male R 4 1 17 moral immoralOther U u 1 0.6766 
19-May-2018_15:56:54 7323 20 male R 4 1 18 moral moralSelf Y y 1 0.6687 
19-May-2018_15:56:56 7323 20 male R 4 1 19 moral moralSelf Y y 1 0.7329 
19-May-2018_15:56:58 7323 20 male R 4 1 20 moral immoralSelf U u 1 0.4509 
19-May-2018_15:57:00 7323 20 male R 4 1 21 moral moralSelf Y y 1 0.7789 
19-May-2018_15:57:02 7323 20 male R 4 1 22 moral immoralOther U u 1 0.4911 
19-May-2018_15:57:04 7323 20 male R 4 1 23 moral moralOther Y y 1 0.5611 
19-May-2018_15:57:06 7323 20 male R 4 1 24 moral immoralOther U u 1 0.6374 
19-May-2018_15:57:08 7323 20 male R 4 2 1 moral moralOther Y y 1 0.6956 
19-May-2018_15:57:10 7323 20 male R 4 2 2 moral moralSelf Y y 1 0.9456 
19-May-2018_15:57:12 7323 20 male R 4 2 3 moral immoralOther U u 1 0.5058 
19-May-2018_15:57:13 7323 20 male R 4 2 4 moral immoralSelf U u 1 0.4958 
19-May-2018_15:57:15 7323 20 male R 4 2 5 moral moralOther Y y 1 0.5139 
19-May-2018_15:57:17 7323 20 male R 4 2 6 moral immoralSelf U u 1 0.8080 
19-May-2018_15:57:19 7323 20 male R 4 2 7 moral moralSelf Y y 1 0.5262 
19-May-2018_15:57:21 7323 20 male R 4 2 8 moral moralSelf Y y 1 0.5443 
19-May-2018_15:57:22 7323 20 male R 4 2 9 moral immoralSelf U u 1 0.5063 
19-May-2018_15:57:24 7323 20 male R 4 2 10 moral immoralSelf U u 1 0.4644 
19-May-2018_15:57:26 7323 20 male R 4 2 11 moral moralOther Y y 1 0.4686 
19-May-2018_15:57:28 7323 20 male R 4 2 12 moral moralOther Y y 1 0.6086 
19-May-2018_15:57:29 7323 20 male R 4 2 13 moral moralSelf Y y 1 0.4907 
19-May-2018_15:57:31 7323 20 male R 4 2 14 moral immoralOther U u 1 0.4167 
19-May-2018_15:57:33 7323 20 male R 4 2 15 moral immoralOther U u 1 0.4449 
19-May-2018_15:57:35 7323 20 male R 4 2 16 moral moralSelf Y y 1 0.5770 
19-May-2018_15:57:36 7323 20 male R 4 2 17 moral moralSelf Y y 1 0.3951 
19-May-2018_15:57:38 7323 20 male R 4 2 18 moral immoralOther U u 1 0.4192 
19-May-2018_15:57:40 7323 20 male R 4 2 19 moral moralOther Y y 1 0.4773 
19-May-2018_15:57:42 7323 20 male R 4 2 20 moral immoralOther U y 0 0.4854 
19-May-2018_15:57:43 7323 20 male R 4 2 21 moral immoralOther U u 1 0.5614 
19-May-2018_15:57:45 7323 20 male R 4 2 22 moral immoralSelf U u 1 0.6035 
19-May-2018_15:57:47 7323 20 male R 4 2 23 moral moralOther Y y 1 0.5536 
19-May-2018_15:57:49 7323 20 male R 4 2 24 moral immoralSelf U u 1 0.6538 
19-May-2018_15:57:53 7323 20 male R 4 3 1 moral immoralSelf U u 1 0.5441 
19-May-2018_15:57:55 7323 20 male R 4 3 2 moral moralOther Y y 1 0.4721 
19-May-2018_15:57:57 7323 20 male R 4 3 3 moral moralSelf Y y 1 0.4782 
19-May-2018_15:57:59 7323 20 male R 4 3 4 moral immoralOther U u 1 0.4304 
19-May-2018_15:58:01 7323 20 male R 4 3 5 moral immoralOther U u 1 0.3964 
19-May-2018_15:58:02 7323 20 male R 4 3 6 moral moralOther Y y 1 0.3745 
19-May-2018_15:58:04 7323 20 male R 4 3 7 moral immoralSelf U u 1 0.5186 
19-May-2018_15:58:05 7323 20 male R 4 3 8 moral moralSelf Y y 1 0.4068 
19-May-2018_15:58:07 7323 20 male R 4 3 9 moral moralSelf Y y 1 0.5168 
19-May-2018_15:58:08 7323 20 male R 4 3 10 moral moralOther Y y 1 0.6130 
19-May-2018_15:58:10 7323 20 male R 4 3 11 moral immoralSelf U u 1 0.5451 
19-May-2018_15:58:12 7323 20 male R 4 3 12 moral moralOther Y y 1 0.5631 
19-May-2018_15:58:14 7323 20 male R 4 3 13 moral immoralSelf U u 1 0.4051 
19-May-2018_15:58:15 7323 20 male R 4 3 14 moral immoralOther U u 1 0.5894 
19-May-2018_15:58:17 7323 20 male R 4 3 15 moral moralOther Y y 1 0.6514 
19-May-2018_15:58:19 7323 20 male R 4 3 16 moral moralSelf Y y 1 0.7135 
19-May-2018_15:58:21 7323 20 male R 4 3 17 moral immoralOther U u 1 0.3776 
19-May-2018_15:58:23 7323 20 male R 4 3 18 moral immoralSelf U u 1 0.4537 
19-May-2018_15:58:24 7323 20 male R 4 3 19 moral moralSelf Y y 1 0.4698 
19-May-2018_15:58:26 7323 20 male R 4 3 20 moral moralSelf Y y 1 0.3620 
19-May-2018_15:58:27 7323 20 male R 4 3 21 moral immoralOther U u 1 0.3961 
19-May-2018_15:58:29 7323 20 male R 4 3 22 moral immoralSelf U u 1 0.3260 
19-May-2018_15:58:30 7323 20 male R 4 3 23 moral moralOther Y y 1 0.4242 
19-May-2018_15:58:32 7323 20 male R 4 3 24 moral immoralOther U u 1 0.3583 
19-May-2018_15:58:33 7323 20 male R 4 4 1 moral moralSelf Y y 1 0.4383 
19-May-2018_15:58:35 7323 20 male R 4 4 2 moral moralOther Y y 1 0.4584 
19-May-2018_15:58:37 7323 20 male R 4 4 3 moral moralOther Y y 1 0.5186 
19-May-2018_15:58:38 7323 20 male R 4 4 4 moral moralOther Y y 1 0.3407 
19-May-2018_15:58:40 7323 20 male R 4 4 5 moral moralSelf Y y 1 0.4148 
19-May-2018_15:58:41 7323 20 male R 4 4 6 moral immoralOther U u 1 0.4668 
19-May-2018_15:58:43 7323 20 male R 4 4 7 moral immoralSelf U u 1 0.3349 
19-May-2018_15:58:45 7323 20 male R 4 4 8 moral immoralOther U y 0 0.3869 
19-May-2018_15:58:46 7323 20 male R 4 4 9 moral immoralOther U u 1 0.4070 
19-May-2018_15:58:48 7323 20 male R 4 4 10 moral moralOther Y y 1 0.4612 
19-May-2018_15:58:50 7323 20 male R 4 4 11 moral moralSelf Y y 1 0.3573 
19-May-2018_15:58:51 7323 20 male R 4 4 12 moral immoralSelf U u 1 0.3314 
19-May-2018_15:58:53 7323 20 male R 4 4 13 moral immoralSelf U u 1 0.5115 
19-May-2018_15:58:54 7323 20 male R 4 4 14 moral immoralSelf U u 1 0.3056 
19-May-2018_15:58:56 7323 20 male R 4 4 15 moral immoralOther U u 1 0.5357 
19-May-2018_15:58:57 7323 20 male R 4 4 16 moral immoralOther U u 1 0.3437 
19-May-2018_15:58:59 7323 20 male R 4 4 17 moral moralSelf Y y 1 0.3119 
19-May-2018_15:59:01 7323 20 male R 4 4 18 moral moralOther Y y 1 0.4399 
19-May-2018_15:59:03 7323 20 male R 4 4 19 moral moralSelf Y y 1 0.4880 
19-May-2018_15:59:04 7323 20 male R 4 4 20 moral immoralOther U u 1 0.5361 
19-May-2018_15:59:06 7323 20 male R 4 4 21 moral immoralSelf U u 1 0.3362 
19-May-2018_15:59:08 7323 20 male R 4 4 22 moral moralSelf Y u 0 0.3223 
19-May-2018_15:59:10 7323 20 male R 4 4 23 moral immoralSelf U u 1 0.6764 
19-May-2018_15:59:11 7323 20 male R 4 4 24 moral moralOther Y y 1 0.4925 
19-May-2018_15:59:16 7323 20 male R 4 5 1 moral immoralSelf U u 1 0.5028 
19-May-2018_15:59:18 7323 20 male R 4 5 2 moral moralSelf Y y 1 0.4068 
19-May-2018_15:59:20 7323 20 male R 4 5 3 moral immoralOther U u 1 0.4830 
19-May-2018_15:59:21 7323 20 male R 4 5 4 moral moralOther Y y 1 0.5372 
19-May-2018_15:59:23 7323 20 male R 4 5 5 moral immoralOther U u 1 0.3812 
19-May-2018_15:59:25 7323 20 male R 4 5 6 moral moralOther Y y 1 0.4853 
19-May-2018_15:59:27 7323 20 male R 4 5 7 moral moralSelf Y y 1 0.6535 
19-May-2018_15:59:28 7323 20 male R 4 5 8 moral moralSelf Y y 1 0.4174 
19-May-2018_15:59:30 7323 20 male R 4 5 9 moral immoralSelf U u 1 0.7815 
19-May-2018_15:59:32 7323 20 male R 4 5 10 moral moralSelf Y y 1 0.4057 
19-May-2018_15:59:33 7323 20 male R 4 5 11 moral immoralSelf U u 1 0.3958 
19-May-2018_15:59:35 7323 20 male R 4 5 12 moral moralSelf Y y 1 0.3738 
19-May-2018_15:59:36 7323 20 male R 4 5 13 moral immoralSelf U u 1 0.4419 
19-May-2018_15:59:38 7323 20 male R 4 5 14 moral immoralSelf U u 1 0.3860 
19-May-2018_15:59:40 7323 20 male R 4 5 15 moral immoralOther U u 1 0.4421 
19-May-2018_15:59:42 7323 20 male R 4 5 16 moral moralOther Y y 1 0.4422 
19-May-2018_15:59:43 7323 20 male R 4 5 17 moral immoralSelf U u 1 0.4044 
19-May-2018_15:59:45 7323 20 male R 4 5 18 moral moralOther Y y 1 0.6745 
19-May-2018_15:59:47 7323 20 male R 4 5 19 moral moralSelf Y y 1 0.4765 
19-May-2018_15:59:49 7323 20 male R 4 5 20 moral moralOther Y y 1 0.4686 
19-May-2018_15:59:51 7323 20 male R 4 5 21 moral immoralOther U u 1 0.4108 
19-May-2018_15:59:53 7323 20 male R 4 5 22 moral immoralOther U u 1 0.4709 
19-May-2018_15:59:54 7323 20 male R 4 5 23 moral immoralOther U u 1 0.4169 
19-May-2018_15:59:56 7323 20 male R 4 5 24 moral moralOther Y y 1 0.4089 
Date Sub Age Sex Hand Block Bin Trial Task Shape corrResp Resp ACC RT
19-May-2018_16:02:11 7323 20 male R 5 1 1 self immoralOther H h 1 0.6727 
19-May-2018_16:02:13 7323 20 male R 5 1 2 self moralSelf J j 1 0.4729 
19-May-2018_16:02:14 7323 20 male R 5 1 3 self immoralSelf J j 1 0.4489 
19-May-2018_16:02:16 7323 20 male R 5 1 4 self moralSelf J j 1 0.4473 
19-May-2018_16:02:18 7323 20 male R 5 1 5 self immoralSelf J j 1 0.3812 
19-May-2018_16:02:19 7323 20 male R 5 1 6 self immoralSelf J j 1 0.3133 
19-May-2018_16:02:21 7323 20 male R 5 1 7 self immoralOther H h 1 0.5453 
19-May-2018_16:02:23 7323 20 male R 5 1 8 self moralOther H h 1 0.4674 
19-May-2018_16:02:25 7323 20 male R 5 1 9 self moralOther H h 1 0.4395 
19-May-2018_16:02:26 7323 20 male R 5 1 10 self moralSelf J j 1 0.6517 
19-May-2018_16:02:28 7323 20 male R 5 1 11 self moralSelf J j 1 0.4997 
19-May-2018_16:02:30 7323 20 male R 5 1 12 self moralOther H h 1 0.4717 
19-May-2018_16:02:32 7323 20 male R 5 1 13 self immoralSelf J j 1 0.4299 
19-May-2018_16:02:33 7323 20 male R 5 1 14 self immoralOther H h 1 0.5700 
19-May-2018_16:02:35 7323 20 male R 5 1 15 self moralOther H h 1 0.5081 
19-May-2018_16:02:37 7323 20 male R 5 1 16 self moralOther H h 1 0.4722 
19-May-2018_16:02:38 7323 20 male R 5 1 17 self immoralOther H h 1 0.4483 
19-May-2018_16:02:40 7323 20 male R 5 1 18 self immoralSelf J j 1 0.4564 
19-May-2018_16:02:42 7323 20 male R 5 1 19 self immoralSelf J j 1 0.4125 
19-May-2018_16:02:44 7323 20 male R 5 1 20 self moralSelf J j 1 0.4087 
19-May-2018_16:02:45 7323 20 male R 5 1 21 self moralSelf J j 1 0.3527 
19-May-2018_16:02:47 7323 20 male R 5 1 22 self immoralOther H h 1 0.7028 
19-May-2018_16:02:49 7323 20 male R 5 1 23 self moralOther H h 1 0.6269 
19-May-2018_16:02:51 7323 20 male R 5 1 24 self immoralOther H h 1 0.3730 
19-May-2018_16:02:52 7323 20 male R 5 2 1 self immoralOther H h 1 0.3690 
19-May-2018_16:02:54 7323 20 male R 5 2 2 self moralSelf J j 1 0.4132 
19-May-2018_16:02:55 7323 20 male R 5 2 3 self immoralSelf J j 1 0.3213 
19-May-2018_16:02:57 7323 20 male R 5 2 4 self immoralSelf J j 1 0.2894 
19-May-2018_16:02:59 7323 20 male R 5 2 5 self moralSelf J j 1 0.3274 
19-May-2018_16:03:00 7323 20 male R 5 2 6 self immoralOther H h 1 0.3576 
19-May-2018_16:03:02 7323 20 male R 5 2 7 self immoralOther H h 1 0.2877 
19-May-2018_16:03:04 7323 20 male R 5 2 8 self moralSelf J j 1 0.4539 
19-May-2018_16:03:06 7323 20 male R 5 2 9 self moralSelf J j 1 0.2879 
19-May-2018_16:03:08 7323 20 male R 5 2 10 self moralOther H h 1 0.4640 
19-May-2018_16:03:09 7323 20 male R 5 2 11 self immoralOther H h 1 0.4140 
19-May-2018_16:03:11 7323 20 male R 5 2 12 self immoralOther H h 1 0.3662 
19-May-2018_16:03:12 7323 20 male R 5 2 13 self moralOther H j 0 0.3862 
19-May-2018_16:03:14 7323 20 male R 5 2 14 self moralOther H h 1 0.5043 
19-May-2018_16:03:16 7323 20 male R 5 2 15 self immoralSelf J j 1 0.4044 
19-May-2018_16:03:17 7323 20 male R 5 2 16 self immoralSelf J j 1 0.3285 
19-May-2018_16:03:19 7323 20 male R 5 2 17 self moralSelf J j 1 0.4826 
19-May-2018_16:03:20 7323 20 male R 5 2 18 self moralOther H h 1 0.5586 
19-May-2018_16:03:22 7323 20 male R 5 2 19 self immoralSelf J j 1 0.4908 
19-May-2018_16:03:24 7323 20 male R 5 2 20 self immoralSelf J j 1 0.3609 
19-May-2018_16:03:25 7323 20 male R 5 2 21 self moralOther H h 1 0.4890 
19-May-2018_16:03:27 7323 20 male R 5 2 22 self moralSelf J j 1 0.4151 
19-May-2018_16:03:29 7323 20 male R 5 2 23 self moralOther H h 1 0.4152 
19-May-2018_16:03:31 7323 20 male R 5 2 24 self immoralOther H h 1 0.3873 
19-May-2018_16:03:35 7323 20 male R 5 3 1 self immoralOther H NA -1 1.0790 
19-May-2018_16:03:37 7323 20 male R 5 3 2 self immoralOther H h 1 0.4677 
19-May-2018_16:03:38 7323 20 male R 5 3 3 self immoralOther H h 1 0.3478 
19-May-2018_16:03:40 7323 20 male R 5 3 4 self immoralSelf J j 1 0.4058 
19-May-2018_16:03:42 7323 20 male R 5 3 5 self immoralSelf J j 1 0.2999 
19-May-2018_16:03:44 7323 20 male R 5 3 6 self moralOther H h 1 0.4820 
19-May-2018_16:03:45 7323 20 male R 5 3 7 self immoralSelf J h 0 0.3321 
19-May-2018_16:03:47 7323 20 male R 5 3 8 self moralSelf J j 1 0.4781 
19-May-2018_16:03:48 7323 20 male R 5 3 9 self moralSelf J j 1 0.3544 
19-May-2018_16:03:50 7323 20 male R 5 3 10 self immoralSelf J j 1 0.3365 
19-May-2018_16:03:51 7323 20 male R 5 3 11 self immoralOther H h 1 0.4644 
19-May-2018_16:03:53 7323 20 male R 5 3 12 self moralOther H h 1 0.4205 
19-May-2018_16:03:55 7323 20 male R 5 3 13 self immoralOther H h 1 0.4047 
19-May-2018_16:03:56 7323 20 male R 5 3 14 self moralOther H h 1 0.4448 
19-May-2018_16:03:58 7323 20 male R 5 3 15 self moralSelf J j 1 0.3628 
19-May-2018_16:04:00 7323 20 male R 5 3 16 self moralOther H h 1 0.3409 
19-May-2018_16:04:02 7323 20 male R 5 3 17 self immoralOther H h 1 0.4351 
19-May-2018_16:04:04 7323 20 male R 5 3 18 self moralSelf J j 1 0.4851 
19-May-2018_16:04:05 7323 20 male R 5 3 19 self moralOther H h 1 0.4512 
19-May-2018_16:04:07 7323 20 male R 5 3 20 self immoralSelf J j 1 0.4373 
19-May-2018_16:04:09 7323 20 male R 5 3 21 self moralSelf J j 1 0.3994 
19-May-2018_16:04:10 7323 20 male R 5 3 22 self moralSelf J j 1 0.3177 
19-May-2018_16:04:12 7323 20 male R 5 3 23 self moralOther H h 1 0.3816 
19-May-2018_16:04:14 7323 20 male R 5 3 24 self immoralSelf J j 1 0.4877 
19-May-2018_16:04:15 7323 20 male R 5 4 1 self immoralOther H h 1 0.4479 
19-May-2018_16:04:17 7323 20 male R 5 4 2 self immoralOther H h 1 0.3460 
19-May-2018_16:04:19 7323 20 male R 5 4 3 self moralSelf J j 1 0.5999 
19-May-2018_16:04:20 7323 20 male R 5 4 4 self moralOther H h 1 0.3622 
19-May-2018_16:04:22 7323 20 male R 5 4 5 self moralOther H h 1 0.3923 
19-May-2018_16:04:24 7323 20 male R 5 4 6 self immoralOther H h 1 0.5383 
19-May-2018_16:04:25 7323 20 male R 5 4 7 self moralSelf J j 1 0.4043 
19-May-2018_16:04:27 7323 20 male R 5 4 8 self immoralOther H h 1 0.3485 
19-May-2018_16:04:29 7323 20 male R 5 4 9 self moralSelf J j 1 0.4405 
19-May-2018_16:04:30 7323 20 male R 5 4 10 self immoralSelf J j 1 0.4086 
19-May-2018_16:04:32 7323 20 male R 5 4 11 self moralSelf J j 1 0.3087 
19-May-2018_16:04:33 7323 20 male R 5 4 12 self immoralSelf J j 1 0.3929 
19-May-2018_16:04:35 7323 20 male R 5 4 13 self moralSelf J j 1 0.3829 
19-May-2018_16:04:37 7323 20 male R 5 4 14 self moralOther H h 1 0.3491 
19-May-2018_16:04:38 7323 20 male R 5 4 15 self moralSelf J j 1 0.3672 
19-May-2018_16:04:40 7323 20 male R 5 4 16 self immoralSelf J j 1 0.3812 
19-May-2018_16:04:41 7323 20 male R 5 4 17 self immoralSelf J j 1 0.3174 
19-May-2018_16:04:43 7323 20 male R 5 4 18 self immoralOther H h 1 0.5334 
19-May-2018_16:04:45 7323 20 male R 5 4 19 self moralOther H h 1 0.4055 
19-May-2018_16:04:46 7323 20 male R 5 4 20 self immoralOther H h 1 0.3396 
19-May-2018_16:04:48 7323 20 male R 5 4 21 self moralOther H h 1 0.3296 
19-May-2018_16:04:49 7323 20 male R 5 4 22 self immoralSelf J h 0 0.3201 
19-May-2018_16:04:51 7323 20 male R 5 4 23 self immoralSelf J j 1 0.3539 
19-May-2018_16:04:53 7323 20 male R 5 4 24 self moralOther H h 1 0.4679 
19-May-2018_16:04:56 7323 20 male R 5 5 1 self immoralSelf J j 1 0.4061 
19-May-2018_16:04:57 7323 20 male R 5 5 2 self immoralSelf J j 1 0.3102 
19-May-2018_16:04:59 7323 20 male R 5 5 3 self immoralOther H h 1 0.4303 
19-May-2018_16:05:01 7323 20 male R 5 5 4 self immoralOther H h 1 0.2944 
19-May-2018_16:05:02 7323 20 male R 5 5 5 self immoralOther H h 1 0.3105 
19-May-2018_16:05:04 7323 20 male R 5 5 6 self moralOther H h 1 0.3527 
19-May-2018_16:05:06 7323 20 male R 5 5 7 self moralSelf J j 1 0.3127 
19-May-2018_16:05:07 7323 20 male R 5 5 8 self moralSelf J j 1 0.2729 
19-May-2018_16:05:09 7323 20 male R 5 5 9 self moralOther H h 1 0.4688 
19-May-2018_16:05:10 7323 20 male R 5 5 10 self moralOther H h 1 0.3250 
19-May-2018_16:05:11 7323 20 male R 5 5 11 self immoralOther H h 1 0.3190 
19-May-2018_16:05:13 7323 20 male R 5 5 12 self moralOther H h 1 0.3671 
19-May-2018_16:05:14 7323 20 male R 5 5 13 self moralOther H h 1 0.3192 
19-May-2018_16:05:16 7323 20 male R 5 5 14 self immoralSelf J j 1 0.4214 
19-May-2018_16:05:18 7323 20 male R 5 5 15 self immoralOther H h 1 0.3854 
19-May-2018_16:05:20 7323 20 male R 5 5 16 self moralSelf J j 1 0.6275 
19-May-2018_16:05:21 7323 20 male R 5 5 17 self immoralSelf J j 1 0.4195 
19-May-2018_16:05:23 7323 20 male R 5 5 18 self immoralSelf J h 0 0.3278 
19-May-2018_16:05:25 7323 20 male R 5 5 19 self moralOther H h 1 0.5438 
19-May-2018_16:05:27 7323 20 male R 5 5 20 self immoralOther H h 1 0.3599 
19-May-2018_16:05:29 7323 20 male R 5 5 21 self immoralSelf J j 1 0.3360 
19-May-2018_16:05:30 7323 20 male R 5 5 22 self moralSelf J j 1 0.3341 
19-May-2018_16:05:32 7323 20 male R 5 5 23 self moralSelf J j 1 0.2962 
19-May-2018_16:05:34 7323 20 male R 5 5 24 self moralSelf J j 1 0.2903 
Date Sub Age Sex Hand Block Bin Trial Task Shape corrResp Resp ACC RT
19-May-2018_16:07:53 7323 20 male R 6 1 1 moral moralOther Y y 1 0.5942 
19-May-2018_16:07:55 7323 20 male R 6 1 2 moral immoralOther U u 1 0.6842 
19-May-2018_16:07:57 7323 20 male R 6 1 3 moral immoralOther U u 1 0.5725 
19-May-2018_16:07:59 7323 20 male R 6 1 4 moral immoralSelf U u 1 0.7565 
19-May-2018_16:08:01 7323 20 male R 6 1 5 moral moralSelf Y y 1 0.6827 
19-May-2018_16:08:02 7323 20 male R 6 1 6 moral moralSelf Y y 1 0.4647 
19-May-2018_16:08:04 7323 20 male R 6 1 7 moral moralOther Y y 1 0.5748 
19-May-2018_16:08:05 7323 20 male R 6 1 8 moral immoralSelf U u 1 0.5249 
19-May-2018_16:08:07 7323 20 male R 6 1 9 moral moralSelf Y y 1 0.6190 
19-May-2018_16:08:09 7323 20 male R 6 1 10 moral immoralSelf U u 1 0.6172 
19-May-2018_16:08:11 7323 20 male R 6 1 11 moral moralOther Y y 1 0.5352 
19-May-2018_16:08:13 7323 20 male R 6 1 12 moral immoralOther U u 1 0.6054 
19-May-2018_16:08:15 7323 20 male R 6 1 13 moral moralSelf Y y 1 0.6354 
19-May-2018_16:08:17 7323 20 male R 6 1 14 moral immoralOther U u 1 0.5616 
19-May-2018_16:08:19 7323 20 male R 6 1 15 moral immoralSelf U u 1 0.4297 
19-May-2018_16:08:20 7323 20 male R 6 1 16 moral moralSelf Y y 1 0.7459 
19-May-2018_16:08:22 7323 20 male R 6 1 17 moral immoralSelf U u 1 0.5938 
19-May-2018_16:08:24 7323 20 male R 6 1 18 moral immoralOther U u 1 0.7999 
19-May-2018_16:08:26 7323 20 male R 6 1 19 moral moralSelf Y y 1 0.5441 
19-May-2018_16:08:28 7323 20 male R 6 1 20 moral immoralOther U u 1 0.6202 
19-May-2018_16:08:30 7323 20 male R 6 1 21 moral moralOther Y y 1 0.7543 
19-May-2018_16:08:32 7323 20 male R 6 1 22 moral immoralSelf U u 1 0.5064 
19-May-2018_16:08:34 7323 20 male R 6 1 23 moral moralOther Y y 1 0.8466 
19-May-2018_16:08:36 7323 20 male R 6 1 24 moral moralOther Y y 1 0.4507 
19-May-2018_16:08:38 7323 20 male R 6 2 1 moral immoralSelf U u 1 0.5388 
19-May-2018_16:08:39 7323 20 male R 6 2 2 moral immoralSelf U u 1 0.4229 
19-May-2018_16:08:41 7323 20 male R 6 2 3 moral moralOther Y y 1 0.5530 
19-May-2018_16:08:43 7323 20 male R 6 2 4 moral moralSelf Y y 1 0.4970 
19-May-2018_16:08:45 7323 20 male R 6 2 5 moral immoralSelf U u 1 0.4512 
19-May-2018_16:08:47 7323 20 male R 6 2 6 moral moralSelf Y y 1 0.5012 
19-May-2018_16:08:49 7323 20 male R 6 2 7 moral moralOther Y y 1 0.5073 
19-May-2018_16:08:50 7323 20 male R 6 2 8 moral immoralOther U u 1 0.5534 
19-May-2018_16:08:52 7323 20 male R 6 2 9 moral immoralOther U u 1 0.5036 
19-May-2018_16:08:54 7323 20 male R 6 2 10 moral moralOther Y y 1 0.5237 
19-May-2018_16:08:56 7323 20 male R 6 2 11 moral immoralOther U u 1 0.6158 
19-May-2018_16:08:58 7323 20 male R 6 2 12 moral moralSelf Y y 1 0.6220 
19-May-2018_16:09:00 7323 20 male R 6 2 13 moral immoralOther U u 1 0.5379 
19-May-2018_16:09:02 7323 20 male R 6 2 14 moral moralOther Y y 1 0.7842 
19-May-2018_16:09:03 7323 20 male R 6 2 15 moral moralSelf Y y 1 0.7203 
19-May-2018_16:09:05 7323 20 male R 6 2 16 moral immoralSelf U u 1 0.5304 
19-May-2018_16:09:07 7323 20 male R 6 2 17 moral immoralOther U u 1 0.5445 
19-May-2018_16:09:09 7323 20 male R 6 2 18 moral immoralSelf U u 1 0.8225 
19-May-2018_16:09:11 7323 20 male R 6 2 19 moral immoralSelf U u 1 0.5366 
19-May-2018_16:09:13 7323 20 male R 6 2 20 moral moralSelf Y y 1 0.5528 
19-May-2018_16:09:15 7323 20 male R 6 2 21 moral moralOther Y y 1 0.5388 
19-May-2018_16:09:16 7323 20 male R 6 2 22 moral moralOther Y y 1 0.5470 
19-May-2018_16:09:18 7323 20 male R 6 2 23 moral immoralOther U u 1 0.4871 
19-May-2018_16:09:20 7323 20 male R 6 2 24 moral moralSelf Y y 1 0.8951 
19-May-2018_16:09:27 7323 20 male R 6 3 1 moral immoralSelf U u 1 0.6855 
19-May-2018_16:09:29 7323 20 male R 6 3 2 moral moralSelf Y y 1 0.5597 
19-May-2018_16:09:31 7323 20 male R 6 3 3 moral immoralSelf U u 1 0.5178 
19-May-2018_16:09:33 7323 20 male R 6 3 4 moral immoralOther U u 1 0.5839 
19-May-2018_16:09:35 7323 20 male R 6 3 5 moral immoralOther U u 1 0.4580 
19-May-2018_16:09:36 7323 20 male R 6 3 6 moral moralOther Y y 1 0.5002 
19-May-2018_16:09:38 7323 20 male R 6 3 7 moral immoralOther U u 1 0.4302 
19-May-2018_16:09:40 7323 20 male R 6 3 8 moral immoralOther U u 1 0.3363 
19-May-2018_16:09:41 7323 20 male R 6 3 9 moral immoralSelf U u 1 0.5404 
19-May-2018_16:09:43 7323 20 male R 6 3 10 moral moralOther Y y 1 0.4185 
19-May-2018_16:09:45 7323 20 male R 6 3 11 moral moralSelf Y y 1 0.5205 
19-May-2018_16:09:47 7323 20 male R 6 3 12 moral moralOther Y y 1 0.5047 
19-May-2018_16:09:48 7323 20 male R 6 3 13 moral immoralSelf U u 1 0.4187 
19-May-2018_16:09:50 7323 20 male R 6 3 14 moral moralOther Y y 1 0.4569 
19-May-2018_16:09:51 7323 20 male R 6 3 15 moral moralOther Y y 1 0.3949 
19-May-2018_16:09:53 7323 20 male R 6 3 16 moral immoralOther U u 1 0.4510 
19-May-2018_16:09:54 7323 20 male R 6 3 17 moral immoralOther U u 1 0.3052 
19-May-2018_16:09:56 7323 20 male R 6 3 18 moral moralSelf Y u 0 0.3493 
19-May-2018_16:09:58 7323 20 male R 6 3 19 moral moralSelf Y y 1 0.5073 
19-May-2018_16:10:00 7323 20 male R 6 3 20 moral immoralSelf U u 1 0.5015 
19-May-2018_16:10:02 7323 20 male R 6 3 21 moral moralSelf Y y 1 0.6215 
19-May-2018_16:10:03 7323 20 male R 6 3 22 moral moralSelf Y y 1 0.4756 
19-May-2018_16:10:05 7323 20 male R 6 3 23 moral immoralSelf U u 1 0.5278 
19-May-2018_16:10:07 7323 20 male R 6 3 24 moral moralOther Y y 1 0.5618 
19-May-2018_16:10:09 7323 20 male R 6 4 1 moral moralOther Y y 1 0.4599 
19-May-2018_16:10:11 7323 20 male R 6 4 2 moral moralSelf Y y 1 0.3840 
19-May-2018_16:10:12 7323 20 male R 6 4 3 moral moralSelf Y y 1 0.3441 
19-May-2018_16:10:14 7323 20 male R 6 4 4 moral immoralSelf U u 1 0.5242 
19-May-2018_16:10:16 7323 20 male R 6 4 5 moral immoralOther U u 1 0.3704 
19-May-2018_16:10:17 7323 20 male R 6 4 6 moral moralOther Y y 1 0.4085 
19-May-2018_16:10:19 7323 20 male R 6 4 7 moral moralSelf Y u 0 0.4465 
19-May-2018_16:10:21 7323 20 male R 6 4 8 moral moralOther Y y 1 0.5326 
19-May-2018_16:10:23 7323 20 male R 6 4 9 moral immoralSelf U u 1 0.6368 
19-May-2018_16:10:25 7323 20 male R 6 4 10 moral immoralOther U u 1 0.7668 
19-May-2018_16:10:27 7323 20 male R 6 4 11 moral immoralSelf U u 1 0.4590 
19-May-2018_16:10:28 7323 20 male R 6 4 12 moral immoralOther U u 1 0.5110 
19-May-2018_16:10:30 7323 20 male R 6 4 13 moral immoralOther U u 1 0.3432 
19-May-2018_16:10:32 7323 20 male R 6 4 14 moral moralSelf Y y 1 0.6734 
19-May-2018_16:10:34 7323 20 male R 6 4 15 moral moralOther Y y 1 0.8373 
19-May-2018_16:10:36 7323 20 male R 6 4 16 moral immoralSelf U u 1 0.4894 
19-May-2018_16:10:37 7323 20 male R 6 4 17 moral moralOther Y y 1 0.4456 
19-May-2018_16:10:39 7323 20 male R 6 4 18 moral immoralSelf U u 1 0.4076 
19-May-2018_16:10:41 7323 20 male R 6 4 19 moral immoralSelf U u 1 0.3118 
19-May-2018_16:10:43 7323 20 male R 6 4 20 moral moralSelf Y u 0 0.4458 
19-May-2018_16:10:44 7323 20 male R 6 4 21 moral moralOther Y y 1 0.4320 
19-May-2018_16:10:46 7323 20 male R 6 4 22 moral moralSelf Y y 1 0.3700 
19-May-2018_16:10:48 7323 20 male R 6 4 23 moral immoralOther U u 1 0.4702 
19-May-2018_16:10:49 7323 20 male R 6 4 24 moral immoralOther U u 1 0.3903 
19-May-2018_16:10:53 7323 20 male R 6 5 1 moral moralSelf Y y 1 0.7124 
19-May-2018_16:10:54 7323 20 male R 6 5 2 moral immoralOther U u 1 0.5506 
19-May-2018_16:10:56 7323 20 male R 6 5 3 moral moralSelf Y y 1 0.5446 
19-May-2018_16:10:58 7323 20 male R 6 5 4 moral immoralSelf U u 1 0.4547 
19-May-2018_16:11:00 7323 20 male R 6 5 5 moral immoralOther U u 1 0.4608 
19-May-2018_16:11:01 7323 20 male R 6 5 6 moral immoralSelf U u 1 0.4029 
19-May-2018_16:11:03 7323 20 male R 6 5 7 moral moralOther Y y 1 0.5010 
19-May-2018_16:11:05 7323 20 male R 6 5 8 moral immoralSelf U u 1 0.3711 
19-May-2018_16:11:07 7323 20 male R 6 5 9 moral immoralOther U u 1 0.3753 
19-May-2018_16:11:08 7323 20 male R 6 5 10 moral immoralSelf U u 1 0.3653 
19-May-2018_16:11:10 7323 20 male R 6 5 11 moral moralSelf Y y 1 0.4674 
19-May-2018_16:11:12 7323 20 male R 6 5 12 moral moralSelf Y y 1 0.4495 
19-May-2018_16:11:13 7323 20 male R 6 5 13 moral immoralOther U u 1 0.4296 
19-May-2018_16:11:15 7323 20 male R 6 5 14 moral moralOther Y y 1 0.4977 
19-May-2018_16:11:17 7323 20 male R 6 5 15 moral moralOther Y y 1 0.4898 
19-May-2018_16:11:19 7323 20 male R 6 5 16 moral moralOther Y y 1 0.5542 
19-May-2018_16:11:21 7323 20 male R 6 5 17 moral immoralOther U u 1 0.4001 
19-May-2018_16:11:23 7323 20 male R 6 5 18 moral immoralOther U u 1 0.8661 
19-May-2018_16:11:24 7323 20 male R 6 5 19 moral moralOther Y y 1 0.3922 
19-May-2018_16:11:26 7323 20 male R 6 5 20 moral moralSelf Y y 1 0.4803 
19-May-2018_16:11:27 7323 20 male R 6 5 21 moral moralSelf Y y 1 0.4124 
19-May-2018_16:11:29 7323 20 male R 6 5 22 moral immoralSelf U u 1 0.4206 
19-May-2018_16:11:31 7323 20 male R 6 5 23 moral moralOther Y y 1 0.4326 
19-May-2018_16:11:33 7323 20 male R 6 5 24 moral immoralSelf U u 1 0.3827 
