Date Sub Age Sex Hand Block Bin Trial Task Shape corrResp Resp ACC RT
17-May-2018_16:11:37 7320 19 male L 1 1 1 self moralOther J j 1 0.5958 
17-May-2018_16:11:39 7320 19 male L 1 1 2 self immoralOther J j 1 0.7499 
17-May-2018_16:11:40 7320 19 male L 1 1 3 self immoralOther J j 1 0.6520 
17-May-2018_16:11:42 7320 19 male L 1 1 4 self immoralSelf H h 1 0.4181 
17-May-2018_16:11:44 7320 19 male L 1 1 5 self immoralOther J j 1 0.4143 
17-May-2018_16:11:45 7320 19 male L 1 1 6 self moralOther J h 0 0.5223 
17-May-2018_16:11:47 7320 19 male L 1 1 7 self moralSelf H h 1 0.5545 
17-May-2018_16:11:49 7320 19 male L 1 1 8 self moralOther J j 1 0.4485 
17-May-2018_16:11:51 7320 19 male L 1 1 9 self immoralOther J j 1 0.6026 
17-May-2018_16:11:53 7320 19 male L 1 1 10 self moralOther J j 1 0.5846 
17-May-2018_16:11:54 7320 19 male L 1 1 11 self moralSelf H h 1 0.4949 
17-May-2018_16:11:56 7320 19 male L 1 1 12 self moralSelf H h 1 0.4409 
17-May-2018_16:11:57 7320 19 male L 1 1 13 self immoralSelf H h 1 0.3690 
17-May-2018_16:11:59 7320 19 male L 1 1 14 self immoralSelf H h 1 0.3632 
17-May-2018_16:12:01 7320 19 male L 1 1 15 self moralSelf H h 1 0.4612 
17-May-2018_16:12:02 7320 19 male L 1 1 16 self immoralSelf H h 1 0.3592 
17-May-2018_16:12:04 7320 19 male L 1 1 17 self moralSelf H h 1 0.3655 
17-May-2018_16:12:06 7320 19 male L 1 1 18 self moralOther J j 1 0.4315 
17-May-2018_16:12:07 7320 19 male L 1 1 19 self immoralSelf H j 0 0.3996 
17-May-2018_16:12:08 7320 19 male L 1 1 20 self immoralSelf H h 1 0.3996 
17-May-2018_16:12:10 7320 19 male L 1 1 21 self immoralOther J j 1 0.4318 
17-May-2018_16:12:12 7320 19 male L 1 1 22 self moralSelf H h 1 0.3978 
17-May-2018_16:12:13 7320 19 male L 1 1 23 self moralOther J j 1 0.4879 
17-May-2018_16:12:15 7320 19 male L 1 1 24 self immoralOther J j 1 0.5301 
17-May-2018_16:12:17 7320 19 male L 1 2 1 self immoralOther J j 1 0.5061 
17-May-2018_16:12:19 7320 19 male L 1 2 2 self moralSelf H h 1 0.4102 
17-May-2018_16:12:20 7320 19 male L 1 2 3 self immoralOther J j 1 0.5263 
17-May-2018_16:12:22 7320 19 male L 1 2 4 self immoralSelf H h 1 0.4544 
17-May-2018_16:12:24 7320 19 male L 1 2 5 self moralOther J j 1 0.5684 
17-May-2018_16:12:26 7320 19 male L 1 2 6 self immoralOther J j 1 0.4547 
17-May-2018_16:12:27 7320 19 male L 1 2 7 self immoralSelf H h 1 0.3348 
17-May-2018_16:12:29 7320 19 male L 1 2 8 self immoralSelf H h 1 0.5408 
17-May-2018_16:12:31 7320 19 male L 1 2 9 self moralSelf H j 0 0.3569 
17-May-2018_16:12:32 7320 19 male L 1 2 10 self immoralOther J j 1 0.4850 
17-May-2018_16:12:34 7320 19 male L 1 2 11 self moralSelf H h 1 0.4550 
17-May-2018_16:12:36 7320 19 male L 1 2 12 self moralSelf H h 1 0.3211 
17-May-2018_16:12:37 7320 19 male L 1 2 13 self immoralSelf H h 1 0.3013 
17-May-2018_16:12:39 7320 19 male L 1 2 14 self moralSelf H h 1 0.4393 
17-May-2018_16:12:41 7320 19 male L 1 2 15 self moralOther J j 1 0.4094 
17-May-2018_16:12:42 7320 19 male L 1 2 16 self moralSelf H h 1 0.3795 
17-May-2018_16:12:44 7320 19 male L 1 2 17 self immoralSelf H h 1 0.3177 
17-May-2018_16:12:45 7320 19 male L 1 2 18 self moralOther J j 1 0.4458 
17-May-2018_16:12:47 7320 19 male L 1 2 19 self immoralOther J h 0 0.3578 
17-May-2018_16:12:48 7320 19 male L 1 2 20 self immoralOther J j 1 0.5779 
17-May-2018_16:12:50 7320 19 male L 1 2 21 self immoralSelf H h 1 0.4060 
17-May-2018_16:12:52 7320 19 male L 1 2 22 self moralOther J j 1 0.6041 
17-May-2018_16:12:53 7320 19 male L 1 2 23 self moralOther J j 1 0.5681 
17-May-2018_16:12:55 7320 19 male L 1 2 24 self moralOther J j 1 0.6362 
17-May-2018_16:13:06 7320 19 male L 1 3 1 self immoralOther J j 1 0.5049 
17-May-2018_16:13:07 7320 19 male L 1 3 2 self immoralSelf H h 1 0.4209 
17-May-2018_16:13:09 7320 19 male L 1 3 3 self immoralSelf H h 1 0.3470 
17-May-2018_16:13:11 7320 19 male L 1 3 4 self moralOther J j 1 0.4492 
17-May-2018_16:13:12 7320 19 male L 1 3 5 self immoralSelf H h 1 0.3832 
17-May-2018_16:13:14 7320 19 male L 1 3 6 self moralSelf H h 1 0.4473 
17-May-2018_16:13:15 7320 19 male L 1 3 7 self moralSelf H h 1 0.3654 
17-May-2018_16:13:17 7320 19 male L 1 3 8 self immoralOther J j 1 0.5075 
17-May-2018_16:13:19 7320 19 male L 1 3 9 self moralSelf H h 1 0.4776 
17-May-2018_16:13:21 7320 19 male L 1 3 10 self immoralOther J j 1 0.4338 
17-May-2018_16:13:22 7320 19 male L 1 3 11 self moralOther J j 1 0.6498 
17-May-2018_16:13:24 7320 19 male L 1 3 12 self moralOther J j 1 0.4739 
17-May-2018_16:13:25 7320 19 male L 1 3 13 self immoralSelf H h 1 0.4059 
17-May-2018_16:13:27 7320 19 male L 1 3 14 self moralSelf H h 1 0.5402 
17-May-2018_16:13:29 7320 19 male L 1 3 15 self immoralOther J j 1 0.6641 
17-May-2018_16:13:31 7320 19 male L 1 3 16 self moralOther J j 1 0.5363 
17-May-2018_16:13:33 7320 19 male L 1 3 17 self immoralOther J j 1 0.4404 
17-May-2018_16:13:34 7320 19 male L 1 3 18 self moralSelf H h 1 0.4886 
17-May-2018_16:13:36 7320 19 male L 1 3 19 self immoralSelf H h 1 0.4266 
17-May-2018_16:13:37 7320 19 male L 1 3 20 self moralOther J j 1 0.4706 
17-May-2018_16:13:39 7320 19 male L 1 3 21 self moralSelf H h 1 0.4608 
17-May-2018_16:13:41 7320 19 male L 1 3 22 self moralOther J j 1 0.4348 
17-May-2018_16:13:42 7320 19 male L 1 3 23 self immoralOther J j 1 0.4789 
17-May-2018_16:13:44 7320 19 male L 1 3 24 self immoralSelf H h 1 0.5651 
17-May-2018_16:13:46 7320 19 male L 1 4 1 self moralOther J j 1 0.5131 
17-May-2018_16:13:48 7320 19 male L 1 4 2 self moralOther J j 1 0.6213 
17-May-2018_16:13:50 7320 19 male L 1 4 3 self immoralSelf H h 1 0.5574 
17-May-2018_16:13:52 7320 19 male L 1 4 4 self moralSelf H h 1 0.5715 
17-May-2018_16:13:54 7320 19 male L 1 4 5 self immoralOther J j 1 0.6275 
17-May-2018_16:13:55 7320 19 male L 1 4 6 self moralOther J j 1 0.6997 
17-May-2018_16:13:57 7320 19 male L 1 4 7 self moralOther J j 1 0.6118 
17-May-2018_16:13:59 7320 19 male L 1 4 8 self immoralSelf H h 1 0.5299 
17-May-2018_16:14:01 7320 19 male L 1 4 9 self immoralOther J j 1 0.5660 
17-May-2018_16:14:03 7320 19 male L 1 4 10 self moralOther J j 1 0.7760 
17-May-2018_16:14:05 7320 19 male L 1 4 11 self immoralOther J j 1 0.5881 
17-May-2018_16:14:06 7320 19 male L 1 4 12 self immoralSelf H h 1 0.5403 
17-May-2018_16:14:08 7320 19 male L 1 4 13 self moralSelf H h 1 0.6084 
17-May-2018_16:14:10 7320 19 male L 1 4 14 self moralSelf H h 1 0.5165 
17-May-2018_16:14:11 7320 19 male L 1 4 15 self immoralSelf H h 1 0.5246 
17-May-2018_16:14:13 7320 19 male L 1 4 16 self immoralSelf H h 1 0.4407 
17-May-2018_16:14:15 7320 19 male L 1 4 17 self moralSelf H h 1 0.4348 
17-May-2018_16:14:17 7320 19 male L 1 4 18 self moralSelf H h 1 0.4789 
17-May-2018_16:14:19 7320 19 male L 1 4 19 self moralOther J j 1 0.5550 
17-May-2018_16:14:20 7320 19 male L 1 4 20 self immoralOther J j 1 0.3692 
17-May-2018_16:14:22 7320 19 male L 1 4 21 self immoralSelf H h 1 0.5252 
17-May-2018_16:14:24 7320 19 male L 1 4 22 self moralSelf H h 1 0.4613 
17-May-2018_16:14:26 7320 19 male L 1 4 23 self immoralOther J j 1 0.4294 
17-May-2018_16:14:27 7320 19 male L 1 4 24 self immoralOther J j 1 0.3695 
17-May-2018_16:14:31 7320 19 male L 1 5 1 self moralOther J j 1 0.4397 
17-May-2018_16:14:33 7320 19 male L 1 5 2 self immoralSelf H h 1 0.3159 
17-May-2018_16:14:34 7320 19 male L 1 5 3 self moralSelf H h 1 0.2919 
17-May-2018_16:14:35 7320 19 male L 1 5 4 self immoralOther J j 1 0.3779 
17-May-2018_16:14:37 7320 19 male L 1 5 5 self immoralSelf H j 0 0.3080 
17-May-2018_16:14:38 7320 19 male L 1 5 6 self immoralOther J j 1 0.6541 
17-May-2018_16:14:40 7320 19 male L 1 5 7 self immoralSelf H h 1 0.3522 
17-May-2018_16:14:42 7320 19 male L 1 5 8 self moralSelf H h 1 0.2783 
17-May-2018_16:14:43 7320 19 male L 1 5 9 self moralSelf H h 1 0.4264 
17-May-2018_16:14:45 7320 19 male L 1 5 10 self moralSelf H h 1 0.3565 
17-May-2018_16:14:47 7320 19 male L 1 5 11 self immoralSelf H h 1 0.4246 
17-May-2018_16:14:48 7320 19 male L 1 5 12 self moralOther J h 0 0.3307 
17-May-2018_16:14:50 7320 19 male L 1 5 13 self moralOther J j 1 0.2627 
17-May-2018_16:14:51 7320 19 male L 1 5 14 self moralOther J j 1 0.2968 
17-May-2018_16:14:53 7320 19 male L 1 5 15 self immoralSelf H h 1 0.4429 
17-May-2018_16:14:54 7320 19 male L 1 5 16 self immoralOther J j 1 0.4410 
17-May-2018_16:14:56 7320 19 male L 1 5 17 self immoralOther J j 1 0.3851 
17-May-2018_16:14:58 7320 19 male L 1 5 18 self moralSelf H h 1 0.4992 
17-May-2018_16:15:00 7320 19 male L 1 5 19 self moralOther J j 1 0.5014 
17-May-2018_16:15:01 7320 19 male L 1 5 20 self moralSelf H h 1 0.3755 
17-May-2018_16:15:03 7320 19 male L 1 5 21 self immoralOther J j 1 0.4235 
17-May-2018_16:15:04 7320 19 male L 1 5 22 self immoralSelf H h 1 0.5396 
17-May-2018_16:15:06 7320 19 male L 1 5 23 self moralOther J j 1 0.3977 
17-May-2018_16:15:08 7320 19 male L 1 5 24 self immoralOther J h 0 0.3138 
Date Sub Age Sex Hand Block Bin Trial Task Shape corrResp Resp ACC RT
17-May-2018_16:18:10 7320 19 male L 2 1 1 moral moralOther U u 1 0.6601 
17-May-2018_16:18:12 7320 19 male L 2 1 2 moral moralOther U u 1 0.5021 
17-May-2018_16:18:14 7320 19 male L 2 1 3 moral immoralSelf Y y 1 0.7503 
17-May-2018_16:18:15 7320 19 male L 2 1 4 moral immoralOther Y y 1 0.3805 
17-May-2018_16:18:17 7320 19 male L 2 1 5 moral immoralSelf Y y 1 0.5584 
17-May-2018_16:18:19 7320 19 male L 2 1 6 moral immoralSelf Y y 1 0.4306 
17-May-2018_16:18:21 7320 19 male L 2 1 7 moral moralOther U y 0 0.4807 
17-May-2018_16:18:23 7320 19 male L 2 1 8 moral immoralOther Y y 1 0.5207 
17-May-2018_16:18:24 7320 19 male L 2 1 9 moral moralOther U u 1 0.3349 
17-May-2018_16:18:26 7320 19 male L 2 1 10 moral moralSelf U u 1 0.2550 
17-May-2018_16:18:27 7320 19 male L 2 1 11 moral immoralSelf Y y 1 0.3451 
17-May-2018_16:18:29 7320 19 male L 2 1 12 moral moralSelf U u 1 0.5131 
17-May-2018_16:18:30 7320 19 male L 2 1 13 moral moralSelf U u 1 0.4113 
17-May-2018_16:18:32 7320 19 male L 2 1 14 moral immoralOther Y y 1 0.3913 
17-May-2018_16:18:34 7320 19 male L 2 1 15 moral immoralSelf Y y 1 0.3294 
17-May-2018_16:18:35 7320 19 male L 2 1 16 moral immoralOther Y y 1 0.3576 
17-May-2018_16:18:37 7320 19 male L 2 1 17 moral immoralOther Y y 1 0.3816 
17-May-2018_16:18:38 7320 19 male L 2 1 18 moral immoralSelf Y y 1 0.4257 
17-May-2018_16:18:40 7320 19 male L 2 1 19 moral moralSelf U y 0 0.2938 
17-May-2018_16:18:42 7320 19 male L 2 1 20 moral moralOther U y 0 0.4539 
17-May-2018_16:18:43 7320 19 male L 2 1 21 moral moralSelf U u 1 0.4481 
17-May-2018_16:18:45 7320 19 male L 2 1 22 moral immoralOther Y y 1 0.5241 
17-May-2018_16:18:46 7320 19 male L 2 1 23 moral moralOther U u 1 0.6502 
17-May-2018_16:18:48 7320 19 male L 2 1 24 moral moralSelf U u 1 0.4882 
17-May-2018_16:18:50 7320 19 male L 2 2 1 moral immoralSelf Y y 1 0.5182 
17-May-2018_16:18:51 7320 19 male L 2 2 2 moral immoralOther Y u 0 0.3464 
17-May-2018_16:18:53 7320 19 male L 2 2 3 moral immoralOther Y y 1 0.5286 
17-May-2018_16:18:55 7320 19 male L 2 2 4 moral immoralSelf Y y 1 0.5746 
17-May-2018_16:18:56 7320 19 male L 2 2 5 moral moralSelf U u 1 0.4187 
17-May-2018_16:18:58 7320 19 male L 2 2 6 moral immoralOther Y y 1 0.6368 
17-May-2018_16:18:59 7320 19 male L 2 2 7 moral moralOther U u 1 0.5949 
17-May-2018_16:19:01 7320 19 male L 2 2 8 moral moralSelf U u 1 0.4629 
17-May-2018_16:19:03 7320 19 male L 2 2 9 moral moralSelf U u 1 0.3871 
17-May-2018_16:19:04 7320 19 male L 2 2 10 moral moralSelf U u 1 0.3612 
17-May-2018_16:19:06 7320 19 male L 2 2 11 moral moralOther U y 0 0.4773 
17-May-2018_16:19:07 7320 19 male L 2 2 12 moral immoralOther Y u 0 0.4533 
17-May-2018_16:19:09 7320 19 male L 2 2 13 moral moralOther U u 1 0.6794 
17-May-2018_16:19:11 7320 19 male L 2 2 14 moral moralSelf U u 1 0.5095 
17-May-2018_16:19:13 7320 19 male L 2 2 15 moral immoralOther Y y 1 0.5136 
17-May-2018_16:19:15 7320 19 male L 2 2 16 moral moralOther U u 1 0.6397 
17-May-2018_16:19:17 7320 19 male L 2 2 17 moral moralOther U u 1 0.5458 
17-May-2018_16:19:19 7320 19 male L 2 2 18 moral immoralOther Y y 1 0.6319 
17-May-2018_16:19:20 7320 19 male L 2 2 19 moral moralSelf U u 1 0.4801 
17-May-2018_16:19:22 7320 19 male L 2 2 20 moral moralOther U NA -1 1.0170 
17-May-2018_16:19:24 7320 19 male L 2 2 21 moral immoralSelf Y y 1 0.4703 
17-May-2018_16:19:25 7320 19 male L 2 2 22 moral immoralSelf Y y 1 0.3503 
17-May-2018_16:19:27 7320 19 male L 2 2 23 moral immoralSelf Y y 1 0.3024 
17-May-2018_16:19:29 7320 19 male L 2 2 24 moral immoralSelf Y y 1 0.4926 
17-May-2018_16:19:38 7320 19 male L 2 3 1 moral moralSelf U u 1 0.5430 
17-May-2018_16:19:40 7320 19 male L 2 3 2 moral moralSelf U u 1 0.3652 
17-May-2018_16:19:41 7320 19 male L 2 3 3 moral immoralSelf Y y 1 0.4352 
17-May-2018_16:19:43 7320 19 male L 2 3 4 moral moralSelf U u 1 0.4893 
17-May-2018_16:19:45 7320 19 male L 2 3 5 moral immoralOther Y y 1 0.6635 
17-May-2018_16:19:46 7320 19 male L 2 3 6 moral moralOther U u 1 0.3776 
17-May-2018_16:19:48 7320 19 male L 2 3 7 moral immoralOther Y y 1 0.4917 
17-May-2018_16:19:50 7320 19 male L 2 3 8 moral immoralSelf Y y 1 0.4897 
17-May-2018_16:19:51 7320 19 male L 2 3 9 moral moralOther U u 1 0.5258 
17-May-2018_16:19:53 7320 19 male L 2 3 10 moral immoralSelf Y y 1 0.3999 
17-May-2018_16:19:54 7320 19 male L 2 3 11 moral moralOther U u 1 0.3180 
17-May-2018_16:19:56 7320 19 male L 2 3 12 moral immoralOther Y y 1 0.3642 
17-May-2018_16:19:57 7320 19 male L 2 3 13 moral immoralOther Y y 1 0.4182 
17-May-2018_16:19:59 7320 19 male L 2 3 14 moral moralSelf U u 1 0.3722 
17-May-2018_16:20:01 7320 19 male L 2 3 15 moral moralOther U y 0 0.3463 
17-May-2018_16:20:02 7320 19 male L 2 3 16 moral moralSelf U u 1 0.4885 
17-May-2018_16:20:04 7320 19 male L 2 3 17 moral immoralSelf Y y 1 0.3625 
17-May-2018_16:20:05 7320 19 male L 2 3 18 moral moralOther U u 1 0.3906 
17-May-2018_16:20:07 7320 19 male L 2 3 19 moral moralSelf U u 1 0.4506 
17-May-2018_16:20:08 7320 19 male L 2 3 20 moral immoralOther Y y 1 0.4148 
17-May-2018_16:20:10 7320 19 male L 2 3 21 moral immoralOther Y y 1 0.3348 
17-May-2018_16:20:12 7320 19 male L 2 3 22 moral immoralSelf Y y 1 0.5829 
17-May-2018_16:20:13 7320 19 male L 2 3 23 moral moralOther U y 0 0.3350 
17-May-2018_16:20:15 7320 19 male L 2 3 24 moral immoralSelf Y y 1 0.3912 
17-May-2018_16:20:17 7320 19 male L 2 4 1 moral immoralOther Y y 1 0.3851 
17-May-2018_16:20:18 7320 19 male L 2 4 2 moral immoralOther Y y 1 0.3573 
17-May-2018_16:20:20 7320 19 male L 2 4 3 moral immoralOther Y y 1 0.3174 
17-May-2018_16:20:21 7320 19 male L 2 4 4 moral immoralOther Y y 1 0.3055 
17-May-2018_16:20:22 7320 19 male L 2 4 5 moral immoralSelf Y y 1 0.4316 
17-May-2018_16:20:24 7320 19 male L 2 4 6 moral immoralOther Y y 1 0.3217 
17-May-2018_16:20:25 7320 19 male L 2 4 7 moral moralOther U y 0 0.2498 
17-May-2018_16:20:27 7320 19 male L 2 4 8 moral immoralOther Y y 1 0.2039 
17-May-2018_16:20:29 7320 19 male L 2 4 9 moral moralOther U u 1 0.4339 
17-May-2018_16:20:30 7320 19 male L 2 4 10 moral immoralSelf Y y 1 0.3381 
17-May-2018_16:20:32 7320 19 male L 2 4 11 moral immoralSelf Y y 1 0.3142 
17-May-2018_16:20:34 7320 19 male L 2 4 12 moral moralSelf U u 1 0.4282 
17-May-2018_16:20:35 7320 19 male L 2 4 13 moral moralSelf U u 1 0.3443 
17-May-2018_16:20:37 7320 19 male L 2 4 14 moral moralSelf U u 1 0.3024 
17-May-2018_16:20:39 7320 19 male L 2 4 15 moral moralOther U y 0 0.3685 
17-May-2018_16:20:40 7320 19 male L 2 4 16 moral moralOther U y 0 0.5446 
17-May-2018_16:20:42 7320 19 male L 2 4 17 moral immoralSelf Y y 1 0.4686 
17-May-2018_16:20:44 7320 19 male L 2 4 18 moral moralOther U NA -1 1.0170 
17-May-2018_16:20:46 7320 19 male L 2 4 19 moral moralSelf U u 1 0.4510 
17-May-2018_16:20:48 7320 19 male L 2 4 20 moral moralSelf U u 1 0.3350 
17-May-2018_16:20:49 7320 19 male L 2 4 21 moral immoralSelf Y y 1 0.3252 
17-May-2018_16:20:50 7320 19 male L 2 4 22 moral immoralSelf Y y 1 0.2872 
17-May-2018_16:20:52 7320 19 male L 2 4 23 moral moralSelf U y 0 0.2552 
17-May-2018_16:20:54 7320 19 male L 2 4 24 moral moralOther U u 1 0.5553 
17-May-2018_16:20:59 7320 19 male L 2 5 1 moral immoralOther Y y 1 0.3176 
17-May-2018_16:21:01 7320 19 male L 2 5 2 moral immoralSelf Y y 1 0.2357 
17-May-2018_16:21:02 7320 19 male L 2 5 3 moral immoralSelf Y y 1 0.3359 
17-May-2018_16:21:03 7320 19 male L 2 5 4 moral moralSelf U u 1 0.3659 
17-May-2018_16:21:05 7320 19 male L 2 5 5 moral immoralOther Y y 1 0.5220 
17-May-2018_16:21:07 7320 19 male L 2 5 6 moral immoralOther Y y 1 0.4083 
17-May-2018_16:21:08 7320 19 male L 2 5 7 moral immoralOther Y y 1 0.3463 
17-May-2018_16:21:10 7320 19 male L 2 5 8 moral moralOther U u 1 0.4863 
17-May-2018_16:21:12 7320 19 male L 2 5 9 moral immoralSelf Y y 1 0.3483 
17-May-2018_16:21:14 7320 19 male L 2 5 10 moral moralSelf U u 1 0.3825 
17-May-2018_16:21:16 7320 19 male L 2 5 11 moral moralSelf U u 1 0.4005 
17-May-2018_16:21:17 7320 19 male L 2 5 12 moral moralOther U y 0 0.3666 
17-May-2018_16:21:19 7320 19 male L 2 5 13 moral moralSelf U u 1 0.4267 
17-May-2018_16:21:20 7320 19 male L 2 5 14 moral immoralSelf Y y 1 0.3789 
17-May-2018_16:21:22 7320 19 male L 2 5 15 moral moralOther U u 1 0.6769 
17-May-2018_16:21:24 7320 19 male L 2 5 16 moral immoralSelf Y y 1 0.4051 
17-May-2018_16:21:26 7320 19 male L 2 5 17 moral moralOther U u 1 0.4372 
17-May-2018_16:21:28 7320 19 male L 2 5 18 moral moralOther U u 1 0.3753 
17-May-2018_16:21:29 7320 19 male L 2 5 19 moral moralOther U u 1 0.3494 
17-May-2018_16:21:31 7320 19 male L 2 5 20 moral moralSelf U u 1 0.2815 
17-May-2018_16:21:32 7320 19 male L 2 5 21 moral immoralOther Y y 1 0.3815 
17-May-2018_16:21:33 7320 19 male L 2 5 22 moral immoralOther Y y 1 0.2976 
17-May-2018_16:21:35 7320 19 male L 2 5 23 moral moralSelf U y 0 0.3196 
17-May-2018_16:21:37 7320 19 male L 2 5 24 moral immoralSelf Y y 1 0.4337 
Date Sub Age Sex Hand Block Bin Trial Task Shape corrResp Resp ACC RT
17-May-2018_16:23:48 7320 19 male L 3 1 1 moral immoralSelf Y y 1 0.3732 
17-May-2018_16:23:50 7320 19 male L 3 1 2 moral moralOther U u 1 0.4433 
17-May-2018_16:23:52 7320 19 male L 3 1 3 moral immoralSelf Y y 1 0.3875 
17-May-2018_16:23:53 7320 19 male L 3 1 4 moral immoralOther Y y 1 0.3635 
17-May-2018_16:23:55 7320 19 male L 3 1 5 moral immoralSelf Y y 1 0.5416 
17-May-2018_16:23:57 7320 19 male L 3 1 6 moral immoralOther Y y 1 0.3957 
17-May-2018_16:23:58 7320 19 male L 3 1 7 moral moralSelf U u 1 0.4098 
17-May-2018_16:24:00 7320 19 male L 3 1 8 moral moralOther U u 1 0.4601 
17-May-2018_16:24:02 7320 19 male L 3 1 9 moral moralOther U y 0 0.2980 
17-May-2018_16:24:03 7320 19 male L 3 1 10 moral moralSelf U u 1 0.3461 
17-May-2018_16:24:05 7320 19 male L 3 1 11 moral moralSelf U u 1 0.4701 
17-May-2018_16:24:07 7320 19 male L 3 1 12 moral immoralOther Y y 1 0.4963 
17-May-2018_16:24:08 7320 19 male L 3 1 13 moral immoralOther Y y 1 0.4483 
17-May-2018_16:24:10 7320 19 male L 3 1 14 moral moralOther U y 0 0.3165 
17-May-2018_16:24:12 7320 19 male L 3 1 15 moral immoralSelf Y y 1 0.5125 
17-May-2018_16:24:13 7320 19 male L 3 1 16 moral immoralOther Y y 1 0.5207 
17-May-2018_16:24:15 7320 19 male L 3 1 17 moral moralSelf U u 1 0.4028 
17-May-2018_16:24:16 7320 19 male L 3 1 18 moral immoralSelf Y y 1 0.4328 
17-May-2018_16:24:18 7320 19 male L 3 1 19 moral moralSelf U u 1 0.2368 
17-May-2018_16:24:20 7320 19 male L 3 1 20 moral moralOther U y 0 0.3870 
17-May-2018_16:24:21 7320 19 male L 3 1 21 moral immoralSelf Y y 1 0.5251 
17-May-2018_16:24:23 7320 19 male L 3 1 22 moral moralOther U u 1 0.6072 
17-May-2018_16:24:25 7320 19 male L 3 1 23 moral immoralOther Y y 1 0.6252 
17-May-2018_16:24:27 7320 19 male L 3 1 24 moral moralSelf U u 1 0.3735 
17-May-2018_16:24:28 7320 19 male L 3 2 1 moral moralSelf U u 1 0.3895 
17-May-2018_16:24:30 7320 19 male L 3 2 2 moral immoralOther Y y 1 0.3616 
17-May-2018_16:24:32 7320 19 male L 3 2 3 moral moralOther U u 1 0.3976 
17-May-2018_16:24:33 7320 19 male L 3 2 4 moral immoralSelf Y y 1 0.5158 
17-May-2018_16:24:35 7320 19 male L 3 2 5 moral immoralOther Y u 0 0.3838 
17-May-2018_16:24:36 7320 19 male L 3 2 6 moral moralSelf U u 1 0.4640 
17-May-2018_16:24:38 7320 19 male L 3 2 7 moral immoralOther Y y 1 0.4000 
17-May-2018_16:24:40 7320 19 male L 3 2 8 moral moralOther U u 1 0.5841 
17-May-2018_16:24:42 7320 19 male L 3 2 9 moral moralSelf U u 1 0.3723 
17-May-2018_16:24:43 7320 19 male L 3 2 10 moral moralOther U y 0 0.3463 
17-May-2018_16:24:45 7320 19 male L 3 2 11 moral immoralSelf Y y 1 0.3384 
17-May-2018_16:24:47 7320 19 male L 3 2 12 moral immoralOther Y y 1 0.5366 
17-May-2018_16:24:49 7320 19 male L 3 2 13 moral immoralSelf Y y 1 0.4346 
17-May-2018_16:24:50 7320 19 male L 3 2 14 moral immoralOther Y y 1 0.4008 
17-May-2018_16:24:51 7320 19 male L 3 2 15 moral immoralOther Y y 1 0.3588 
17-May-2018_16:24:53 7320 19 male L 3 2 16 moral moralOther U u 1 0.3729 
17-May-2018_16:24:55 7320 19 male L 3 2 17 moral moralOther U u 1 0.6690 
17-May-2018_16:24:57 7320 19 male L 3 2 18 moral moralOther U u 1 0.5130 
17-May-2018_16:24:59 7320 19 male L 3 2 19 moral moralSelf U u 1 0.5093 
17-May-2018_16:25:01 7320 19 male L 3 2 20 moral moralSelf U u 1 0.3673 
17-May-2018_16:25:02 7320 19 male L 3 2 21 moral immoralSelf Y y 1 0.3934 
17-May-2018_16:25:04 7320 19 male L 3 2 22 moral immoralSelf Y y 1 0.4315 
17-May-2018_16:25:05 7320 19 male L 3 2 23 moral moralSelf U u 1 0.4857 
17-May-2018_16:25:07 7320 19 male L 3 2 24 moral immoralSelf Y y 1 0.4377 
17-May-2018_16:25:11 7320 19 male L 3 3 1 moral moralOther U u 1 0.3799 
17-May-2018_16:25:12 7320 19 male L 3 3 2 moral immoralSelf Y y 1 0.3381 
17-May-2018_16:25:14 7320 19 male L 3 3 3 moral immoralOther Y u 0 0.3740 
17-May-2018_16:25:15 7320 19 male L 3 3 4 moral moralOther U u 1 0.4542 
17-May-2018_16:25:17 7320 19 male L 3 3 5 moral immoralSelf Y y 1 0.2983 
17-May-2018_16:25:18 7320 19 male L 3 3 6 moral immoralSelf Y y 1 0.3043 
17-May-2018_16:25:20 7320 19 male L 3 3 7 moral immoralOther Y u 0 0.3924 
17-May-2018_16:25:21 7320 19 male L 3 3 8 moral immoralSelf Y y 1 0.3505 
17-May-2018_16:25:22 7320 19 male L 3 3 9 moral immoralOther Y y 1 0.4086 
17-May-2018_16:25:24 7320 19 male L 3 3 10 moral immoralOther Y y 1 0.3626 
17-May-2018_16:25:25 7320 19 male L 3 3 11 moral moralOther U u 1 0.4167 
17-May-2018_16:25:27 7320 19 male L 3 3 12 moral immoralSelf Y y 1 0.3668 
17-May-2018_16:25:29 7320 19 male L 3 3 13 moral moralSelf U y 0 0.3669 
17-May-2018_16:25:31 7320 19 male L 3 3 14 moral moralOther U u 1 0.5690 
17-May-2018_16:25:32 7320 19 male L 3 3 15 moral moralSelf U u 1 0.3051 
17-May-2018_16:25:34 7320 19 male L 3 3 16 moral immoralOther Y y 1 0.3412 
17-May-2018_16:25:35 7320 19 male L 3 3 17 moral moralSelf U u 1 0.4013 
17-May-2018_16:25:37 7320 19 male L 3 3 18 moral moralOther U y 0 0.4095 
17-May-2018_16:25:39 7320 19 male L 3 3 19 moral moralSelf U u 1 0.4174 
17-May-2018_16:25:40 7320 19 male L 3 3 20 moral moralOther U u 1 0.3396 
17-May-2018_16:25:42 7320 19 male L 3 3 21 moral immoralOther Y u 0 0.3697 
17-May-2018_16:25:43 7320 19 male L 3 3 22 moral moralSelf U u 1 0.3439 
17-May-2018_16:25:45 7320 19 male L 3 3 23 moral moralSelf U u 1 0.3538 
17-May-2018_16:25:46 7320 19 male L 3 3 24 moral immoralSelf Y u 0 0.3539 
17-May-2018_16:25:48 7320 19 male L 3 4 1 moral moralSelf U u 1 0.3680 
17-May-2018_16:25:49 7320 19 male L 3 4 2 moral immoralOther Y y 1 0.3741 
17-May-2018_16:25:51 7320 19 male L 3 4 3 moral immoralSelf Y y 1 0.2782 
17-May-2018_16:25:52 7320 19 male L 3 4 4 moral moralSelf U u 1 0.4262 
17-May-2018_16:25:54 7320 19 male L 3 4 5 moral moralOther U y 0 0.2404 
17-May-2018_16:25:55 7320 19 male L 3 4 6 moral moralOther U y 0 0.4664 
17-May-2018_16:25:57 7320 19 male L 3 4 7 moral moralSelf U y 0 0.4066 
17-May-2018_16:25:58 7320 19 male L 3 4 8 moral immoralOther Y u 0 0.3646 
17-May-2018_16:26:00 7320 19 male L 3 4 9 moral moralOther U y 0 0.4666 
17-May-2018_16:26:02 7320 19 male L 3 4 10 moral immoralSelf Y y 1 0.4007 
17-May-2018_16:26:03 7320 19 male L 3 4 11 moral immoralOther Y u 0 0.3649 
17-May-2018_16:26:05 7320 19 male L 3 4 12 moral immoralOther Y y 1 0.4711 
17-May-2018_16:26:06 7320 19 male L 3 4 13 moral immoralSelf Y y 1 0.4851 
17-May-2018_16:26:08 7320 19 male L 3 4 14 moral immoralSelf Y y 1 0.3332 
17-May-2018_16:26:09 7320 19 male L 3 4 15 moral moralSelf U u 1 0.2532 
17-May-2018_16:26:10 7320 19 male L 3 4 16 moral immoralOther Y y 1 0.3293 
17-May-2018_16:26:12 7320 19 male L 3 4 17 moral immoralOther Y y 1 0.5894 
17-May-2018_16:26:14 7320 19 male L 3 4 18 moral moralSelf U u 1 0.3375 
17-May-2018_16:26:15 7320 19 male L 3 4 19 moral immoralSelf Y y 1 0.2836 
17-May-2018_16:26:17 7320 19 male L 3 4 20 moral moralOther U u 1 0.3136 
17-May-2018_16:26:18 7320 19 male L 3 4 21 moral moralOther U u 1 0.3938 
17-May-2018_16:26:19 7320 19 male L 3 4 22 moral moralOther U u 1 0.3018 
17-May-2018_16:26:21 7320 19 male L 3 4 23 moral moralSelf U y 0 0.3479 
17-May-2018_16:26:23 7320 19 male L 3 4 24 moral immoralSelf Y y 1 0.4380 
17-May-2018_16:26:40 7320 19 male L 3 5 1 moral moralSelf U i 2 0.4630 
17-May-2018_16:26:42 7320 19 male L 3 5 2 moral moralOther U i 2 0.4691 
17-May-2018_16:26:44 7320 19 male L 3 5 3 moral immoralOther Y NA -1 1.0170 
17-May-2018_16:26:46 7320 19 male L 3 5 4 moral immoralSelf Y h 2 0.4733 
17-May-2018_16:26:48 7320 19 male L 3 5 5 moral immoralOther Y y 1 0.5634 
17-May-2018_16:26:49 7320 19 male L 3 5 6 moral moralSelf U u 1 0.4015 
17-May-2018_16:26:51 7320 19 male L 3 5 7 moral moralOther U u 1 0.5476 
17-May-2018_16:26:52 7320 19 male L 3 5 8 moral immoralSelf Y y 1 0.3636 
17-May-2018_16:26:54 7320 19 male L 3 5 9 moral moralOther U u 1 0.5237 
17-May-2018_16:26:56 7320 19 male L 3 5 10 moral immoralSelf Y y 1 0.4418 
17-May-2018_16:26:57 7320 19 male L 3 5 11 moral moralOther U u 1 0.4200 
17-May-2018_16:26:59 7320 19 male L 3 5 12 moral moralSelf U u 1 0.4340 
17-May-2018_16:27:00 7320 19 male L 3 5 13 moral moralSelf U u 1 0.3121 
17-May-2018_16:27:02 7320 19 male L 3 5 14 moral immoralOther Y y 1 0.4341 
17-May-2018_16:27:03 7320 19 male L 3 5 15 moral immoralSelf Y y 1 0.3984 
17-May-2018_16:27:05 7320 19 male L 3 5 16 moral immoralOther Y y 1 0.3464 
17-May-2018_16:27:07 7320 19 male L 3 5 17 moral moralOther U y 0 0.2725 
17-May-2018_16:27:08 7320 19 male L 3 5 18 moral moralSelf U u 1 0.4326 
17-May-2018_16:27:10 7320 19 male L 3 5 19 moral moralOther U u 1 0.5466 
17-May-2018_16:27:11 7320 19 male L 3 5 20 moral immoralSelf Y y 1 0.4408 
17-May-2018_16:27:13 7320 19 male L 3 5 21 moral moralSelf U u 1 0.3989 
17-May-2018_16:27:15 7320 19 male L 3 5 22 moral immoralOther Y y 1 0.5169 
17-May-2018_16:27:17 7320 19 male L 3 5 23 moral immoralOther Y y 1 0.3850 
17-May-2018_16:27:19 7320 19 male L 3 5 24 moral immoralSelf Y y 1 0.4731 
Date Sub Age Sex Hand Block Bin Trial Task Shape corrResp Resp ACC RT
17-May-2018_16:29:47 7320 19 male L 4 1 1 self immoralOther J j 1 0.6596 
17-May-2018_16:29:49 7320 19 male L 4 1 2 self moralSelf H j 0 0.6176 
17-May-2018_16:29:50 7320 19 male L 4 1 3 self moralOther J j 1 0.5657 
17-May-2018_16:29:52 7320 19 male L 4 1 4 self moralSelf H h 1 0.4578 
17-May-2018_16:29:53 7320 19 male L 4 1 5 self immoralSelf H h 1 0.3219 
17-May-2018_16:29:55 7320 19 male L 4 1 6 self immoralOther J j 1 0.3320 
17-May-2018_16:29:57 7320 19 male L 4 1 7 self immoralOther J j 1 0.3701 
17-May-2018_16:29:58 7320 19 male L 4 1 8 self moralSelf H h 1 0.2762 
17-May-2018_16:30:00 7320 19 male L 4 1 9 self immoralSelf H h 1 0.4823 
17-May-2018_16:30:01 7320 19 male L 4 1 10 self immoralOther J j 1 0.3625 
17-May-2018_16:30:03 7320 19 male L 4 1 11 self immoralOther J j 1 0.3425 
17-May-2018_16:30:04 7320 19 male L 4 1 12 self moralSelf H h 1 0.3765 
17-May-2018_16:30:06 7320 19 male L 4 1 13 self moralOther J j 1 0.3667 
17-May-2018_16:30:07 7320 19 male L 4 1 14 self moralOther J j 1 0.3948 
17-May-2018_16:30:09 7320 19 male L 4 1 15 self moralOther J j 1 0.3808 
17-May-2018_16:30:10 7320 19 male L 4 1 16 self moralSelf H h 1 0.3588 
17-May-2018_16:30:12 7320 19 male L 4 1 17 self immoralSelf H h 1 0.2770 
17-May-2018_16:30:14 7320 19 male L 4 1 18 self immoralSelf H h 1 0.4450 
17-May-2018_16:30:15 7320 19 male L 4 1 19 self moralOther J j 1 0.3913 
17-May-2018_16:30:17 7320 19 male L 4 1 20 self moralOther J j 1 0.2913 
17-May-2018_16:30:19 7320 19 male L 4 1 21 self immoralOther J j 1 0.4593 
17-May-2018_16:30:20 7320 19 male L 4 1 22 self immoralSelf H j 0 0.2494 
17-May-2018_16:30:22 7320 19 male L 4 1 23 self moralSelf H h 1 0.4256 
17-May-2018_16:30:23 7320 19 male L 4 1 24 self immoralSelf H h 1 0.2476 
17-May-2018_16:30:25 7320 19 male L 4 2 1 self immoralSelf H h 1 0.3058 
17-May-2018_16:30:26 7320 19 male L 4 2 2 self immoralOther J h 0 0.2378 
17-May-2018_16:30:27 7320 19 male L 4 2 3 self immoralSelf H j 0 0.3039 
17-May-2018_16:30:29 7320 19 male L 4 2 4 self immoralOther J j 1 0.4438 
17-May-2018_16:30:31 7320 19 male L 4 2 5 self immoralSelf H h 1 0.4581 
17-May-2018_16:30:32 7320 19 male L 4 2 6 self moralOther J j 1 0.4501 
17-May-2018_16:30:34 7320 19 male L 4 2 7 self immoralOther J j 1 0.3923 
17-May-2018_16:30:35 7320 19 male L 4 2 8 self moralOther J j 1 0.4183 
17-May-2018_16:30:37 7320 19 male L 4 2 9 self immoralOther J h 0 0.2844 
17-May-2018_16:30:38 7320 19 male L 4 2 10 self moralOther J j 1 0.5045 
17-May-2018_16:30:40 7320 19 male L 4 2 11 self immoralOther J j 1 0.3966 
17-May-2018_16:30:42 7320 19 male L 4 2 12 self moralSelf H h 1 0.3586 
17-May-2018_16:30:44 7320 19 male L 4 2 13 self immoralSelf H h 1 0.4668 
17-May-2018_16:30:45 7320 19 male L 4 2 14 self moralOther J j 1 0.3529 
17-May-2018_16:30:47 7320 19 male L 4 2 15 self moralSelf H h 1 0.4410 
17-May-2018_16:30:48 7320 19 male L 4 2 16 self moralOther J j 1 0.3211 
17-May-2018_16:30:49 7320 19 male L 4 2 17 self moralSelf H h 1 0.3511 
17-May-2018_16:30:51 7320 19 male L 4 2 18 self moralOther J j 1 0.3092 
17-May-2018_16:30:53 7320 19 male L 4 2 19 self immoralSelf H NA -1 1.0170 
17-May-2018_16:30:55 7320 19 male L 4 2 20 self moralSelf H h 1 0.4793 
17-May-2018_16:30:56 7320 19 male L 4 2 21 self moralSelf H h 1 0.3876 
17-May-2018_16:30:58 7320 19 male L 4 2 22 self immoralSelf H h 1 0.5336 
17-May-2018_16:31:00 7320 19 male L 4 2 23 self moralSelf H h 1 0.4297 
17-May-2018_16:31:01 7320 19 male L 4 2 24 self immoralOther J j 1 0.4837 
17-May-2018_16:31:06 7320 19 male L 4 3 1 self immoralOther J j 1 0.4640 
17-May-2018_16:31:07 7320 19 male L 4 3 2 self moralSelf H h 1 0.3481 
17-May-2018_16:31:09 7320 19 male L 4 3 3 self immoralOther J j 1 0.4701 
17-May-2018_16:31:10 7320 19 male L 4 3 4 self moralOther J j 1 0.3604 
17-May-2018_16:31:12 7320 19 male L 4 3 5 self moralOther J h 0 0.4024 
17-May-2018_16:31:13 7320 19 male L 4 3 6 self immoralSelf H h 1 0.5025 
17-May-2018_16:31:15 7320 19 male L 4 3 7 self immoralSelf H h 1 0.3606 
17-May-2018_16:31:17 7320 19 male L 4 3 8 self moralSelf H h 1 0.4907 
17-May-2018_16:31:19 7320 19 male L 4 3 9 self immoralSelf H h 1 0.4387 
17-May-2018_16:31:20 7320 19 male L 4 3 10 self immoralOther J j 1 0.3729 
17-May-2018_16:31:22 7320 19 male L 4 3 11 self immoralOther J j 1 0.2769 
17-May-2018_16:31:23 7320 19 male L 4 3 12 self moralSelf H h 1 0.3890 
17-May-2018_16:31:25 7320 19 male L 4 3 13 self moralOther J j 1 0.3711 
17-May-2018_16:31:27 7320 19 male L 4 3 14 self moralOther J j 1 0.4612 
17-May-2018_16:31:28 7320 19 male L 4 3 15 self moralOther J j 1 0.3012 
17-May-2018_16:31:30 7320 19 male L 4 3 16 self immoralSelf H h 1 0.3794 
17-May-2018_16:31:31 7320 19 male L 4 3 17 self immoralOther J j 1 0.3955 
17-May-2018_16:31:33 7320 19 male L 4 3 18 self moralSelf H h 1 0.3256 
17-May-2018_16:31:34 7320 19 male L 4 3 19 self moralSelf H j 0 0.3077 
17-May-2018_16:31:36 7320 19 male L 4 3 20 self immoralSelf H j 0 0.4437 
17-May-2018_16:31:38 7320 19 male L 4 3 21 self immoralSelf H j 0 0.5299 
17-May-2018_16:31:40 7320 19 male L 4 3 22 self moralOther J j 1 0.5580 
17-May-2018_16:31:42 7320 19 male L 4 3 23 self immoralOther J j 1 0.5840 
17-May-2018_16:31:43 7320 19 male L 4 3 24 self moralSelf H h 1 0.3963 
17-May-2018_16:31:45 7320 19 male L 4 4 1 self moralOther J j 1 0.4902 
17-May-2018_16:31:47 7320 19 male L 4 4 2 self immoralSelf H h 1 0.2802 
17-May-2018_16:31:48 7320 19 male L 4 4 3 self moralSelf H h 1 0.4084 
17-May-2018_16:31:50 7320 19 male L 4 4 4 self immoralOther J j 1 0.6225 
17-May-2018_16:31:52 7320 19 male L 4 4 5 self immoralSelf H j 0 0.3807 
17-May-2018_16:31:53 7320 19 male L 4 4 6 self immoralOther J j 1 0.4867 
17-May-2018_16:31:55 7320 19 male L 4 4 7 self moralSelf H h 1 0.4828 
17-May-2018_16:31:56 7320 19 male L 4 4 8 self immoralOther J j 1 0.4029 
17-May-2018_16:31:58 7320 19 male L 4 4 9 self moralOther J j 1 0.4410 
17-May-2018_16:32:00 7320 19 male L 4 4 10 self immoralSelf H h 1 0.3671 
17-May-2018_16:32:01 7320 19 male L 4 4 11 self moralSelf H h 1 0.3071 
17-May-2018_16:32:03 7320 19 male L 4 4 12 self moralSelf H h 1 0.5014 
17-May-2018_16:32:05 7320 19 male L 4 4 13 self moralSelf H h 1 0.6933 
17-May-2018_16:32:07 7320 19 male L 4 4 14 self moralOther J j 1 0.5435 
17-May-2018_16:32:08 7320 19 male L 4 4 15 self moralOther J j 1 0.3975 
17-May-2018_16:32:10 7320 19 male L 4 4 16 self immoralOther J j 1 0.3556 
17-May-2018_16:32:11 7320 19 male L 4 4 17 self immoralSelf H h 1 0.2737 
17-May-2018_16:32:13 7320 19 male L 4 4 18 self moralSelf H h 1 0.4419 
17-May-2018_16:32:14 7320 19 male L 4 4 19 self immoralSelf H h 1 0.3400 
17-May-2018_16:32:16 7320 19 male L 4 4 20 self moralOther J j 1 0.3460 
17-May-2018_16:32:18 7320 19 male L 4 4 21 self moralOther J j 1 0.4281 
17-May-2018_16:32:19 7320 19 male L 4 4 22 self immoralOther J j 1 0.3303 
17-May-2018_16:32:21 7320 19 male L 4 4 23 self immoralOther J j 1 0.1943 
17-May-2018_16:32:22 7320 19 male L 4 4 24 self immoralSelf H h 1 0.3604 
17-May-2018_16:32:26 7320 19 male L 4 5 1 self moralOther J j 1 0.4706 
17-May-2018_16:32:27 7320 19 male L 4 5 2 self immoralOther J j 1 0.3606 
17-May-2018_16:32:29 7320 19 male L 4 5 3 self immoralSelf H h 1 0.3707 
17-May-2018_16:32:31 7320 19 male L 4 5 4 self immoralOther J j 1 0.3808 
17-May-2018_16:32:32 7320 19 male L 4 5 5 self moralSelf H h 1 0.4130 
17-May-2018_16:32:34 7320 19 male L 4 5 6 self moralOther J j 1 0.4150 
17-May-2018_16:32:35 7320 19 male L 4 5 7 self immoralSelf H h 1 0.3591 
17-May-2018_16:32:37 7320 19 male L 4 5 8 self immoralSelf H h 1 0.4272 
17-May-2018_16:32:38 7320 19 male L 4 5 9 self moralOther J j 1 0.4092 
17-May-2018_16:32:40 7320 19 male L 4 5 10 self immoralOther J j 1 0.4574 
17-May-2018_16:32:42 7320 19 male L 4 5 11 self immoralSelf H h 1 0.3835 
17-May-2018_16:32:43 7320 19 male L 4 5 12 self moralSelf H j 0 0.3415 
17-May-2018_16:32:45 7320 19 male L 4 5 13 self moralSelf H h 1 0.2816 
17-May-2018_16:32:46 7320 19 male L 4 5 14 self immoralSelf H h 1 0.2877 
17-May-2018_16:32:48 7320 19 male L 4 5 15 self moralSelf H h 1 0.3058 
17-May-2018_16:32:49 7320 19 male L 4 5 16 self moralOther J j 1 0.3279 
17-May-2018_16:32:51 7320 19 male L 4 5 17 self moralOther J h 0 0.3480 
17-May-2018_16:32:52 7320 19 male L 4 5 18 self moralSelf H h 1 0.4261 
17-May-2018_16:32:54 7320 19 male L 4 5 19 self immoralOther J j 1 0.4861 
17-May-2018_16:32:56 7320 19 male L 4 5 20 self immoralOther J j 1 0.3403 
17-May-2018_16:32:58 7320 19 male L 4 5 21 self immoralSelf H h 1 0.4824 
17-May-2018_16:32:59 7320 19 male L 4 5 22 self moralOther J j 1 0.4764 
17-May-2018_16:33:01 7320 19 male L 4 5 23 self moralSelf H h 1 0.4226 
17-May-2018_16:33:02 7320 19 male L 4 5 24 self immoralOther J j 1 0.4006 
Date Sub Age Sex Hand Block Bin Trial Task Shape corrResp Resp ACC RT
17-May-2018_16:36:13 7320 19 male L 5 1 1 self immoralSelf H h 1 0.4014 
17-May-2018_16:36:15 7320 19 male L 5 1 2 self immoralOther J j 1 0.4256 
17-May-2018_16:36:16 7320 19 male L 5 1 3 self immoralSelf H h 1 0.4696 
17-May-2018_16:36:18 7320 19 male L 5 1 4 self moralOther J j 1 0.4378 
17-May-2018_16:36:20 7320 19 male L 5 1 5 self moralSelf H h 1 0.3558 
17-May-2018_16:36:22 7320 19 male L 5 1 6 self moralOther J j 1 0.4340 
17-May-2018_16:36:23 7320 19 male L 5 1 7 self moralSelf H h 1 0.4100 
17-May-2018_16:36:25 7320 19 male L 5 1 8 self immoralOther J j 1 0.4701 
17-May-2018_16:36:27 7320 19 male L 5 1 9 self moralOther J h 0 0.4884 
17-May-2018_16:36:28 7320 19 male L 5 1 10 self immoralOther J j 1 0.4623 
17-May-2018_16:36:30 7320 19 male L 5 1 11 self moralSelf H h 1 0.4304 
17-May-2018_16:36:32 7320 19 male L 5 1 12 self immoralOther J j 1 0.4405 
17-May-2018_16:36:33 7320 19 male L 5 1 13 self immoralSelf H h 1 0.4006 
17-May-2018_16:36:35 7320 19 male L 5 1 14 self immoralSelf H h 1 0.4187 
17-May-2018_16:36:37 7320 19 male L 5 1 15 self moralOther J j 1 0.4127 
17-May-2018_16:36:38 7320 19 male L 5 1 16 self immoralSelf H h 1 0.4588 
17-May-2018_16:36:40 7320 19 male L 5 1 17 self moralSelf H h 1 0.4870 
17-May-2018_16:36:42 7320 19 male L 5 1 18 self moralOther J j 1 0.4731 
17-May-2018_16:36:43 7320 19 male L 5 1 19 self immoralOther J j 1 0.4452 
17-May-2018_16:36:45 7320 19 male L 5 1 20 self immoralSelf H h 1 0.4673 
17-May-2018_16:36:47 7320 19 male L 5 1 21 self moralSelf H h 1 0.4834 
17-May-2018_16:36:49 7320 19 male L 5 1 22 self moralOther J j 1 0.5654 
17-May-2018_16:36:50 7320 19 male L 5 1 23 self moralSelf H h 1 0.4636 
17-May-2018_16:36:52 7320 19 male L 5 1 24 self immoralOther J j 1 0.4977 
17-May-2018_16:36:54 7320 19 male L 5 2 1 self moralOther J j 1 0.6097 
17-May-2018_16:36:55 7320 19 male L 5 2 2 self immoralSelf H h 1 0.4139 
17-May-2018_16:36:57 7320 19 male L 5 2 3 self immoralOther J j 1 0.4580 
17-May-2018_16:36:59 7320 19 male L 5 2 4 self moralSelf H h 1 0.4300 
17-May-2018_16:37:00 7320 19 male L 5 2 5 self immoralSelf H j 0 0.4183 
17-May-2018_16:37:02 7320 19 male L 5 2 6 self immoralOther J j 1 0.5102 
17-May-2018_16:37:04 7320 19 male L 5 2 7 self immoralSelf H h 1 0.3764 
17-May-2018_16:37:06 7320 19 male L 5 2 8 self moralOther J j 1 0.6124 
17-May-2018_16:37:08 7320 19 male L 5 2 9 self immoralSelf H h 1 0.5866 
17-May-2018_16:37:10 7320 19 male L 5 2 10 self moralOther J j 1 0.5387 
17-May-2018_16:37:11 7320 19 male L 5 2 11 self immoralSelf H h 1 0.4108 
17-May-2018_16:37:12 7320 19 male L 5 2 12 self immoralOther J j 1 0.3928 
17-May-2018_16:37:14 7320 19 male L 5 2 13 self moralOther J h 0 0.4049 
17-May-2018_16:37:16 7320 19 male L 5 2 14 self moralSelf H h 1 0.3770 
17-May-2018_16:37:17 7320 19 male L 5 2 15 self immoralOther J j 1 0.4911 
17-May-2018_16:37:19 7320 19 male L 5 2 16 self immoralSelf H h 1 0.4332 
17-May-2018_16:37:20 7320 19 male L 5 2 17 self moralSelf H j 0 0.3413 
17-May-2018_16:37:22 7320 19 male L 5 2 18 self moralSelf H h 1 0.4053 
17-May-2018_16:37:24 7320 19 male L 5 2 19 self moralSelf H h 1 0.3335 
17-May-2018_16:37:25 7320 19 male L 5 2 20 self moralOther J j 1 0.4595 
17-May-2018_16:37:27 7320 19 male L 5 2 21 self immoralOther J j 1 0.4436 
17-May-2018_16:37:28 7320 19 male L 5 2 22 self moralOther J j 1 0.4497 
17-May-2018_16:37:30 7320 19 male L 5 2 23 self immoralOther J j 1 0.3339 
17-May-2018_16:37:31 7320 19 male L 5 2 24 self moralSelf H h 1 0.3819 
17-May-2018_16:37:35 7320 19 male L 5 3 1 self moralOther J j 1 0.4981 
17-May-2018_16:37:37 7320 19 male L 5 3 2 self moralSelf H h 1 0.3822 
17-May-2018_16:37:38 7320 19 male L 5 3 3 self moralOther J j 1 0.3902 
17-May-2018_16:37:40 7320 19 male L 5 3 4 self immoralOther J j 1 0.4404 
17-May-2018_16:37:42 7320 19 male L 5 3 5 self moralOther J j 1 0.4745 
17-May-2018_16:37:43 7320 19 male L 5 3 6 self immoralSelf H h 1 0.4005 
17-May-2018_16:37:45 7320 19 male L 5 3 7 self moralOther J j 1 0.3427 
17-May-2018_16:37:46 7320 19 male L 5 3 8 self moralSelf H h 1 0.3167 
17-May-2018_16:37:48 7320 19 male L 5 3 9 self immoralSelf H h 1 0.3368 
17-May-2018_16:37:50 7320 19 male L 5 3 10 self immoralOther J j 1 0.4069 
17-May-2018_16:37:51 7320 19 male L 5 3 11 self moralOther J j 1 0.3430 
17-May-2018_16:37:53 7320 19 male L 5 3 12 self immoralOther J j 1 0.5830 
17-May-2018_16:37:54 7320 19 male L 5 3 13 self moralSelf H h 1 0.3812 
17-May-2018_16:37:56 7320 19 male L 5 3 14 self immoralSelf H h 1 0.4394 
17-May-2018_16:37:58 7320 19 male L 5 3 15 self moralOther J j 1 0.3215 
17-May-2018_16:37:59 7320 19 male L 5 3 16 self immoralOther J j 1 0.3255 
17-May-2018_16:38:01 7320 19 male L 5 3 17 self immoralOther J j 1 0.4016 
17-May-2018_16:38:02 7320 19 male L 5 3 18 self moralSelf H h 1 0.3996 
17-May-2018_16:38:04 7320 19 male L 5 3 19 self moralSelf H h 1 0.3997 
17-May-2018_16:38:06 7320 19 male L 5 3 20 self immoralSelf H h 1 0.4839 
17-May-2018_16:38:08 7320 19 male L 5 3 21 self immoralOther J j 1 0.5879 
17-May-2018_16:38:09 7320 19 male L 5 3 22 self immoralSelf H j 0 0.4621 
17-May-2018_16:38:11 7320 19 male L 5 3 23 self moralSelf H h 1 0.3482 
17-May-2018_16:38:13 7320 19 male L 5 3 24 self immoralSelf H h 1 0.4603 
17-May-2018_16:38:14 7320 19 male L 5 4 1 self immoralOther J j 1 0.4223 
17-May-2018_16:38:16 7320 19 male L 5 4 2 self moralOther J j 1 0.3764 
17-May-2018_16:38:17 7320 19 male L 5 4 3 self moralOther J j 1 0.3085 
17-May-2018_16:38:18 7320 19 male L 5 4 4 self immoralOther J j 1 0.2526 
17-May-2018_16:38:20 7320 19 male L 5 4 5 self immoralOther J j 1 0.3007 
17-May-2018_16:38:22 7320 19 male L 5 4 6 self moralSelf H h 1 0.3467 
17-May-2018_16:38:24 7320 19 male L 5 4 7 self immoralSelf H j 0 0.4808 
17-May-2018_16:38:25 7320 19 male L 5 4 8 self moralSelf H h 1 0.3650 
17-May-2018_16:38:27 7320 19 male L 5 4 9 self immoralOther J h 0 0.2930 
17-May-2018_16:38:28 7320 19 male L 5 4 10 self moralSelf H h 1 0.2811 
17-May-2018_16:38:30 7320 19 male L 5 4 11 self moralOther J j 1 0.4512 
17-May-2018_16:38:31 7320 19 male L 5 4 12 self moralSelf H h 1 0.4153 
17-May-2018_16:38:33 7320 19 male L 5 4 13 self immoralSelf H j 0 0.3156 
17-May-2018_16:38:35 7320 19 male L 5 4 14 self moralOther J j 1 0.4594 
17-May-2018_16:38:36 7320 19 male L 5 4 15 self moralOther J j 1 0.3335 
17-May-2018_16:38:37 7320 19 male L 5 4 16 self immoralOther J j 1 0.3537 
17-May-2018_16:38:39 7320 19 male L 5 4 17 self moralSelf H h 1 0.3737 
17-May-2018_16:38:41 7320 19 male L 5 4 18 self immoralSelf H j 0 0.3699 
17-May-2018_16:38:42 7320 19 male L 5 4 19 self immoralSelf H j 0 0.2599 
17-May-2018_16:38:44 7320 19 male L 5 4 20 self moralOther J h 0 0.4201 
17-May-2018_16:38:45 7320 19 male L 5 4 21 self moralSelf H h 1 0.4921 
17-May-2018_16:38:47 7320 19 male L 5 4 22 self immoralSelf H h 1 0.3222 
17-May-2018_16:38:49 7320 19 male L 5 4 23 self immoralOther J j 1 0.3843 
17-May-2018_16:38:50 7320 19 male L 5 4 24 self immoralSelf H h 1 0.4143 
17-May-2018_16:39:15 7320 19 male L 5 5 1 self immoralSelf H h 1 0.3198 
17-May-2018_16:39:16 7320 19 male L 5 5 2 self immoralOther J j 1 0.3718 
17-May-2018_16:39:18 7320 19 male L 5 5 3 self moralSelf H h 1 0.3479 
17-May-2018_16:39:20 7320 19 male L 5 5 4 self immoralSelf H h 1 0.3500 
17-May-2018_16:39:21 7320 19 male L 5 5 5 self immoralOther J j 1 0.3901 
17-May-2018_16:39:23 7320 19 male L 5 5 6 self moralSelf H h 1 0.3003 
17-May-2018_16:39:25 7320 19 male L 5 5 7 self immoralSelf H h 1 0.3203 
17-May-2018_16:39:26 7320 19 male L 5 5 8 self moralOther J j 1 0.2744 
17-May-2018_16:39:27 7320 19 male L 5 5 9 self moralSelf H h 1 0.3565 
17-May-2018_16:39:29 7320 19 male L 5 5 10 self immoralSelf H h 1 0.3805 
17-May-2018_16:39:31 7320 19 male L 5 5 11 self immoralOther J j 1 0.3667 
17-May-2018_16:39:32 7320 19 male L 5 5 12 self moralSelf H h 1 0.3888 
17-May-2018_16:39:34 7320 19 male L 5 5 13 self moralSelf H h 1 0.3388 
17-May-2018_16:39:36 7320 19 male L 5 5 14 self moralOther J j 1 0.3449 
17-May-2018_16:39:37 7320 19 male L 5 5 15 self immoralOther J j 1 0.2750 
17-May-2018_16:39:39 7320 19 male L 5 5 16 self immoralSelf H h 1 0.3871 
17-May-2018_16:39:41 7320 19 male L 5 5 17 self moralOther J j 1 0.3912 
17-May-2018_16:39:42 7320 19 male L 5 5 18 self moralOther J j 1 0.2614 
17-May-2018_16:39:44 7320 19 male L 5 5 19 self moralOther J j 1 0.2715 
17-May-2018_16:39:45 7320 19 male L 5 5 20 self immoralOther J j 1 0.2555 
17-May-2018_16:39:46 7320 19 male L 5 5 21 self moralSelf H h 1 0.3376 
17-May-2018_16:39:48 7320 19 male L 5 5 22 self moralOther J h 0 0.3056 
17-May-2018_16:39:49 7320 19 male L 5 5 23 self immoralSelf H h 1 0.2597 
17-May-2018_16:39:50 7320 19 male L 5 5 24 self immoralOther J j 1 0.3298 
Date Sub Age Sex Hand Block Bin Trial Task Shape corrResp Resp ACC RT
17-May-2018_16:42:03 7320 19 male L 6 1 1 moral immoralSelf Y y 1 0.4412 
17-May-2018_16:42:04 7320 19 male L 6 1 2 moral moralSelf U u 1 0.3734 
17-May-2018_16:42:06 7320 19 male L 6 1 3 moral moralOther U u 1 0.4674 
17-May-2018_16:42:08 7320 19 male L 6 1 4 moral moralOther U u 1 0.3935 
17-May-2018_16:42:09 7320 19 male L 6 1 5 moral moralOther U u 1 0.4317 
17-May-2018_16:42:11 7320 19 male L 6 1 6 moral immoralSelf Y y 1 0.3918 
17-May-2018_16:42:13 7320 19 male L 6 1 7 moral moralSelf U u 1 0.3898 
17-May-2018_16:42:14 7320 19 male L 6 1 8 moral moralSelf U u 1 0.4219 
17-May-2018_16:42:16 7320 19 male L 6 1 9 moral moralOther U u 1 0.5640 
17-May-2018_16:42:17 7320 19 male L 6 1 10 moral immoralOther Y y 1 0.5081 
17-May-2018_16:42:19 7320 19 male L 6 1 11 moral immoralSelf Y y 1 0.3722 
17-May-2018_16:42:20 7320 19 male L 6 1 12 moral immoralSelf Y y 1 0.2882 
17-May-2018_16:42:22 7320 19 male L 6 1 13 moral immoralOther Y y 1 0.4423 
17-May-2018_16:42:24 7320 19 male L 6 1 14 moral immoralSelf Y y 1 0.4383 
17-May-2018_16:42:25 7320 19 male L 6 1 15 moral moralSelf U y 0 0.3525 
17-May-2018_16:42:27 7320 19 male L 6 1 16 moral moralOther U y 0 0.4166 
17-May-2018_16:42:29 7320 19 male L 6 1 17 moral immoralOther Y y 1 0.5407 
17-May-2018_16:42:30 7320 19 male L 6 1 18 moral moralOther U u 1 0.4188 
17-May-2018_16:42:32 7320 19 male L 6 1 19 moral moralSelf U u 1 0.3089 
17-May-2018_16:42:34 7320 19 male L 6 1 20 moral immoralOther Y y 1 0.4330 
17-May-2018_16:42:35 7320 19 male L 6 1 21 moral immoralSelf Y y 1 0.5111 
17-May-2018_16:42:37 7320 19 male L 6 1 22 moral immoralOther Y y 1 0.3772 
17-May-2018_16:42:39 7320 19 male L 6 1 23 moral immoralOther Y y 1 0.4174 
17-May-2018_16:42:41 7320 19 male L 6 1 24 moral moralSelf U u 1 0.3738 
17-May-2018_16:42:42 7320 19 male L 6 2 1 moral immoralOther Y y 1 0.3255 
17-May-2018_16:42:44 7320 19 male L 6 2 2 moral immoralSelf Y y 1 0.4216 
17-May-2018_16:42:45 7320 19 male L 6 2 3 moral moralOther U y 0 0.5316 
17-May-2018_16:42:47 7320 19 male L 6 2 4 moral moralSelf U u 1 0.4017 
17-May-2018_16:42:49 7320 19 male L 6 2 5 moral immoralOther Y y 1 0.5498 
17-May-2018_16:42:50 7320 19 male L 6 2 6 moral moralOther U u 1 0.6560 
17-May-2018_16:42:52 7320 19 male L 6 2 7 moral immoralSelf Y y 1 0.4380 
17-May-2018_16:42:53 7320 19 male L 6 2 8 moral moralOther U u 1 0.3701 
17-May-2018_16:42:55 7320 19 male L 6 2 9 moral moralSelf U u 1 0.4822 
17-May-2018_16:42:56 7320 19 male L 6 2 10 moral immoralSelf Y y 1 0.3723 
17-May-2018_16:42:58 7320 19 male L 6 2 11 moral immoralSelf Y y 1 0.3784 
17-May-2018_16:42:59 7320 19 male L 6 2 12 moral moralOther U u 1 0.3926 
17-May-2018_16:43:01 7320 19 male L 6 2 13 moral moralOther U u 1 0.3506 
17-May-2018_16:43:03 7320 19 male L 6 2 14 moral immoralOther Y y 1 0.3747 
17-May-2018_16:43:04 7320 19 male L 6 2 15 moral immoralOther Y y 1 0.3508 
17-May-2018_16:43:06 7320 19 male L 6 2 16 moral immoralOther Y y 1 0.3668 
17-May-2018_16:43:07 7320 19 male L 6 2 17 moral moralSelf U u 1 0.4169 
17-May-2018_16:43:09 7320 19 male L 6 2 18 moral immoralSelf Y y 1 0.5331 
17-May-2018_16:43:10 7320 19 male L 6 2 19 moral moralSelf U u 1 0.3152 
17-May-2018_16:43:12 7320 19 male L 6 2 20 moral moralOther U y 0 0.3172 
17-May-2018_16:43:13 7320 19 male L 6 2 21 moral moralSelf U u 1 0.4012 
17-May-2018_16:43:15 7320 19 male L 6 2 22 moral immoralOther Y y 1 0.4813 
17-May-2018_16:43:16 7320 19 male L 6 2 23 moral moralSelf U u 1 0.3775 
17-May-2018_16:43:18 7320 19 male L 6 2 24 moral immoralSelf Y y 1 0.4656 
17-May-2018_16:43:26 7320 19 male L 6 3 1 moral immoralSelf Y y 1 0.4040 
17-May-2018_16:43:27 7320 19 male L 6 3 2 moral moralOther U u 1 0.4660 
17-May-2018_16:43:29 7320 19 male L 6 3 3 moral immoralOther Y y 1 0.3802 
17-May-2018_16:43:31 7320 19 male L 6 3 4 moral immoralOther Y y 1 0.3783 
17-May-2018_16:43:33 7320 19 male L 6 3 5 moral immoralSelf Y y 1 0.6404 
17-May-2018_16:43:34 7320 19 male L 6 3 6 moral moralSelf U u 1 0.3564 
17-May-2018_16:43:36 7320 19 male L 6 3 7 moral moralSelf U u 1 0.4546 
17-May-2018_16:43:37 7320 19 male L 6 3 8 moral moralSelf U u 1 0.3106 
17-May-2018_16:43:39 7320 19 male L 6 3 9 moral moralOther U u 1 0.3507 
17-May-2018_16:43:41 7320 19 male L 6 3 10 moral immoralOther Y y 1 0.5648 
17-May-2018_16:43:42 7320 19 male L 6 3 11 moral immoralOther Y y 1 0.3310 
17-May-2018_16:43:44 7320 19 male L 6 3 12 moral immoralSelf Y u 0 0.3711 
17-May-2018_16:43:45 7320 19 male L 6 3 13 moral moralOther U u 1 0.4591 
17-May-2018_16:43:47 7320 19 male L 6 3 14 moral immoralSelf Y y 1 0.5672 
17-May-2018_16:43:49 7320 19 male L 6 3 15 moral moralSelf U u 1 0.3693 
17-May-2018_16:43:51 7320 19 male L 6 3 16 moral immoralSelf Y y 1 0.4614 
17-May-2018_16:43:53 7320 19 male L 6 3 17 moral moralSelf U u 1 0.4055 
17-May-2018_16:43:54 7320 19 male L 6 3 18 moral moralSelf U u 1 0.3916 
17-May-2018_16:43:56 7320 19 male L 6 3 19 moral immoralSelf Y y 1 0.6077 
17-May-2018_16:43:57 7320 19 male L 6 3 20 moral moralOther U u 1 0.3837 
17-May-2018_16:43:59 7320 19 male L 6 3 21 moral immoralOther Y y 1 0.6064 
17-May-2018_16:44:01 7320 19 male L 6 3 22 moral immoralOther Y y 1 0.3480 
17-May-2018_16:44:02 7320 19 male L 6 3 23 moral moralOther U u 1 0.4140 
17-May-2018_16:44:04 7320 19 male L 6 3 24 moral moralOther U u 1 0.3901 
17-May-2018_16:44:05 7320 19 male L 6 4 1 moral moralSelf U y 0 0.4322 
17-May-2018_16:44:07 7320 19 male L 6 4 2 moral immoralOther Y y 1 0.4523 
17-May-2018_16:44:09 7320 19 male L 6 4 3 moral immoralOther Y y 1 0.3824 
17-May-2018_16:44:10 7320 19 male L 6 4 4 moral immoralOther Y y 1 0.2985 
17-May-2018_16:44:12 7320 19 male L 6 4 5 moral immoralOther Y y 1 0.3626 
17-May-2018_16:44:13 7320 19 male L 6 4 6 moral immoralSelf Y u 0 0.3806 
17-May-2018_16:44:15 7320 19 male L 6 4 7 moral moralSelf U u 1 0.4068 
17-May-2018_16:44:16 7320 19 male L 6 4 8 moral immoralSelf Y y 1 0.4648 
17-May-2018_16:44:18 7320 19 male L 6 4 9 moral immoralSelf Y y 1 0.2649 
17-May-2018_16:44:20 7320 19 male L 6 4 10 moral moralOther U u 1 0.4650 
17-May-2018_16:44:21 7320 19 male L 6 4 11 moral immoralSelf Y y 1 0.3851 
17-May-2018_16:44:23 7320 19 male L 6 4 12 moral immoralSelf Y y 1 0.2992 
17-May-2018_16:44:24 7320 19 male L 6 4 13 moral moralOther U y 0 0.2694 
17-May-2018_16:44:26 7320 19 male L 6 4 14 moral moralOther U u 1 0.3634 
17-May-2018_16:44:28 7320 19 male L 6 4 15 moral moralSelf U y 0 0.4155 
17-May-2018_16:44:30 7320 19 male L 6 4 16 moral immoralOther Y y 1 0.5536 
17-May-2018_16:44:32 7320 19 male L 6 4 17 moral moralOther U u 1 0.4376 
17-May-2018_16:44:33 7320 19 male L 6 4 18 moral moralOther U u 1 0.3718 
17-May-2018_16:44:35 7320 19 male L 6 4 19 moral moralSelf U u 1 0.4519 
17-May-2018_16:44:37 7320 19 male L 6 4 20 moral moralSelf U u 1 0.4359 
17-May-2018_16:44:38 7320 19 male L 6 4 21 moral immoralSelf Y y 1 0.4200 
17-May-2018_16:44:40 7320 19 male L 6 4 22 moral immoralOther Y y 1 0.5082 
17-May-2018_16:44:42 7320 19 male L 6 4 23 moral moralOther U u 1 0.5443 
17-May-2018_16:44:44 7320 19 male L 6 4 24 moral moralSelf U u 1 0.4744 
17-May-2018_16:44:47 7320 19 male L 6 5 1 moral immoralSelf Y y 1 0.4986 
17-May-2018_16:44:49 7320 19 male L 6 5 2 moral moralSelf U u 1 0.3767 
17-May-2018_16:44:50 7320 19 male L 6 5 3 moral moralOther U y 0 0.3208 
17-May-2018_16:44:52 7320 19 male L 6 5 4 moral moralOther U u 1 0.3669 
17-May-2018_16:44:54 7320 19 male L 6 5 5 moral immoralOther Y y 1 0.6090 
17-May-2018_16:44:55 7320 19 male L 6 5 6 moral immoralSelf Y y 1 0.4691 
17-May-2018_16:44:57 7320 19 male L 6 5 7 moral moralSelf U u 1 0.4192 
17-May-2018_16:44:58 7320 19 male L 6 5 8 moral moralSelf U u 1 0.2915 
17-May-2018_16:45:00 7320 19 male L 6 5 9 moral immoralOther Y y 1 0.4553 
17-May-2018_16:45:02 7320 19 male L 6 5 10 moral moralSelf U u 1 0.3694 
17-May-2018_16:45:03 7320 19 male L 6 5 11 moral immoralOther Y y 1 0.3955 
17-May-2018_16:45:05 7320 19 male L 6 5 12 moral immoralSelf Y u 0 0.3517 
17-May-2018_16:45:07 7320 19 male L 6 5 13 moral immoralOther Y y 1 0.8156 
17-May-2018_16:45:09 7320 19 male L 6 5 14 moral immoralSelf Y y 1 0.3558 
17-May-2018_16:45:11 7320 19 male L 6 5 15 moral immoralOther Y y 1 0.5459 
17-May-2018_16:45:12 7320 19 male L 6 5 16 moral immoralOther Y y 1 0.3340 
17-May-2018_16:45:14 7320 19 male L 6 5 17 moral moralOther U y 0 0.3221 
17-May-2018_16:45:15 7320 19 male L 6 5 18 moral moralSelf U u 1 0.5342 
17-May-2018_16:45:17 7320 19 male L 6 5 19 moral moralSelf U u 1 0.2983 
17-May-2018_16:45:18 7320 19 male L 6 5 20 moral moralOther U u 1 0.4484 
17-May-2018_16:45:20 7320 19 male L 6 5 21 moral immoralSelf Y u 0 0.4144 
17-May-2018_16:45:21 7320 19 male L 6 5 22 moral moralOther U u 1 0.4385 
17-May-2018_16:45:23 7320 19 male L 6 5 23 moral moralOther U u 1 0.3086 
17-May-2018_16:45:25 7320 19 male L 6 5 24 moral immoralSelf Y y 1 0.4147 
