Date Prac Sub Age Sex Hand Block Bin Trial Shape Label Match CorrResp Resp ACC RT
12-May-2018_16:05:45 Exp 7311 20 2 R 1 1 1 moralSelf immoralOther mismatch n n 1 0.5358 
12-May-2018_16:05:47 Exp 7311 20 2 R 1 1 2 moralOther immoralOther mismatch n n 1 0.5793 
12-May-2018_16:05:49 Exp 7311 20 2 R 1 1 3 moralOther moralOther match m m 1 0.4716 
12-May-2018_16:05:51 Exp 7311 20 2 R 1 1 4 immoralSelf immoralOther mismatch n n 1 0.4379 
12-May-2018_16:05:53 Exp 7311 20 2 R 1 1 5 moralOther moralOther match m m 1 0.5912 
12-May-2018_16:05:55 Exp 7311 20 2 R 1 1 6 immoralSelf immoralSelf match m m 1 0.3918 
12-May-2018_16:05:58 Exp 7311 20 2 R 1 1 7 immoralOther immoralOther match m n 0 0.5124 
12-May-2018_16:06:00 Exp 7311 20 2 R 1 1 8 immoralOther immoralOther match m m 1 0.4673 
12-May-2018_16:06:02 Exp 7311 20 2 R 1 1 9 immoralSelf immoralOther mismatch n n 1 0.4293 
12-May-2018_16:06:04 Exp 7311 20 2 R 1 1 10 immoralSelf immoralSelf match m m 1 0.4026 
12-May-2018_16:06:06 Exp 7311 20 2 R 1 1 11 moralSelf moralSelf match m n 0 0.5593 
12-May-2018_16:06:08 Exp 7311 20 2 R 1 1 12 moralSelf moralOther mismatch n m 0 0.4992 
12-May-2018_16:06:10 Exp 7311 20 2 R 1 1 13 moralOther moralOther match m m 1 0.5058 
12-May-2018_16:06:12 Exp 7311 20 2 R 1 1 14 moralOther immoralOther mismatch n n 1 0.5648 
12-May-2018_16:06:14 Exp 7311 20 2 R 1 1 15 immoralSelf moralSelf mismatch n m 0 0.3888 
12-May-2018_16:06:17 Exp 7311 20 2 R 1 1 16 immoralOther immoralSelf mismatch n m 0 0.4934 
12-May-2018_16:06:19 Exp 7311 20 2 R 1 1 17 immoralSelf immoralSelf match m m 1 0.4121 
12-May-2018_16:06:21 Exp 7311 20 2 R 1 1 18 moralOther immoralOther mismatch n n 1 0.5171 
12-May-2018_16:06:23 Exp 7311 20 2 R 1 1 19 moralSelf moralOther mismatch n n 1 0.7803 
12-May-2018_16:06:25 Exp 7311 20 2 R 1 1 20 immoralOther moralOther mismatch n m 0 0.5606 
12-May-2018_16:06:28 Exp 7311 20 2 R 1 1 21 immoralOther immoralOther match m m 1 0.7004 
12-May-2018_16:06:30 Exp 7311 20 2 R 1 1 22 moralSelf moralSelf match m m 1 0.6351 
12-May-2018_16:06:32 Exp 7311 20 2 R 1 1 23 immoralOther immoralSelf mismatch n n 1 0.5967 
12-May-2018_16:06:34 Exp 7311 20 2 R 1 1 24 moralSelf moralSelf match m m 1 0.5011 
12-May-2018_16:06:37 Exp 7311 20 2 R 1 2 1 moralSelf moralSelf match m m 1 0.6198 
12-May-2018_16:06:39 Exp 7311 20 2 R 1 2 2 immoralOther immoralOther match m m 1 0.6129 
12-May-2018_16:06:41 Exp 7311 20 2 R 1 2 3 immoralSelf immoralSelf match m m 1 0.4379 
12-May-2018_16:06:43 Exp 7311 20 2 R 1 2 4 immoralSelf moralOther mismatch n m 0 0.5115 
12-May-2018_16:06:45 Exp 7311 20 2 R 1 2 5 moralOther moralOther match m m 1 0.4503 
12-May-2018_16:06:47 Exp 7311 20 2 R 1 2 6 moralOther moralSelf mismatch n m 0 0.4240 
12-May-2018_16:06:49 Exp 7311 20 2 R 1 2 7 immoralSelf moralSelf mismatch n m 0 0.3814 
12-May-2018_16:06:51 Exp 7311 20 2 R 1 2 8 immoralOther moralSelf mismatch n m 0 0.4576 
12-May-2018_16:06:54 Exp 7311 20 2 R 1 2 9 immoralOther immoralOther match m m 1 0.6276 
12-May-2018_16:06:56 Exp 7311 20 2 R 1 2 10 immoralSelf immoralSelf match m m 1 0.5289 
12-May-2018_16:06:58 Exp 7311 20 2 R 1 2 11 immoralSelf moralOther mismatch n n 1 0.5163 
12-May-2018_16:07:00 Exp 7311 20 2 R 1 2 12 immoralOther immoralSelf mismatch n m 0 0.4835 
12-May-2018_16:07:02 Exp 7311 20 2 R 1 2 13 moralOther moralOther match m m 1 0.4219 
12-May-2018_16:07:04 Exp 7311 20 2 R 1 2 14 immoralSelf immoralSelf match m m 1 0.4830 
12-May-2018_16:07:06 Exp 7311 20 2 R 1 2 15 moralSelf immoralSelf mismatch n m 0 0.6295 
12-May-2018_16:07:09 Exp 7311 20 2 R 1 2 16 moralOther moralOther match m m 1 0.5149 
12-May-2018_16:07:11 Exp 7311 20 2 R 1 2 17 moralOther immoralSelf mismatch n m 0 0.4259 
12-May-2018_16:07:13 Exp 7311 20 2 R 1 2 18 moralSelf immoralSelf mismatch n m 0 0.5512 
12-May-2018_16:07:15 Exp 7311 20 2 R 1 2 19 moralOther immoralSelf mismatch n n 1 0.7711 
12-May-2018_16:07:17 Exp 7311 20 2 R 1 2 20 immoralOther immoralOther match m m 1 0.5552 
12-May-2018_16:07:20 Exp 7311 20 2 R 1 2 21 moralSelf moralSelf match m m 1 0.7430 
12-May-2018_16:07:22 Exp 7311 20 2 R 1 2 22 moralSelf moralSelf match m m 1 0.5426 
12-May-2018_16:07:24 Exp 7311 20 2 R 1 2 23 moralSelf immoralOther mismatch n m 0 0.5823 
12-May-2018_16:07:26 Exp 7311 20 2 R 1 2 24 immoralOther immoralSelf mismatch n n 1 0.6106 
12-May-2018_16:07:29 Exp 7311 20 2 R 1 3 1 moralOther moralOther match m m 1 0.5236 
12-May-2018_16:07:31 Exp 7311 20 2 R 1 3 2 immoralSelf immoralSelf match m m 1 0.5628 
12-May-2018_16:07:33 Exp 7311 20 2 R 1 3 3 immoralSelf immoralOther mismatch n n 1 0.4987 
12-May-2018_16:07:35 Exp 7311 20 2 R 1 3 4 moralSelf moralSelf match m m 1 0.5535 
12-May-2018_16:07:37 Exp 7311 20 2 R 1 3 5 immoralSelf immoralSelf match m m 1 0.4053 
12-May-2018_16:07:39 Exp 7311 20 2 R 1 3 6 immoralSelf immoralSelf match m m 1 0.4342 
12-May-2018_16:07:41 Exp 7311 20 2 R 1 3 7 immoralOther immoralOther match m n 0 0.5477 
12-May-2018_16:07:44 Exp 7311 20 2 R 1 3 8 moralOther immoralSelf mismatch n n 1 0.5632 
12-May-2018_16:07:46 Exp 7311 20 2 R 1 3 9 moralOther moralOther match m m 1 0.3554 
12-May-2018_16:07:48 Exp 7311 20 2 R 1 3 10 immoralOther immoralSelf mismatch n m 0 0.6072 
12-May-2018_16:07:50 Exp 7311 20 2 R 1 3 11 immoralSelf moralSelf mismatch n m 0 0.3962 
12-May-2018_16:07:52 Exp 7311 20 2 R 1 3 12 moralSelf immoralSelf mismatch n m 0 0.4205 
12-May-2018_16:07:54 Exp 7311 20 2 R 1 3 13 immoralOther immoralOther match m m 1 0.6696 
12-May-2018_16:07:56 Exp 7311 20 2 R 1 3 14 moralOther moralSelf mismatch n m 0 0.4278 
12-May-2018_16:07:58 Exp 7311 20 2 R 1 3 15 moralSelf moralOther mismatch n m 0 0.5210 
12-May-2018_16:08:01 Exp 7311 20 2 R 1 3 16 immoralOther immoralOther match m m 1 0.6402 
12-May-2018_16:08:03 Exp 7311 20 2 R 1 3 17 moralOther moralSelf mismatch n m 0 0.6817 
12-May-2018_16:08:05 Exp 7311 20 2 R 1 3 18 moralSelf immoralOther mismatch n n 1 0.7642 
12-May-2018_16:08:08 Exp 7311 20 2 R 1 3 19 immoralSelf immoralOther mismatch n n 1 0.6122 
12-May-2018_16:08:10 Exp 7311 20 2 R 1 3 20 moralSelf moralSelf match m m 1 0.4613 
12-May-2018_16:08:12 Exp 7311 20 2 R 1 3 21 immoralOther immoralSelf mismatch n m 0 0.6472 
12-May-2018_16:08:14 Exp 7311 20 2 R 1 3 22 moralSelf moralSelf match m m 1 0.5250 
12-May-2018_16:08:16 Exp 7311 20 2 R 1 3 23 moralOther moralOther match m m 1 0.5800 
12-May-2018_16:08:18 Exp 7311 20 2 R 1 3 24 immoralOther immoralSelf mismatch n m 0 0.5285 
12-May-2018_16:08:35 Exp 7311 20 2 R 1 4 1 immoralOther immoralOther match m n 0 0.5959 
12-May-2018_16:08:37 Exp 7311 20 2 R 1 4 2 moralOther immoralOther mismatch n n 1 0.5885 
12-May-2018_16:08:40 Exp 7311 20 2 R 1 4 3 moralSelf moralSelf match m m 1 0.4531 
12-May-2018_16:08:42 Exp 7311 20 2 R 1 4 4 moralOther immoralSelf mismatch n n 1 0.5548 
12-May-2018_16:08:44 Exp 7311 20 2 R 1 4 5 moralOther moralOther match m m 1 0.4787 
12-May-2018_16:08:46 Exp 7311 20 2 R 1 4 6 immoralSelf immoralSelf match m n 0 0.4448 
12-May-2018_16:08:48 Exp 7311 20 2 R 1 4 7 immoralOther immoralSelf mismatch n m 0 0.4666 
12-May-2018_16:08:50 Exp 7311 20 2 R 1 4 8 immoralSelf immoralSelf match m m 1 0.4605 
12-May-2018_16:08:52 Exp 7311 20 2 R 1 4 9 immoralSelf moralOther mismatch n n 1 0.5266 
12-May-2018_16:08:54 Exp 7311 20 2 R 1 4 10 moralSelf moralSelf match m m 1 0.4179 
12-May-2018_16:08:56 Exp 7311 20 2 R 1 4 11 immoralSelf moralOther mismatch n n 1 0.4909 
12-May-2018_16:08:59 Exp 7311 20 2 R 1 4 12 immoralOther immoralOther match m m 1 0.4614 
12-May-2018_16:09:01 Exp 7311 20 2 R 1 4 13 moralSelf immoralSelf mismatch n m 0 0.4314 
12-May-2018_16:09:03 Exp 7311 20 2 R 1 4 14 immoralSelf immoralSelf match m m 1 0.3005 
12-May-2018_16:09:05 Exp 7311 20 2 R 1 4 15 moralOther immoralSelf mismatch n n 1 0.4434 
12-May-2018_16:09:07 Exp 7311 20 2 R 1 4 16 moralSelf immoralSelf mismatch n m 0 0.4528 
12-May-2018_16:09:09 Exp 7311 20 2 R 1 4 17 immoralOther moralOther mismatch n n 1 0.6504 
12-May-2018_16:09:11 Exp 7311 20 2 R 1 4 18 moralSelf moralSelf match m m 1 0.4962 
12-May-2018_16:09:13 Exp 7311 20 2 R 1 4 19 moralSelf immoralOther mismatch n n 1 0.4868 
12-May-2018_16:09:15 Exp 7311 20 2 R 1 4 20 moralOther moralOther match m m 1 0.5533 
12-May-2018_16:09:18 Exp 7311 20 2 R 1 4 21 immoralSelf moralOther mismatch n n 1 0.5092 
12-May-2018_16:09:20 Exp 7311 20 2 R 1 4 22 immoralOther immoralOther match m n 0 0.5761 
12-May-2018_16:09:22 Exp 7311 20 2 R 1 4 23 immoralOther immoralSelf mismatch n m 0 0.5004 
12-May-2018_16:09:24 Exp 7311 20 2 R 1 4 24 moralOther moralOther match m m 1 0.4671 
12-May-2018_16:09:26 Exp 7311 20 2 R 1 5 1 moralOther moralOther match m n 0 0.4609 
12-May-2018_16:09:28 Exp 7311 20 2 R 1 5 2 moralOther immoralSelf mismatch n n 1 0.6070 
12-May-2018_16:09:30 Exp 7311 20 2 R 1 5 3 moralSelf moralSelf match m m 1 0.5158 
12-May-2018_16:09:33 Exp 7311 20 2 R 1 5 4 immoralSelf immoralSelf match m m 1 0.4750 
12-May-2018_16:09:35 Exp 7311 20 2 R 1 5 5 immoralSelf immoralSelf match m m 1 0.5610 
12-May-2018_16:09:37 Exp 7311 20 2 R 1 5 6 immoralOther immoralSelf mismatch n n 1 0.4930 
12-May-2018_16:09:39 Exp 7311 20 2 R 1 5 7 moralOther immoralSelf mismatch n n 1 0.6596 
12-May-2018_16:09:42 Exp 7311 20 2 R 1 5 8 moralSelf immoralSelf mismatch n n 1 0.8136 
12-May-2018_16:09:44 Exp 7311 20 2 R 1 5 9 immoralOther moralSelf mismatch n n 1 0.7027 
12-May-2018_16:09:46 Exp 7311 20 2 R 1 5 10 moralOther moralOther match m m 1 0.5494 
12-May-2018_16:09:48 Exp 7311 20 2 R 1 5 11 immoralSelf moralSelf mismatch n n 1 0.4770 
12-May-2018_16:09:51 Exp 7311 20 2 R 1 5 12 moralSelf immoralSelf mismatch n m 0 0.6431 
12-May-2018_16:09:53 Exp 7311 20 2 R 1 5 13 immoralOther immoralSelf mismatch n n 1 0.4686 
12-May-2018_16:09:55 Exp 7311 20 2 R 1 5 14 moralSelf moralSelf match m m 1 0.5869 
12-May-2018_16:09:57 Exp 7311 20 2 R 1 5 15 moralOther moralSelf mismatch n n 1 0.4194 
12-May-2018_16:09:59 Exp 7311 20 2 R 1 5 16 moralSelf moralSelf match m m 1 0.4604 
12-May-2018_16:10:01 Exp 7311 20 2 R 1 5 17 immoralOther immoralOther match m n 0 0.5025 
12-May-2018_16:10:03 Exp 7311 20 2 R 1 5 18 moralSelf immoralOther mismatch n m 0 0.4691 
12-May-2018_16:10:05 Exp 7311 20 2 R 1 5 19 immoralSelf immoralSelf match m m 1 0.4593 
12-May-2018_16:10:08 Exp 7311 20 2 R 1 5 20 moralOther moralOther match m m 1 0.5493 
12-May-2018_16:10:10 Exp 7311 20 2 R 1 5 21 immoralOther immoralOther match m m 1 0.4689 
12-May-2018_16:10:12 Exp 7311 20 2 R 1 5 22 immoralSelf moralSelf mismatch n n 1 0.5151 
12-May-2018_16:10:14 Exp 7311 20 2 R 1 5 23 immoralOther immoralOther match m m 1 0.5222 
12-May-2018_16:10:16 Exp 7311 20 2 R 1 5 24 immoralSelf immoralOther mismatch n n 1 0.5054 
12-May-2018_16:10:22 Exp 7311 20 2 R 2 1 1 immoralOther immoralOther match m NA -1 1.0841 
12-May-2018_16:10:24 Exp 7311 20 2 R 2 1 2 moralOther immoralSelf mismatch n n 1 0.5876 
12-May-2018_16:10:26 Exp 7311 20 2 R 2 1 3 immoralSelf immoralSelf match m m 1 0.4521 
12-May-2018_16:10:28 Exp 7311 20 2 R 2 1 4 immoralOther immoralSelf mismatch n m 0 0.5379 
12-May-2018_16:10:30 Exp 7311 20 2 R 2 1 5 moralOther immoralOther mismatch n n 1 0.5411 
12-May-2018_16:10:33 Exp 7311 20 2 R 2 1 6 moralOther moralOther match m m 1 0.5088 
12-May-2018_16:10:35 Exp 7311 20 2 R 2 1 7 immoralOther immoralOther match m m 1 0.3837 
12-May-2018_16:10:37 Exp 7311 20 2 R 2 1 8 moralSelf moralOther mismatch n m 0 0.5480 
12-May-2018_16:10:39 Exp 7311 20 2 R 2 1 9 immoralSelf immoralOther mismatch n n 1 0.5157 
12-May-2018_16:10:41 Exp 7311 20 2 R 2 1 10 immoralSelf moralSelf mismatch n m 0 0.4428 
12-May-2018_16:10:43 Exp 7311 20 2 R 2 1 11 moralSelf moralOther mismatch n m 0 0.5004 
12-May-2018_16:10:45 Exp 7311 20 2 R 2 1 12 moralSelf moralSelf match m n 0 0.4990 
12-May-2018_16:10:48 Exp 7311 20 2 R 2 1 13 moralSelf immoralSelf mismatch n n 1 0.7617 
12-May-2018_16:10:50 Exp 7311 20 2 R 2 1 14 immoralOther moralSelf mismatch n m 0 0.5496 
12-May-2018_16:10:52 Exp 7311 20 2 R 2 1 15 moralSelf moralSelf match m m 1 0.5092 
12-May-2018_16:10:54 Exp 7311 20 2 R 2 1 16 immoralSelf immoralSelf match m n 0 0.4080 
12-May-2018_16:10:56 Exp 7311 20 2 R 2 1 17 immoralOther immoralOther match m n 0 0.7249 
12-May-2018_16:10:59 Exp 7311 20 2 R 2 1 18 immoralSelf immoralOther mismatch n n 1 0.5079 
12-May-2018_16:11:01 Exp 7311 20 2 R 2 1 19 immoralOther moralOther mismatch n m 0 0.4229 
12-May-2018_16:11:03 Exp 7311 20 2 R 2 1 20 moralOther moralOther match m m 1 0.4362 
12-May-2018_16:11:05 Exp 7311 20 2 R 2 1 21 immoralSelf immoralSelf match m m 1 0.4457 
12-May-2018_16:11:07 Exp 7311 20 2 R 2 1 22 moralOther moralOther match m m 1 0.5155 
12-May-2018_16:11:09 Exp 7311 20 2 R 2 1 23 moralOther immoralOther mismatch n n 1 0.3946 
12-May-2018_16:11:11 Exp 7311 20 2 R 2 1 24 moralSelf moralSelf match m m 1 0.4751 
12-May-2018_16:11:13 Exp 7311 20 2 R 2 2 1 moralSelf moralSelf match m n 0 0.4252 
12-May-2018_16:11:15 Exp 7311 20 2 R 2 2 2 moralOther immoralSelf mismatch n n 1 0.4465 
12-May-2018_16:11:17 Exp 7311 20 2 R 2 2 3 immoralSelf immoralSelf match m m 1 0.3163 
12-May-2018_16:11:19 Exp 7311 20 2 R 2 2 4 moralOther immoralOther mismatch n n 1 0.4033 
12-May-2018_16:11:21 Exp 7311 20 2 R 2 2 5 immoralOther immoralSelf mismatch n m 0 0.4803 
12-May-2018_16:11:23 Exp 7311 20 2 R 2 2 6 moralSelf immoralOther mismatch n m 0 0.6186 
12-May-2018_16:11:26 Exp 7311 20 2 R 2 2 7 immoralOther immoralOther match m m 1 0.4437 
12-May-2018_16:11:28 Exp 7311 20 2 R 2 2 8 moralOther moralOther match m m 1 0.5011 
12-May-2018_16:11:30 Exp 7311 20 2 R 2 2 9 immoralOther moralSelf mismatch n n 1 0.4758 
12-May-2018_16:11:32 Exp 7311 20 2 R 2 2 10 moralOther immoralSelf mismatch n m 0 0.4341 
12-May-2018_16:11:34 Exp 7311 20 2 R 2 2 11 moralSelf moralSelf match m m 1 0.5475 
12-May-2018_16:11:36 Exp 7311 20 2 R 2 2 12 immoralOther immoralOther match m n 0 0.4672 
12-May-2018_16:11:38 Exp 7311 20 2 R 2 2 13 immoralSelf moralOther mismatch n n 1 0.4531 
12-May-2018_16:11:40 Exp 7311 20 2 R 2 2 14 immoralSelf immoralSelf match m m 1 0.4427 
12-May-2018_16:11:42 Exp 7311 20 2 R 2 2 15 moralSelf immoralSelf mismatch n n 1 0.4603 
12-May-2018_16:11:44 Exp 7311 20 2 R 2 2 16 moralOther moralOther match m m 1 0.3422 
12-May-2018_16:11:47 Exp 7311 20 2 R 2 2 17 moralOther moralOther match m n 0 0.5579 
12-May-2018_16:11:49 Exp 7311 20 2 R 2 2 18 immoralSelf immoralSelf match m n 0 0.4017 
12-May-2018_16:11:51 Exp 7311 20 2 R 2 2 19 immoralSelf moralOther mismatch n n 1 0.4625 
12-May-2018_16:11:53 Exp 7311 20 2 R 2 2 20 moralSelf moralSelf match m m 1 0.5045 
12-May-2018_16:11:55 Exp 7311 20 2 R 2 2 21 immoralSelf immoralOther mismatch n n 1 0.4195 
12-May-2018_16:11:57 Exp 7311 20 2 R 2 2 22 immoralOther moralOther mismatch n m 0 0.5644 
12-May-2018_16:11:59 Exp 7311 20 2 R 2 2 23 immoralOther immoralOther match m m 1 0.7405 
12-May-2018_16:12:02 Exp 7311 20 2 R 2 2 24 moralSelf immoralSelf mismatch n m 0 0.6760 
12-May-2018_16:12:04 Exp 7311 20 2 R 2 3 1 moralSelf moralOther mismatch n n 1 0.5863 
12-May-2018_16:12:06 Exp 7311 20 2 R 2 3 2 moralOther moralOther match m m 1 0.4429 
12-May-2018_16:12:08 Exp 7311 20 2 R 2 3 3 immoralOther immoralOther match m n 0 0.6364 
12-May-2018_16:12:10 Exp 7311 20 2 R 2 3 4 moralOther immoralOther mismatch n n 1 0.5178 
12-May-2018_16:12:13 Exp 7311 20 2 R 2 3 5 moralOther moralOther match m m 1 0.3971 
12-May-2018_16:12:15 Exp 7311 20 2 R 2 3 6 immoralSelf immoralSelf match m m 1 0.3858 
12-May-2018_16:12:17 Exp 7311 20 2 R 2 3 7 moralOther moralSelf mismatch n m 0 0.4584 
12-May-2018_16:12:19 Exp 7311 20 2 R 2 3 8 immoralSelf immoralOther mismatch n n 1 0.5324 
12-May-2018_16:12:21 Exp 7311 20 2 R 2 3 9 immoralSelf immoralSelf match m m 1 0.4477 
12-May-2018_16:12:23 Exp 7311 20 2 R 2 3 10 moralSelf moralSelf match m m 1 0.4215 
12-May-2018_16:12:25 Exp 7311 20 2 R 2 3 11 immoralSelf immoralSelf match m m 1 0.4747 
12-May-2018_16:12:27 Exp 7311 20 2 R 2 3 12 moralOther moralOther match m m 1 0.4329 
12-May-2018_16:12:29 Exp 7311 20 2 R 2 3 13 moralSelf moralOther mismatch n m 0 0.4423 
12-May-2018_16:12:31 Exp 7311 20 2 R 2 3 14 immoralOther moralSelf mismatch n m 0 0.4439 
12-May-2018_16:12:33 Exp 7311 20 2 R 2 3 15 immoralOther moralSelf mismatch n n 1 0.5974 
12-May-2018_16:12:36 Exp 7311 20 2 R 2 3 16 immoralOther moralOther mismatch n n 1 0.6102 
12-May-2018_16:12:38 Exp 7311 20 2 R 2 3 17 moralSelf moralSelf match m m 1 0.4992 
12-May-2018_16:12:40 Exp 7311 20 2 R 2 3 18 moralSelf moralOther mismatch n n 1 0.6179 
12-May-2018_16:12:42 Exp 7311 20 2 R 2 3 19 immoralSelf moralSelf mismatch n n 1 0.5309 
12-May-2018_16:12:44 Exp 7311 20 2 R 2 3 20 immoralSelf moralSelf mismatch n n 1 0.5343 
12-May-2018_16:12:47 Exp 7311 20 2 R 2 3 21 moralSelf moralSelf match m n 0 0.4977 
12-May-2018_16:12:49 Exp 7311 20 2 R 2 3 22 moralOther immoralOther mismatch n n 1 0.6164 
12-May-2018_16:12:51 Exp 7311 20 2 R 2 3 23 immoralOther immoralOther match m m 1 0.5694 
12-May-2018_16:12:53 Exp 7311 20 2 R 2 3 24 immoralOther immoralOther match m n 0 0.4735 
12-May-2018_16:13:11 Exp 7311 20 2 R 2 4 1 immoralSelf immoralSelf match m m 1 0.5462 
12-May-2018_16:13:13 Exp 7311 20 2 R 2 4 2 immoralOther immoralOther match m m 1 0.6339 
12-May-2018_16:13:15 Exp 7311 20 2 R 2 4 3 immoralOther immoralOther match m n 0 0.4513 
12-May-2018_16:13:17 Exp 7311 20 2 R 2 4 4 immoralOther immoralSelf mismatch n m 0 0.2970 
12-May-2018_16:13:19 Exp 7311 20 2 R 2 4 5 moralOther moralOther match m m 1 0.4636 
12-May-2018_16:13:21 Exp 7311 20 2 R 2 4 6 immoralOther moralOther mismatch n m 0 0.4095 
12-May-2018_16:13:23 Exp 7311 20 2 R 2 4 7 immoralSelf moralSelf mismatch n m 0 0.2827 
12-May-2018_16:13:25 Exp 7311 20 2 R 2 4 8 moralOther immoralSelf mismatch n m 0 0.5411 
12-May-2018_16:13:27 Exp 7311 20 2 R 2 4 9 moralOther moralSelf mismatch n n 1 0.7567 
12-May-2018_16:13:30 Exp 7311 20 2 R 2 4 10 immoralSelf moralOther mismatch n n 1 0.5365 
12-May-2018_16:13:32 Exp 7311 20 2 R 2 4 11 moralSelf immoralOther mismatch n m 0 0.5080 
12-May-2018_16:13:34 Exp 7311 20 2 R 2 4 12 immoralSelf immoralSelf match m m 1 0.4229 
12-May-2018_16:13:36 Exp 7311 20 2 R 2 4 13 immoralOther moralOther mismatch n n 1 0.6921 
12-May-2018_16:13:38 Exp 7311 20 2 R 2 4 14 moralSelf moralSelf match m m 1 0.5309 
12-May-2018_16:13:41 Exp 7311 20 2 R 2 4 15 moralSelf moralSelf match m m 1 0.6381 
12-May-2018_16:13:43 Exp 7311 20 2 R 2 4 16 moralOther moralOther match m m 1 0.5917 
12-May-2018_16:13:45 Exp 7311 20 2 R 2 4 17 moralSelf immoralOther mismatch n n 1 0.6402 
12-May-2018_16:13:47 Exp 7311 20 2 R 2 4 18 moralOther immoralSelf mismatch n m 0 0.4338 
12-May-2018_16:13:49 Exp 7311 20 2 R 2 4 19 immoralSelf immoralSelf match m m 1 0.3793 
12-May-2018_16:13:51 Exp 7311 20 2 R 2 4 20 moralSelf moralSelf match m n 0 0.6076 
12-May-2018_16:13:53 Exp 7311 20 2 R 2 4 21 immoralSelf moralOther mismatch n n 1 0.4203 
12-May-2018_16:13:56 Exp 7311 20 2 R 2 4 22 moralOther moralOther match m m 1 0.4614 
12-May-2018_16:13:58 Exp 7311 20 2 R 2 4 23 immoralOther immoralOther match m m 1 0.5674 
12-May-2018_16:14:00 Exp 7311 20 2 R 2 4 24 moralSelf moralOther mismatch n m 0 0.5034 
12-May-2018_16:14:02 Exp 7311 20 2 R 2 5 1 immoralSelf immoralSelf match m m 1 0.3544 
12-May-2018_16:14:04 Exp 7311 20 2 R 2 5 2 immoralOther immoralSelf mismatch n m 0 0.4622 
12-May-2018_16:14:06 Exp 7311 20 2 R 2 5 3 moralSelf moralSelf match m m 1 0.3842 
12-May-2018_16:14:08 Exp 7311 20 2 R 2 5 4 immoralSelf immoralSelf match m m 1 0.3324 
12-May-2018_16:14:10 Exp 7311 20 2 R 2 5 5 moralSelf moralSelf match m m 1 0.5278 
12-May-2018_16:14:12 Exp 7311 20 2 R 2 5 6 immoralOther moralSelf mismatch n n 1 0.4512 
12-May-2018_16:14:14 Exp 7311 20 2 R 2 5 7 immoralSelf immoralSelf match m m 1 0.4329 
12-May-2018_16:14:17 Exp 7311 20 2 R 2 5 8 moralSelf immoralOther mismatch n m 0 0.7144 
12-May-2018_16:14:19 Exp 7311 20 2 R 2 5 9 moralOther immoralOther mismatch n n 1 0.6693 
12-May-2018_16:14:21 Exp 7311 20 2 R 2 5 10 immoralSelf moralOther mismatch n n 1 0.5315 
12-May-2018_16:14:23 Exp 7311 20 2 R 2 5 11 moralOther moralOther match m m 1 0.5750 
12-May-2018_16:14:26 Exp 7311 20 2 R 2 5 12 moralOther moralOther match m m 1 0.5872 
12-May-2018_16:14:28 Exp 7311 20 2 R 2 5 13 moralOther immoralOther mismatch n n 1 0.5719 
12-May-2018_16:14:30 Exp 7311 20 2 R 2 5 14 immoralSelf immoralOther mismatch n n 1 0.4999 
12-May-2018_16:14:32 Exp 7311 20 2 R 2 5 15 moralSelf moralSelf match m m 1 0.6825 
12-May-2018_16:14:34 Exp 7311 20 2 R 2 5 16 moralSelf immoralOther mismatch n n 1 0.5650 
12-May-2018_16:14:37 Exp 7311 20 2 R 2 5 17 immoralOther immoralOther match m m 1 0.7011 
12-May-2018_16:14:39 Exp 7311 20 2 R 2 5 18 immoralSelf moralOther mismatch n n 1 0.4519 
12-May-2018_16:14:41 Exp 7311 20 2 R 2 5 19 moralOther moralOther match m m 1 0.4815 
12-May-2018_16:14:43 Exp 7311 20 2 R 2 5 20 moralOther immoralOther mismatch n n 1 0.5560 
12-May-2018_16:14:45 Exp 7311 20 2 R 2 5 21 immoralOther moralOther mismatch n m 0 0.5119 
12-May-2018_16:14:47 Exp 7311 20 2 R 2 5 22 immoralOther immoralOther match m m 1 0.5627 
12-May-2018_16:14:50 Exp 7311 20 2 R 2 5 23 immoralOther immoralOther match m m 1 0.5227 
12-May-2018_16:14:52 Exp 7311 20 2 R 2 5 24 moralSelf moralOther mismatch n m 0 0.5539 
12-May-2018_16:14:57 Exp 7311 20 2 R 3 1 1 moralSelf moralSelf match m n 0 0.6303 
12-May-2018_16:14:59 Exp 7311 20 2 R 3 1 2 immoralSelf immoralSelf match m m 1 0.5476 
12-May-2018_16:15:01 Exp 7311 20 2 R 3 1 3 immoralOther immoralOther match m m 1 0.5553 
12-May-2018_16:15:04 Exp 7311 20 2 R 3 1 4 immoralSelf moralSelf mismatch n n 1 0.5030 
12-May-2018_16:15:06 Exp 7311 20 2 R 3 1 5 moralSelf moralSelf match m m 1 0.5540 
12-May-2018_16:15:08 Exp 7311 20 2 R 3 1 6 moralOther immoralSelf mismatch n n 1 0.4938 
12-May-2018_16:15:10 Exp 7311 20 2 R 3 1 7 moralOther immoralOther mismatch n n 1 0.7646 
12-May-2018_16:15:12 Exp 7311 20 2 R 3 1 8 immoralOther moralOther mismatch n m 0 0.5647 
12-May-2018_16:15:15 Exp 7311 20 2 R 3 1 9 moralOther moralOther match m m 1 0.6768 
12-May-2018_16:15:17 Exp 7311 20 2 R 3 1 10 immoralSelf moralOther mismatch n n 1 0.4670 
12-May-2018_16:15:19 Exp 7311 20 2 R 3 1 11 immoralOther immoralOther match m m 1 0.5168 
12-May-2018_16:15:21 Exp 7311 20 2 R 3 1 12 moralSelf immoralOther mismatch n m 0 0.6120 
12-May-2018_16:15:23 Exp 7311 20 2 R 3 1 13 immoralOther immoralOther match m m 1 0.5170 
12-May-2018_16:15:26 Exp 7311 20 2 R 3 1 14 moralOther moralSelf mismatch n n 1 0.5482 
12-May-2018_16:15:28 Exp 7311 20 2 R 3 1 15 immoralSelf immoralSelf match m m 1 0.5558 
12-May-2018_16:15:30 Exp 7311 20 2 R 3 1 16 moralSelf moralOther mismatch n m 0 0.6557 
12-May-2018_16:15:32 Exp 7311 20 2 R 3 1 17 immoralSelf immoralSelf match m m 1 0.5094 
12-May-2018_16:15:35 Exp 7311 20 2 R 3 1 18 moralOther moralOther match m m 1 0.7523 
12-May-2018_16:15:37 Exp 7311 20 2 R 3 1 19 immoralOther moralOther mismatch n n 1 0.5801 
12-May-2018_16:15:39 Exp 7311 20 2 R 3 1 20 moralSelf moralSelf match m m 1 0.4725 
12-May-2018_16:15:41 Exp 7311 20 2 R 3 1 21 immoralSelf moralOther mismatch n n 1 0.4947 
12-May-2018_16:15:43 Exp 7311 20 2 R 3 1 22 moralOther moralOther match m m 1 0.4453 
12-May-2018_16:15:45 Exp 7311 20 2 R 3 1 23 immoralOther moralOther mismatch n n 1 0.6191 
12-May-2018_16:15:48 Exp 7311 20 2 R 3 1 24 moralSelf immoralOther mismatch n n 1 0.7961 
12-May-2018_16:15:50 Exp 7311 20 2 R 3 2 1 moralSelf moralSelf match m m 1 0.4607 
12-May-2018_16:15:52 Exp 7311 20 2 R 3 2 2 moralOther immoralSelf mismatch n n 1 0.4387 
12-May-2018_16:15:54 Exp 7311 20 2 R 3 2 3 immoralOther moralSelf mismatch n n 1 0.4562 
12-May-2018_16:15:56 Exp 7311 20 2 R 3 2 4 moralSelf moralSelf match m m 1 0.4581 
12-May-2018_16:15:58 Exp 7311 20 2 R 3 2 5 moralOther moralSelf mismatch n n 1 0.4841 
12-May-2018_16:16:00 Exp 7311 20 2 R 3 2 6 moralSelf moralSelf match m m 1 0.4305 
12-May-2018_16:16:02 Exp 7311 20 2 R 3 2 7 moralOther immoralSelf mismatch n n 1 0.4917 
12-May-2018_16:16:05 Exp 7311 20 2 R 3 2 8 moralOther moralOther match m m 1 0.5625 
12-May-2018_16:16:07 Exp 7311 20 2 R 3 2 9 immoralSelf immoralSelf match m m 1 0.4746 
12-May-2018_16:16:09 Exp 7311 20 2 R 3 2 10 immoralSelf moralOther mismatch n n 1 0.4806 
12-May-2018_16:16:11 Exp 7311 20 2 R 3 2 11 immoralOther moralOther mismatch n n 1 0.6031 
12-May-2018_16:16:13 Exp 7311 20 2 R 3 2 12 immoralSelf moralSelf mismatch n n 1 0.4640 
12-May-2018_16:16:15 Exp 7311 20 2 R 3 2 13 moralSelf immoralSelf mismatch n m 0 0.4259 
12-May-2018_16:16:18 Exp 7311 20 2 R 3 2 14 moralOther moralOther match m m 1 0.6072 
12-May-2018_16:16:20 Exp 7311 20 2 R 3 2 15 immoralSelf immoralOther mismatch n n 1 0.4441 
12-May-2018_16:16:22 Exp 7311 20 2 R 3 2 16 moralSelf immoralSelf mismatch n m 0 0.4817 
12-May-2018_16:16:24 Exp 7311 20 2 R 3 2 17 immoralSelf immoralSelf match m m 1 0.4841 
12-May-2018_16:16:26 Exp 7311 20 2 R 3 2 18 immoralOther immoralOther match m m 1 0.5346 
12-May-2018_16:16:28 Exp 7311 20 2 R 3 2 19 moralSelf immoralSelf mismatch n m 0 0.4900 
12-May-2018_16:16:30 Exp 7311 20 2 R 3 2 20 immoralOther immoralSelf mismatch n n 1 0.4924 
12-May-2018_16:16:32 Exp 7311 20 2 R 3 2 21 immoralSelf immoralSelf match m m 1 0.4111 
12-May-2018_16:16:34 Exp 7311 20 2 R 3 2 22 immoralOther immoralOther match m n 0 0.4761 
12-May-2018_16:16:37 Exp 7311 20 2 R 3 2 23 moralOther moralOther match m m 1 0.4902 
12-May-2018_16:16:39 Exp 7311 20 2 R 3 2 24 immoralOther immoralOther match m m 1 0.5247 
12-May-2018_16:16:41 Exp 7311 20 2 R 3 3 1 immoralOther immoralOther match m m 1 0.4919 
12-May-2018_16:16:43 Exp 7311 20 2 R 3 3 2 moralOther moralOther match m m 1 0.5065 
12-May-2018_16:16:45 Exp 7311 20 2 R 3 3 3 moralOther moralSelf mismatch n m 0 0.5255 
12-May-2018_16:16:47 Exp 7311 20 2 R 3 3 4 immoralOther moralOther mismatch n n 1 0.5806 
12-May-2018_16:16:50 Exp 7311 20 2 R 3 3 5 immoralOther moralSelf mismatch n n 1 0.6729 
12-May-2018_16:16:52 Exp 7311 20 2 R 3 3 6 moralOther immoralSelf mismatch n n 1 0.9432 
12-May-2018_16:16:55 Exp 7311 20 2 R 3 3 7 moralOther moralSelf mismatch n n 1 0.7587 
12-May-2018_16:16:57 Exp 7311 20 2 R 3 3 8 moralSelf immoralOther mismatch n n 1 0.7946 
12-May-2018_16:16:59 Exp 7311 20 2 R 3 3 9 moralOther moralOther match m m 1 0.5472 
12-May-2018_16:17:01 Exp 7311 20 2 R 3 3 10 immoralSelf immoralSelf match m m 1 0.4989 
12-May-2018_16:17:04 Exp 7311 20 2 R 3 3 11 moralSelf immoralOther mismatch n n 1 0.5855 
12-May-2018_16:17:06 Exp 7311 20 2 R 3 3 12 immoralOther immoralOther match m m 1 0.5460 
12-May-2018_16:17:08 Exp 7311 20 2 R 3 3 13 immoralSelf moralSelf mismatch n n 1 0.6977 
12-May-2018_16:17:10 Exp 7311 20 2 R 3 3 14 immoralOther moralSelf mismatch n n 1 0.5363 
12-May-2018_16:17:12 Exp 7311 20 2 R 3 3 15 moralOther moralOther match m m 1 0.5237 
12-May-2018_16:17:15 Exp 7311 20 2 R 3 3 16 moralSelf immoralOther mismatch n n 1 0.5629 
12-May-2018_16:17:17 Exp 7311 20 2 R 3 3 17 moralSelf moralSelf match m m 1 0.5309 
12-May-2018_16:17:19 Exp 7311 20 2 R 3 3 18 immoralOther immoralOther match m n 0 0.4783 
12-May-2018_16:17:21 Exp 7311 20 2 R 3 3 19 immoralSelf moralOther mismatch n n 1 0.5245 
12-May-2018_16:17:23 Exp 7311 20 2 R 3 3 20 immoralSelf immoralSelf match m m 1 0.5317 
12-May-2018_16:17:25 Exp 7311 20 2 R 3 3 21 immoralSelf immoralSelf match m m 1 0.5591 
12-May-2018_16:17:28 Exp 7311 20 2 R 3 3 22 moralSelf moralSelf match m n 0 0.6670 
12-May-2018_16:17:30 Exp 7311 20 2 R 3 3 23 immoralSelf moralOther mismatch n n 1 0.5169 
12-May-2018_16:17:32 Exp 7311 20 2 R 3 3 24 moralSelf moralSelf match m m 1 0.5639 
12-May-2018_16:17:47 Exp 7311 20 2 R 3 4 1 immoralSelf immoralSelf match m m 1 0.5133 
12-May-2018_16:17:49 Exp 7311 20 2 R 3 4 2 moralOther moralSelf mismatch n n 1 0.7802 
12-May-2018_16:17:51 Exp 7311 20 2 R 3 4 3 immoralSelf moralSelf mismatch n n 1 0.4805 
12-May-2018_16:17:54 Exp 7311 20 2 R 3 4 4 moralSelf moralOther mismatch n m 0 0.7231 
12-May-2018_16:17:56 Exp 7311 20 2 R 3 4 5 moralOther immoralOther mismatch n n 1 0.6981 
12-May-2018_16:17:58 Exp 7311 20 2 R 3 4 6 immoralOther immoralOther match m m 1 0.6569 
12-May-2018_16:18:01 Exp 7311 20 2 R 3 4 7 moralSelf immoralOther mismatch n n 1 0.6748 
12-May-2018_16:18:03 Exp 7311 20 2 R 3 4 8 moralOther immoralSelf mismatch n m 0 0.5050 
12-May-2018_16:18:05 Exp 7311 20 2 R 3 4 9 moralSelf moralSelf match m m 1 0.7879 
12-May-2018_16:18:07 Exp 7311 20 2 R 3 4 10 immoralOther immoralSelf mismatch n n 1 0.6525 
12-May-2018_16:18:10 Exp 7311 20 2 R 3 4 11 immoralSelf moralOther mismatch n n 1 0.5941 
12-May-2018_16:18:12 Exp 7311 20 2 R 3 4 12 moralOther moralOther match m m 1 0.4988 
12-May-2018_16:18:14 Exp 7311 20 2 R 3 4 13 immoralOther moralSelf mismatch n n 1 0.5774 
12-May-2018_16:18:16 Exp 7311 20 2 R 3 4 14 moralSelf moralSelf match m m 1 0.4218 
12-May-2018_16:18:18 Exp 7311 20 2 R 3 4 15 immoralOther immoralOther match m m 1 0.6110 
12-May-2018_16:18:20 Exp 7311 20 2 R 3 4 16 moralOther moralOther match m m 1 0.5321 
12-May-2018_16:18:23 Exp 7311 20 2 R 3 4 17 moralOther moralOther match m m 1 0.6154 
12-May-2018_16:18:25 Exp 7311 20 2 R 3 4 18 immoralOther immoralSelf mismatch n n 1 0.7204 
12-May-2018_16:18:27 Exp 7311 20 2 R 3 4 19 immoralSelf immoralSelf match m m 1 0.4556 
12-May-2018_16:18:29 Exp 7311 20 2 R 3 4 20 immoralOther immoralOther match m m 1 0.5733 
12-May-2018_16:18:32 Exp 7311 20 2 R 3 4 21 moralSelf moralOther mismatch n m 0 0.6375 
12-May-2018_16:18:34 Exp 7311 20 2 R 3 4 22 immoralSelf moralSelf mismatch n n 1 0.6387 
12-May-2018_16:18:36 Exp 7311 20 2 R 3 4 23 immoralSelf immoralSelf match m m 1 0.4484 
12-May-2018_16:18:38 Exp 7311 20 2 R 3 4 24 moralSelf moralSelf match m m 1 0.7102 
12-May-2018_16:18:40 Exp 7311 20 2 R 3 5 1 immoralSelf immoralSelf match m m 1 0.4972 
12-May-2018_16:18:43 Exp 7311 20 2 R 3 5 2 moralOther immoralOther mismatch n n 1 0.6157 
12-May-2018_16:18:45 Exp 7311 20 2 R 3 5 3 immoralOther moralSelf mismatch n n 1 0.6728 
12-May-2018_16:18:47 Exp 7311 20 2 R 3 5 4 moralOther moralOther match m m 1 0.4870 
12-May-2018_16:18:49 Exp 7311 20 2 R 3 5 5 immoralOther moralSelf mismatch n n 1 0.4894 
12-May-2018_16:18:51 Exp 7311 20 2 R 3 5 6 immoralOther immoralOther match m m 1 0.5238 
12-May-2018_16:18:53 Exp 7311 20 2 R 3 5 7 immoralSelf immoralOther mismatch n n 1 0.4911 
12-May-2018_16:18:56 Exp 7311 20 2 R 3 5 8 moralSelf moralSelf match m m 1 0.6055 
12-May-2018_16:18:58 Exp 7311 20 2 R 3 5 9 moralSelf immoralSelf mismatch n n 1 0.5702 
12-May-2018_16:19:00 Exp 7311 20 2 R 3 5 10 moralSelf moralSelf match m m 1 0.4983 
12-May-2018_16:19:02 Exp 7311 20 2 R 3 5 11 moralOther moralOther match m m 1 0.5690 
12-May-2018_16:19:04 Exp 7311 20 2 R 3 5 12 immoralOther moralOther mismatch n n 1 0.5058 
12-May-2018_16:19:06 Exp 7311 20 2 R 3 5 13 immoralSelf immoralSelf match m m 1 0.4120 
12-May-2018_16:19:09 Exp 7311 20 2 R 3 5 14 moralSelf moralSelf match m n 0 0.4770 
12-May-2018_16:19:11 Exp 7311 20 2 R 3 5 15 moralOther immoralOther mismatch n n 1 0.5632 
12-May-2018_16:19:13 Exp 7311 20 2 R 3 5 16 immoralSelf moralSelf mismatch n n 1 0.5553 
12-May-2018_16:19:15 Exp 7311 20 2 R 3 5 17 moralOther moralOther match m m 1 0.4151 
12-May-2018_16:19:17 Exp 7311 20 2 R 3 5 18 immoralSelf immoralSelf match m m 1 0.5041 
12-May-2018_16:19:19 Exp 7311 20 2 R 3 5 19 immoralOther immoralOther match m m 1 0.7151 
12-May-2018_16:19:22 Exp 7311 20 2 R 3 5 20 moralOther immoralSelf mismatch n n 1 0.6902 
12-May-2018_16:19:24 Exp 7311 20 2 R 3 5 21 moralSelf moralOther mismatch n m 0 0.5326 
12-May-2018_16:19:26 Exp 7311 20 2 R 3 5 22 moralSelf immoralOther mismatch n n 1 0.8641 
12-May-2018_16:19:28 Exp 7311 20 2 R 3 5 23 immoralSelf moralSelf mismatch n m 0 0.4180 
12-May-2018_16:19:31 Exp 7311 20 2 R 3 5 24 immoralOther immoralOther match m m 1 0.5550 
Date Prac Sub Age Sex Hand Block Bin Trial Shape Label Match CorrResp Resp ACC RT
12-May-2018_16:23:48 Exp 7311 20 2 R 1 1 1 immoralOther moralSelf mismatch n n 1 0.4681 
12-May-2018_16:23:50 Exp 7311 20 2 R 1 1 2 immoralOther immoralOther match m m 1 0.6424 
12-May-2018_16:23:52 Exp 7311 20 2 R 1 1 3 immoralSelf immoralSelf match m m 1 0.5639 
12-May-2018_16:23:54 Exp 7311 20 2 R 1 1 4 moralSelf immoralSelf mismatch n n 1 0.5960 
12-May-2018_16:23:57 Exp 7311 20 2 R 1 1 5 moralOther moralOther match m m 1 0.4846 
12-May-2018_16:23:59 Exp 7311 20 2 R 1 1 6 immoralSelf immoralOther mismatch n n 1 0.4631 
12-May-2018_16:24:01 Exp 7311 20 2 R 1 1 7 moralOther moralOther match m m 1 0.5049 
12-May-2018_16:24:03 Exp 7311 20 2 R 1 1 8 moralOther immoralOther mismatch n n 1 0.4359 
12-May-2018_16:24:05 Exp 7311 20 2 R 1 1 9 immoralSelf immoralSelf match m m 1 0.3254 
12-May-2018_16:24:07 Exp 7311 20 2 R 1 1 10 moralSelf moralSelf match m m 1 0.6606 
12-May-2018_16:24:09 Exp 7311 20 2 R 1 1 11 moralSelf moralSelf match m n 0 0.4385 
12-May-2018_16:24:12 Exp 7311 20 2 R 1 1 12 immoralOther immoralSelf mismatch n n 1 0.7039 
12-May-2018_16:24:14 Exp 7311 20 2 R 1 1 13 immoralSelf moralSelf mismatch n m 0 0.3789 
12-May-2018_16:24:16 Exp 7311 20 2 R 1 1 14 moralSelf immoralOther mismatch n n 1 0.5752 
12-May-2018_16:24:18 Exp 7311 20 2 R 1 1 15 moralOther moralSelf mismatch n m 0 0.4035 
12-May-2018_16:24:20 Exp 7311 20 2 R 1 1 16 moralSelf moralOther mismatch n m 0 0.4163 
12-May-2018_16:24:22 Exp 7311 20 2 R 1 1 17 immoralOther immoralOther match m m 1 0.5613 
12-May-2018_16:24:24 Exp 7311 20 2 R 1 1 18 moralOther immoralOther mismatch n n 1 0.5492 
12-May-2018_16:24:26 Exp 7311 20 2 R 1 1 19 immoralOther moralOther mismatch n n 1 0.6128 
12-May-2018_16:24:28 Exp 7311 20 2 R 1 1 20 immoralSelf immoralSelf match m m 1 0.4299 
12-May-2018_16:24:31 Exp 7311 20 2 R 1 1 21 moralSelf moralSelf match m m 1 0.4831 
12-May-2018_16:24:33 Exp 7311 20 2 R 1 1 22 immoralSelf moralOther mismatch n n 1 0.5015 
12-May-2018_16:24:35 Exp 7311 20 2 R 1 1 23 moralOther moralOther match m m 1 0.5082 
12-May-2018_16:24:37 Exp 7311 20 2 R 1 1 24 immoralOther immoralOther match m m 1 0.5671 
12-May-2018_16:24:39 Exp 7311 20 2 R 1 2 1 immoralOther immoralOther match m m 1 0.6872 
12-May-2018_16:24:42 Exp 7311 20 2 R 1 2 2 immoralOther immoralSelf mismatch n n 1 0.5936 
12-May-2018_16:24:44 Exp 7311 20 2 R 1 2 3 immoralSelf immoralSelf match m m 1 0.4342 
12-May-2018_16:24:46 Exp 7311 20 2 R 1 2 4 moralSelf moralSelf match m m 1 0.4198 
12-May-2018_16:24:48 Exp 7311 20 2 R 1 2 5 immoralOther immoralSelf mismatch n m 0 0.5487 
12-May-2018_16:24:50 Exp 7311 20 2 R 1 2 6 immoralSelf moralOther mismatch n n 1 0.5244 
12-May-2018_16:24:52 Exp 7311 20 2 R 1 2 7 moralOther moralSelf mismatch n m 0 0.4915 
12-May-2018_16:24:54 Exp 7311 20 2 R 1 2 8 moralOther moralOther match m m 1 0.6261 
12-May-2018_16:24:57 Exp 7311 20 2 R 1 2 9 immoralOther moralOther mismatch n n 1 0.6073 
12-May-2018_16:24:59 Exp 7311 20 2 R 1 2 10 moralOther immoralSelf mismatch n n 1 0.5482 
12-May-2018_16:25:01 Exp 7311 20 2 R 1 2 11 immoralSelf immoralOther mismatch n n 1 0.5158 
12-May-2018_16:25:03 Exp 7311 20 2 R 1 2 12 immoralOther immoralOther match m m 1 0.7710 
12-May-2018_16:25:06 Exp 7311 20 2 R 1 2 13 immoralOther immoralOther match m m 1 0.5070 
12-May-2018_16:25:08 Exp 7311 20 2 R 1 2 14 moralOther moralOther match m m 1 0.5659 
12-May-2018_16:25:10 Exp 7311 20 2 R 1 2 15 moralSelf immoralSelf mismatch n m 0 0.4941 
12-May-2018_16:25:12 Exp 7311 20 2 R 1 2 16 moralSelf moralSelf match m m 1 0.5007 
12-May-2018_16:25:14 Exp 7311 20 2 R 1 2 17 immoralSelf immoralSelf match m m 1 0.4033 
12-May-2018_16:25:16 Exp 7311 20 2 R 1 2 18 moralOther moralOther match m n 0 0.5681 
12-May-2018_16:25:18 Exp 7311 20 2 R 1 2 19 immoralSelf immoralSelf match m m 1 0.5122 
12-May-2018_16:25:21 Exp 7311 20 2 R 1 2 20 moralOther moralSelf mismatch n m 0 0.7391 
12-May-2018_16:25:23 Exp 7311 20 2 R 1 2 21 moralSelf immoralOther mismatch n n 1 0.7628 
12-May-2018_16:25:25 Exp 7311 20 2 R 1 2 22 moralSelf moralSelf match m m 1 0.5389 
12-May-2018_16:25:27 Exp 7311 20 2 R 1 2 23 immoralSelf moralOther mismatch n n 1 0.4745 
12-May-2018_16:25:30 Exp 7311 20 2 R 1 2 24 moralSelf moralOther mismatch n m 0 0.4967 
Date Prac Sub Age Sex Hand Block Bin Trial Shape Label Match CorrResp Resp ACC RT
12-May-2018_16:29:40 Exp 7311 20 2 R 1 1 1 immoralOther immoralOther match m n 0 0.4241 
12-May-2018_16:29:42 Exp 7311 20 2 R 1 1 2 moralSelf moralOther mismatch n m 0 0.4934 
12-May-2018_16:29:44 Exp 7311 20 2 R 1 1 3 immoralSelf immoralSelf match m m 1 0.3561 
12-May-2018_16:29:46 Exp 7311 20 2 R 1 1 4 moralSelf immoralOther mismatch n n 1 0.5519 
12-May-2018_16:29:49 Exp 7311 20 2 R 1 1 5 immoralSelf immoralSelf match m m 1 0.4519 
12-May-2018_16:29:51 Exp 7311 20 2 R 1 1 6 moralSelf moralSelf match m m 1 0.5615 
12-May-2018_16:29:53 Exp 7311 20 2 R 1 1 7 immoralOther moralOther mismatch n n 1 0.4853 
12-May-2018_16:29:55 Exp 7311 20 2 R 1 1 8 moralOther moralOther match m m 1 0.5438 
12-May-2018_16:29:57 Exp 7311 20 2 R 1 1 9 immoralOther immoralSelf mismatch n n 1 0.6155 
12-May-2018_16:30:00 Exp 7311 20 2 R 1 1 10 moralOther immoralOther mismatch n n 1 0.6643 
12-May-2018_16:30:02 Exp 7311 20 2 R 1 1 11 immoralOther immoralOther match m m 1 0.5464 
12-May-2018_16:30:04 Exp 7311 20 2 R 1 1 12 moralOther immoralSelf mismatch n n 1 0.5300 
12-May-2018_16:30:06 Exp 7311 20 2 R 1 1 13 moralSelf moralSelf match m m 1 0.5494 
12-May-2018_16:30:08 Exp 7311 20 2 R 1 1 14 immoralOther immoralSelf mismatch n n 1 0.6130 
12-May-2018_16:30:11 Exp 7311 20 2 R 1 1 15 immoralSelf immoralSelf match m m 1 0.5340 
12-May-2018_16:30:13 Exp 7311 20 2 R 1 1 16 moralOther moralOther match m m 1 0.6414 
12-May-2018_16:30:15 Exp 7311 20 2 R 1 1 17 immoralOther immoralOther match m m 1 0.6030 
12-May-2018_16:30:17 Exp 7311 20 2 R 1 1 18 moralOther moralSelf mismatch n n 1 0.7197 
12-May-2018_16:30:20 Exp 7311 20 2 R 1 1 19 moralSelf moralSelf match m m 1 0.5828 
12-May-2018_16:30:22 Exp 7311 20 2 R 1 1 20 immoralSelf moralOther mismatch n n 1 0.5551 
12-May-2018_16:30:24 Exp 7311 20 2 R 1 1 21 moralSelf immoralSelf mismatch n n 1 0.6710 
12-May-2018_16:30:26 Exp 7311 20 2 R 1 1 22 immoralSelf moralOther mismatch n n 1 0.5252 
12-May-2018_16:30:29 Exp 7311 20 2 R 1 1 23 moralOther moralOther match m n 0 0.7085 
12-May-2018_16:30:31 Exp 7311 20 2 R 1 1 24 immoralSelf moralOther mismatch n n 1 0.5433 
12-May-2018_16:30:33 Exp 7311 20 2 R 1 2 1 immoralOther immoralSelf mismatch n n 1 0.5750 
12-May-2018_16:30:35 Exp 7311 20 2 R 1 2 2 moralSelf moralSelf match m m 1 0.5952 
12-May-2018_16:30:37 Exp 7311 20 2 R 1 2 3 moralSelf immoralOther mismatch n n 1 0.5318 
12-May-2018_16:30:40 Exp 7311 20 2 R 1 2 4 immoralOther immoralOther match m m 1 0.7112 
12-May-2018_16:30:42 Exp 7311 20 2 R 1 2 5 moralOther moralOther match m m 1 0.6261 
12-May-2018_16:30:44 Exp 7311 20 2 R 1 2 6 moralSelf moralSelf match m m 1 0.5994 
12-May-2018_16:30:46 Exp 7311 20 2 R 1 2 7 immoralOther immoralSelf mismatch n n 1 0.4441 
12-May-2018_16:30:48 Exp 7311 20 2 R 1 2 8 immoralOther immoralOther match m m 1 0.5817 
12-May-2018_16:30:51 Exp 7311 20 2 R 1 2 9 immoralSelf moralSelf mismatch n n 1 0.5141 
12-May-2018_16:30:53 Exp 7311 20 2 R 1 2 10 moralOther immoralOther mismatch n n 1 0.5889 
12-May-2018_16:30:55 Exp 7311 20 2 R 1 2 11 moralSelf moralOther mismatch n m 0 0.5014 
12-May-2018_16:30:57 Exp 7311 20 2 R 1 2 12 immoralSelf immoralSelf match m m 1 0.5561 
12-May-2018_16:30:59 Exp 7311 20 2 R 1 2 13 moralSelf immoralSelf mismatch n n 1 0.6560 
12-May-2018_16:31:02 Exp 7311 20 2 R 1 2 14 immoralSelf immoralOther mismatch n n 1 0.6259 
12-May-2018_16:31:04 Exp 7311 20 2 R 1 2 15 immoralSelf immoralSelf match m m 1 0.5991 
12-May-2018_16:31:06 Exp 7311 20 2 R 1 2 16 moralOther moralOther match m m 1 0.5000 
12-May-2018_16:31:08 Exp 7311 20 2 R 1 2 17 immoralSelf moralOther mismatch n n 1 0.4425 
12-May-2018_16:31:10 Exp 7311 20 2 R 1 2 18 moralOther immoralSelf mismatch n n 1 0.6442 
12-May-2018_16:31:13 Exp 7311 20 2 R 1 2 19 immoralOther immoralOther match m m 1 0.6019 
12-May-2018_16:31:15 Exp 7311 20 2 R 1 2 20 moralOther moralOther match m m 1 0.6467 
12-May-2018_16:31:17 Exp 7311 20 2 R 1 2 21 moralOther immoralOther mismatch n n 1 0.5244 
12-May-2018_16:31:19 Exp 7311 20 2 R 1 2 22 immoralOther immoralSelf mismatch n m 0 0.5955 
12-May-2018_16:31:22 Exp 7311 20 2 R 1 2 23 moralSelf moralSelf match m m 1 0.7402 
12-May-2018_16:31:24 Exp 7311 20 2 R 1 2 24 immoralSelf immoralSelf match m m 1 0.5877 
Date Prac Sub Age Sex Hand Block Bin Trial Shape Label Match CorrResp Resp ACC RT
12-May-2018_16:35:15 Exp 7311 20 2 R 1 1 1 moralOther moralOther match m m 1 0.5064 
12-May-2018_16:35:18 Exp 7311 20 2 R 1 1 2 immoralSelf immoralOther mismatch n n 1 0.5254 
12-May-2018_16:35:20 Exp 7311 20 2 R 1 1 3 immoralOther immoralOther match m m 1 0.7005 
12-May-2018_16:35:22 Exp 7311 20 2 R 1 1 4 moralSelf moralSelf match m n 0 0.6832 
12-May-2018_16:35:24 Exp 7311 20 2 R 1 1 5 immoralSelf moralOther mismatch n n 1 0.5016 
12-May-2018_16:35:27 Exp 7311 20 2 R 1 1 6 moralSelf immoralSelf mismatch n n 1 0.5163 
12-May-2018_16:35:29 Exp 7311 20 2 R 1 1 7 moralSelf moralOther mismatch n m 0 0.5634 
12-May-2018_16:35:31 Exp 7311 20 2 R 1 1 8 immoralSelf moralSelf mismatch n m 0 0.6675 
12-May-2018_16:35:33 Exp 7311 20 2 R 1 1 9 immoralOther moralOther mismatch n n 1 0.6295 
12-May-2018_16:35:36 Exp 7311 20 2 R 1 1 10 moralSelf moralSelf match m m 1 0.5548 
12-May-2018_16:35:38 Exp 7311 20 2 R 1 1 11 immoralOther immoralOther match m m 1 0.6226 
12-May-2018_16:35:40 Exp 7311 20 2 R 1 1 12 immoralSelf immoralSelf match m m 1 0.4518 
12-May-2018_16:35:42 Exp 7311 20 2 R 1 1 13 moralOther moralOther match m m 1 0.5775 
12-May-2018_16:35:44 Exp 7311 20 2 R 1 1 14 immoralOther immoralOther match m m 1 0.6059 
12-May-2018_16:35:47 Exp 7311 20 2 R 1 1 15 moralOther immoralSelf mismatch n n 1 0.7227 
12-May-2018_16:35:49 Exp 7311 20 2 R 1 1 16 moralOther immoralSelf mismatch n n 1 0.5619 
12-May-2018_16:35:51 Exp 7311 20 2 R 1 1 17 moralOther immoralOther mismatch n n 1 0.6979 
12-May-2018_16:35:54 Exp 7311 20 2 R 1 1 18 immoralOther immoralSelf mismatch n n 1 0.8326 
12-May-2018_16:35:56 Exp 7311 20 2 R 1 1 19 immoralSelf immoralSelf match m m 1 0.5141 
12-May-2018_16:35:58 Exp 7311 20 2 R 1 1 20 moralSelf immoralOther mismatch n n 1 0.5331 
12-May-2018_16:36:00 Exp 7311 20 2 R 1 1 21 immoralOther moralOther mismatch n n 1 0.5285 
12-May-2018_16:36:02 Exp 7311 20 2 R 1 1 22 immoralSelf immoralSelf match m m 1 0.4598 
12-May-2018_16:36:04 Exp 7311 20 2 R 1 1 23 moralSelf moralSelf match m m 1 0.5258 
12-May-2018_16:36:06 Exp 7311 20 2 R 1 1 24 moralOther moralOther match m n 0 0.4610 
12-May-2018_16:36:09 Exp 7311 20 2 R 1 2 1 immoralSelf immoralSelf match m m 1 0.5509 
12-May-2018_16:36:11 Exp 7311 20 2 R 1 2 2 moralSelf moralSelf match m m 1 0.6827 
12-May-2018_16:36:13 Exp 7311 20 2 R 1 2 3 moralOther moralOther match m m 1 0.6371 
12-May-2018_16:36:16 Exp 7311 20 2 R 1 2 4 moralOther moralSelf mismatch n n 1 0.8786 
12-May-2018_16:36:18 Exp 7311 20 2 R 1 2 5 moralOther moralSelf mismatch n n 1 0.6928 
12-May-2018_16:36:20 Exp 7311 20 2 R 1 2 6 moralOther moralSelf mismatch n n 1 0.5075 
12-May-2018_16:36:23 Exp 7311 20 2 R 1 2 7 immoralOther immoralSelf mismatch n n 1 0.6464 
12-May-2018_16:36:25 Exp 7311 20 2 R 1 2 8 immoralOther immoralOther match m m 1 0.6442 
12-May-2018_16:36:27 Exp 7311 20 2 R 1 2 9 moralOther moralOther match m m 1 0.5138 
12-May-2018_16:36:29 Exp 7311 20 2 R 1 2 10 moralSelf moralSelf match m m 1 0.6528 
12-May-2018_16:36:32 Exp 7311 20 2 R 1 2 11 immoralSelf immoralOther mismatch n n 1 0.6665 
12-May-2018_16:36:34 Exp 7311 20 2 R 1 2 12 moralSelf moralOther mismatch n m 0 0.5006 
12-May-2018_16:36:36 Exp 7311 20 2 R 1 2 13 moralOther moralOther match m m 1 0.5392 
12-May-2018_16:36:38 Exp 7311 20 2 R 1 2 14 immoralOther immoralOther match m m 1 0.5789 
12-May-2018_16:36:40 Exp 7311 20 2 R 1 2 15 immoralSelf immoralOther mismatch n n 1 0.5351 
12-May-2018_16:36:43 Exp 7311 20 2 R 1 2 16 immoralOther immoralSelf mismatch n m 0 0.7546 
12-May-2018_16:36:45 Exp 7311 20 2 R 1 2 17 immoralOther immoralOther match m m 1 0.5984 
12-May-2018_16:36:47 Exp 7311 20 2 R 1 2 18 moralSelf moralOther mismatch n m 0 0.6752 
12-May-2018_16:36:49 Exp 7311 20 2 R 1 2 19 moralSelf moralSelf match m m 1 0.4975 
12-May-2018_16:36:51 Exp 7311 20 2 R 1 2 20 immoralSelf moralOther mismatch n n 1 0.4801 
12-May-2018_16:36:54 Exp 7311 20 2 R 1 2 21 moralSelf moralOther mismatch n m 0 0.5385 
12-May-2018_16:36:56 Exp 7311 20 2 R 1 2 22 immoralSelf immoralSelf match m m 1 0.4102 
12-May-2018_16:36:58 Exp 7311 20 2 R 1 2 23 immoralOther moralSelf mismatch n n 1 0.5391 
12-May-2018_16:37:00 Exp 7311 20 2 R 1 2 24 immoralSelf immoralSelf match m m 1 0.6027 
Date Prac Sub Age Sex Hand Block Bin Trial Shape Label Match CorrResp Resp ACC RT
12-May-2018_16:40:51 Exp 7311 20 2 R 1 1 1 moralOther moralOther match m m 1 0.4423 
12-May-2018_16:40:53 Exp 7311 20 2 R 1 1 2 moralOther immoralSelf mismatch n n 1 0.4118 
12-May-2018_16:40:55 Exp 7311 20 2 R 1 1 3 moralSelf immoralOther mismatch n n 1 0.5691 
12-May-2018_16:40:57 Exp 7311 20 2 R 1 1 4 moralSelf moralSelf match m m 1 0.4252 
12-May-2018_16:40:59 Exp 7311 20 2 R 1 1 5 moralSelf immoralSelf mismatch n n 1 0.4785 
12-May-2018_16:41:01 Exp 7311 20 2 R 1 1 6 immoralOther immoralSelf mismatch n n 1 0.4606 
12-May-2018_16:41:03 Exp 7311 20 2 R 1 1 7 immoralSelf moralSelf mismatch n m 0 0.3266 
12-May-2018_16:41:05 Exp 7311 20 2 R 1 1 8 immoralSelf moralOther mismatch n n 1 0.4659 
12-May-2018_16:41:07 Exp 7311 20 2 R 1 1 9 immoralSelf immoralOther mismatch n n 1 0.5879 
12-May-2018_16:41:10 Exp 7311 20 2 R 1 1 10 immoralOther immoralOther match m m 1 0.6124 
12-May-2018_16:41:12 Exp 7311 20 2 R 1 1 11 immoralOther moralOther mismatch n n 1 0.7255 
12-May-2018_16:41:14 Exp 7311 20 2 R 1 1 12 moralSelf moralSelf match m m 1 0.5806 
12-May-2018_16:41:16 Exp 7311 20 2 R 1 1 13 immoralOther immoralOther match m m 1 0.6170 
12-May-2018_16:41:19 Exp 7311 20 2 R 1 1 14 moralSelf immoralOther mismatch n n 1 0.4901 
12-May-2018_16:41:21 Exp 7311 20 2 R 1 1 15 moralOther moralOther match m m 1 0.4764 
12-May-2018_16:41:23 Exp 7311 20 2 R 1 1 16 immoralSelf immoralSelf match m m 1 0.4827 
12-May-2018_16:41:25 Exp 7311 20 2 R 1 1 17 moralOther immoralOther mismatch n n 1 0.5411 
12-May-2018_16:41:27 Exp 7311 20 2 R 1 1 18 immoralOther moralOther mismatch n n 1 0.6447 
12-May-2018_16:41:29 Exp 7311 20 2 R 1 1 19 moralOther moralOther match m m 1 0.4424 
12-May-2018_16:41:31 Exp 7311 20 2 R 1 1 20 immoralOther immoralOther match m m 1 0.5640 
12-May-2018_16:41:34 Exp 7311 20 2 R 1 1 21 moralSelf moralSelf match m m 1 0.5880 
12-May-2018_16:41:36 Exp 7311 20 2 R 1 1 22 immoralSelf immoralSelf match m m 1 0.4686 
12-May-2018_16:41:38 Exp 7311 20 2 R 1 1 23 immoralSelf immoralSelf match m m 1 0.4507 
12-May-2018_16:41:40 Exp 7311 20 2 R 1 1 24 moralOther moralSelf mismatch n m 0 0.6005 
12-May-2018_16:41:42 Exp 7311 20 2 R 1 2 1 moralSelf moralSelf match m m 1 0.4612 
12-May-2018_16:41:44 Exp 7311 20 2 R 1 2 2 immoralOther immoralSelf mismatch n n 1 0.4473 
12-May-2018_16:41:46 Exp 7311 20 2 R 1 2 3 immoralSelf immoralSelf match m m 1 0.4050 
12-May-2018_16:41:48 Exp 7311 20 2 R 1 2 4 immoralSelf immoralSelf match m m 1 0.4177 
12-May-2018_16:41:50 Exp 7311 20 2 R 1 2 5 immoralSelf immoralSelf match m m 1 0.4508 
12-May-2018_16:41:53 Exp 7311 20 2 R 1 2 6 moralSelf immoralOther mismatch n n 1 0.5205 
12-May-2018_16:41:55 Exp 7311 20 2 R 1 2 7 immoralOther immoralSelf mismatch n n 1 0.6877 
12-May-2018_16:41:57 Exp 7311 20 2 R 1 2 8 immoralOther immoralOther match m m 1 0.6581 
12-May-2018_16:42:00 Exp 7311 20 2 R 1 2 9 moralOther moralOther match m m 1 0.6521 
12-May-2018_16:42:02 Exp 7311 20 2 R 1 2 10 moralOther moralOther match m n 0 0.6898 
12-May-2018_16:42:04 Exp 7311 20 2 R 1 2 11 immoralOther immoralOther match m m 1 0.5882 
12-May-2018_16:42:06 Exp 7311 20 2 R 1 2 12 moralOther moralSelf mismatch n n 1 0.5488 
12-May-2018_16:42:09 Exp 7311 20 2 R 1 2 13 moralOther immoralSelf mismatch n n 1 0.6924 
12-May-2018_16:42:11 Exp 7311 20 2 R 1 2 14 moralSelf immoralOther mismatch n n 1 0.5871 
12-May-2018_16:42:13 Exp 7311 20 2 R 1 2 15 moralSelf immoralOther mismatch n n 1 0.5316 
12-May-2018_16:42:15 Exp 7311 20 2 R 1 2 16 moralOther moralOther match m m 1 0.5590 
12-May-2018_16:42:17 Exp 7311 20 2 R 1 2 17 moralSelf moralSelf match m m 1 0.6908 
12-May-2018_16:42:20 Exp 7311 20 2 R 1 2 18 moralOther immoralSelf mismatch n n 1 0.5333 
12-May-2018_16:42:22 Exp 7311 20 2 R 1 2 19 immoralOther immoralOther match m m 1 0.7047 
12-May-2018_16:42:24 Exp 7311 20 2 R 1 2 20 immoralSelf moralOther mismatch n n 1 0.4756 
12-May-2018_16:42:26 Exp 7311 20 2 R 1 2 21 immoralSelf moralOther mismatch n n 1 0.5218 
12-May-2018_16:42:28 Exp 7311 20 2 R 1 2 22 moralSelf moralSelf match m m 1 0.5450 
12-May-2018_16:42:30 Exp 7311 20 2 R 1 2 23 immoralSelf immoralOther mismatch n n 1 0.4646 
12-May-2018_16:42:33 Exp 7311 20 2 R 1 2 24 immoralOther moralOther mismatch n n 1 0.5226 
Date Prac Sub Age Sex Hand Block Bin Trial Shape Label Match CorrResp Resp ACC RT
12-May-2018_16:46:34 Exp 7311 20 2 R 1 1 1 immoralSelf immoralSelf match m m 1 0.3915 
12-May-2018_16:46:37 Exp 7311 20 2 R 1 1 2 moralSelf immoralSelf mismatch n n 1 0.5763 
12-May-2018_16:46:39 Exp 7311 20 2 R 1 1 3 immoralOther immoralOther match m m 1 0.6206 
12-May-2018_16:46:41 Exp 7311 20 2 R 1 1 4 moralOther immoralSelf mismatch n n 1 0.5379 
12-May-2018_16:46:43 Exp 7311 20 2 R 1 1 5 moralSelf moralSelf match m m 1 0.5573 
12-May-2018_16:46:45 Exp 7311 20 2 R 1 1 6 moralSelf moralSelf match m n 0 0.4491 
12-May-2018_16:46:47 Exp 7311 20 2 R 1 1 7 moralSelf immoralSelf mismatch n n 1 0.4628 
12-May-2018_16:46:50 Exp 7311 20 2 R 1 1 8 immoralSelf moralOther mismatch n n 1 0.7368 
12-May-2018_16:46:52 Exp 7311 20 2 R 1 1 9 moralOther moralOther match m m 1 0.4761 
12-May-2018_16:46:54 Exp 7311 20 2 R 1 1 10 moralSelf moralSelf match m m 1 0.6265 
12-May-2018_16:46:56 Exp 7311 20 2 R 1 1 11 immoralOther moralOther mismatch n n 1 0.5357 
12-May-2018_16:46:59 Exp 7311 20 2 R 1 1 12 moralOther moralSelf mismatch n m 0 0.5230 
12-May-2018_16:47:01 Exp 7311 20 2 R 1 1 13 immoralSelf immoralSelf match m m 1 0.4901 
12-May-2018_16:47:03 Exp 7311 20 2 R 1 1 14 immoralOther moralSelf mismatch n n 1 0.5247 
12-May-2018_16:47:05 Exp 7311 20 2 R 1 1 15 moralOther moralOther match m m 1 0.5717 
12-May-2018_16:47:07 Exp 7311 20 2 R 1 1 16 moralOther immoralOther mismatch n n 1 0.4598 
12-May-2018_16:47:09 Exp 7311 20 2 R 1 1 17 immoralSelf immoralOther mismatch n n 1 0.7017 
12-May-2018_16:47:12 Exp 7311 20 2 R 1 1 18 immoralOther immoralOther match m m 1 0.5565 
12-May-2018_16:47:14 Exp 7311 20 2 R 1 1 19 immoralOther immoralOther match m m 1 0.5203 
12-May-2018_16:47:16 Exp 7311 20 2 R 1 1 20 immoralSelf immoralSelf match m m 1 0.5754 
12-May-2018_16:47:18 Exp 7311 20 2 R 1 1 21 immoralSelf moralOther mismatch n n 1 0.4757 
12-May-2018_16:47:20 Exp 7311 20 2 R 1 1 22 moralOther moralOther match m m 1 0.6740 
12-May-2018_16:47:23 Exp 7311 20 2 R 1 1 23 moralSelf moralOther mismatch n n 1 0.7122 
12-May-2018_16:47:25 Exp 7311 20 2 R 1 1 24 immoralOther moralOther mismatch n n 1 0.6591 
12-May-2018_16:47:27 Exp 7311 20 2 R 1 2 1 immoralOther immoralOther match m m 1 0.5250 
12-May-2018_16:47:29 Exp 7311 20 2 R 1 2 2 immoralSelf immoralSelf match m m 1 0.5162 
12-May-2018_16:47:32 Exp 7311 20 2 R 1 2 3 immoralOther immoralOther match m m 1 0.6193 
12-May-2018_16:47:34 Exp 7311 20 2 R 1 2 4 moralSelf immoralOther mismatch n n 1 0.5644 
12-May-2018_16:47:36 Exp 7311 20 2 R 1 2 5 immoralOther moralOther mismatch n n 1 0.5644 
12-May-2018_16:47:38 Exp 7311 20 2 R 1 2 6 immoralSelf moralOther mismatch n n 1 0.5165 
12-May-2018_16:47:40 Exp 7311 20 2 R 1 2 7 moralSelf moralSelf match m m 1 0.5237 
12-May-2018_16:47:42 Exp 7311 20 2 R 1 2 8 immoralSelf immoralSelf match m m 1 0.5709 
12-May-2018_16:47:45 Exp 7311 20 2 R 1 2 9 immoralSelf moralSelf mismatch n n 1 0.4909 
12-May-2018_16:47:47 Exp 7311 20 2 R 1 2 10 moralSelf immoralOther mismatch n n 1 0.5813 
12-May-2018_16:47:49 Exp 7311 20 2 R 1 2 11 moralOther moralOther match m m 1 0.5537 
12-May-2018_16:47:51 Exp 7311 20 2 R 1 2 12 moralOther immoralSelf mismatch n n 1 0.6776 
12-May-2018_16:47:54 Exp 7311 20 2 R 1 2 13 moralSelf immoralSelf mismatch n n 1 0.5717 
12-May-2018_16:47:56 Exp 7311 20 2 R 1 2 14 moralOther moralOther match m m 1 0.4838 
12-May-2018_16:47:58 Exp 7311 20 2 R 1 2 15 immoralSelf immoralOther mismatch n n 1 0.5103 
12-May-2018_16:48:00 Exp 7311 20 2 R 1 2 16 moralSelf moralSelf match m m 1 0.6251 
12-May-2018_16:48:02 Exp 7311 20 2 R 1 2 17 moralOther moralSelf mismatch n n 1 0.6544 
12-May-2018_16:48:05 Exp 7311 20 2 R 1 2 18 immoralOther moralOther mismatch n n 1 0.6042 
12-May-2018_16:48:07 Exp 7311 20 2 R 1 2 19 immoralOther immoralOther match m m 1 0.5689 
12-May-2018_16:48:09 Exp 7311 20 2 R 1 2 20 immoralSelf immoralSelf match m m 1 0.5770 
12-May-2018_16:48:11 Exp 7311 20 2 R 1 2 21 moralOther moralOther match m m 1 0.5013 
12-May-2018_16:48:13 Exp 7311 20 2 R 1 2 22 moralOther immoralSelf mismatch n n 1 0.4680 
12-May-2018_16:48:15 Exp 7311 20 2 R 1 2 23 moralSelf moralSelf match m m 1 0.4102 
12-May-2018_16:48:17 Exp 7311 20 2 R 1 2 24 immoralOther immoralSelf mismatch n m 0 0.4912 
