Date Sub Age Sex Hand Block Bin Trial Task Shape corrResp Resp ACC RT
20-May-2018_16:52:41 7326 20 male R 1 1 1 self immoralOther J NA -1 1.0260 
20-May-2018_16:52:43 7326 20 male R 1 1 2 self immoralSelf H NA -1 1.0260 
20-May-2018_16:52:45 7326 20 male R 1 1 3 self immoralOther J j 1 0.6030 
20-May-2018_16:52:47 7326 20 male R 1 1 4 self moralOther J j 1 0.7271 
20-May-2018_16:52:49 7326 20 male R 1 1 5 self moralSelf H h 1 0.5192 
20-May-2018_16:52:51 7326 20 male R 1 1 6 self immoralSelf H h 1 0.5633 
20-May-2018_16:52:53 7326 20 male R 1 1 7 self moralSelf H h 1 0.5514 
20-May-2018_16:52:54 7326 20 male R 1 1 8 self immoralSelf H h 1 0.5155 
20-May-2018_16:52:56 7326 20 male R 1 1 9 self moralSelf H h 1 0.5416 
20-May-2018_16:52:58 7326 20 male R 1 1 10 self immoralOther J j 1 0.5117 
20-May-2018_16:52:59 7326 20 male R 1 1 11 self moralOther J j 1 0.4638 
20-May-2018_16:53:01 7326 20 male R 1 1 12 self moralOther J j 1 0.4619 
20-May-2018_16:53:03 7326 20 male R 1 1 13 self moralSelf H j 0 0.4280 
20-May-2018_16:53:05 7326 20 male R 1 1 14 self immoralOther J j 1 0.7001 
20-May-2018_16:53:06 7326 20 male R 1 1 15 self immoralSelf H h 1 0.4562 
20-May-2018_16:53:08 7326 20 male R 1 1 16 self moralOther J j 1 0.5342 
20-May-2018_16:53:10 7326 20 male R 1 1 17 self immoralOther J j 1 0.9104 
20-May-2018_16:53:12 7326 20 male R 1 1 18 self moralSelf H h 1 0.5285 
20-May-2018_16:53:14 7326 20 male R 1 1 19 self moralOther J j 1 0.6246 
20-May-2018_16:53:15 7326 20 male R 1 1 20 self immoralSelf H h 1 0.5888 
20-May-2018_16:53:17 7326 20 male R 1 1 21 self immoralSelf H h 1 0.4651 
20-May-2018_16:53:19 7326 20 male R 1 1 22 self moralSelf H h 1 0.4470 
20-May-2018_16:53:21 7326 20 male R 1 1 23 self immoralOther J j 1 0.5350 
20-May-2018_16:53:22 7326 20 male R 1 1 24 self moralOther J j 1 0.4171 
20-May-2018_16:53:24 7326 20 male R 1 2 1 self moralOther J j 1 0.4832 
20-May-2018_16:53:26 7326 20 male R 1 2 2 self immoralSelf H h 1 0.4913 
20-May-2018_16:53:27 7326 20 male R 1 2 3 self moralSelf H h 1 0.4334 
20-May-2018_16:53:29 7326 20 male R 1 2 4 self moralOther J j 1 0.4198 
20-May-2018_16:53:31 7326 20 male R 1 2 5 self moralOther J j 1 0.4097 
20-May-2018_16:53:32 7326 20 male R 1 2 6 self moralSelf H j 0 0.3718 
20-May-2018_16:53:34 7326 20 male R 1 2 7 self moralOther J j 1 0.5257 
20-May-2018_16:53:36 7326 20 male R 1 2 8 self immoralOther J j 1 0.6140 
20-May-2018_16:53:38 7326 20 male R 1 2 9 self immoralOther J j 1 0.3900 
20-May-2018_16:53:40 7326 20 male R 1 2 10 self immoralSelf H h 1 0.5595 
20-May-2018_16:53:42 7326 20 male R 1 2 11 self immoralOther J j 1 0.5583 
20-May-2018_16:53:43 7326 20 male R 1 2 12 self moralSelf H h 1 0.5303 
20-May-2018_16:53:45 7326 20 male R 1 2 13 self immoralSelf H h 1 0.7245 
20-May-2018_16:53:47 7326 20 male R 1 2 14 self immoralSelf H h 1 0.4886 
20-May-2018_16:53:49 7326 20 male R 1 2 15 self moralSelf H h 1 0.7427 
20-May-2018_16:53:50 7326 20 male R 1 2 16 self moralOther J j 1 0.3307 
20-May-2018_16:53:52 7326 20 male R 1 2 17 self immoralSelf H h 1 0.6329 
20-May-2018_16:53:54 7326 20 male R 1 2 18 self immoralOther J j 1 0.6889 
20-May-2018_16:53:55 7326 20 male R 1 2 19 self moralSelf H h 1 0.4831 
20-May-2018_16:53:57 7326 20 male R 1 2 20 self immoralOther J j 1 0.7071 
20-May-2018_16:53:59 7326 20 male R 1 2 21 self immoralSelf H h 1 0.5271 
20-May-2018_16:54:00 7326 20 male R 1 2 22 self immoralOther J j 1 0.4893 
20-May-2018_16:54:02 7326 20 male R 1 2 23 self moralOther J j 1 0.3534 
20-May-2018_16:54:04 7326 20 male R 1 2 24 self moralSelf H h 1 0.4676 
20-May-2018_16:54:24 7326 20 male R 1 3 1 self moralOther J j 1 0.5086 
20-May-2018_16:54:26 7326 20 male R 1 3 2 self immoralSelf H h 1 0.5507 
20-May-2018_16:54:28 7326 20 male R 1 3 3 self immoralSelf H h 1 0.6048 
20-May-2018_16:54:30 7326 20 male R 1 3 4 self moralSelf H h 1 0.7010 
20-May-2018_16:54:31 7326 20 male R 1 3 5 self immoralOther J j 1 0.5333 
20-May-2018_16:54:33 7326 20 male R 1 3 6 self moralSelf H h 1 0.6831 
20-May-2018_16:54:35 7326 20 male R 1 3 7 self moralSelf H h 1 0.4552 
20-May-2018_16:54:37 7326 20 male R 1 3 8 self immoralSelf H h 1 0.6833 
20-May-2018_16:54:39 7326 20 male R 1 3 9 self immoralSelf H h 1 0.4695 
20-May-2018_16:54:40 7326 20 male R 1 3 10 self immoralSelf H h 1 0.4355 
20-May-2018_16:54:42 7326 20 male R 1 3 11 self immoralOther J j 1 0.4517 
20-May-2018_16:54:44 7326 20 male R 1 3 12 self immoralOther J j 1 0.5478 
20-May-2018_16:54:45 7326 20 male R 1 3 13 self immoralOther J j 1 0.5058 
20-May-2018_16:54:47 7326 20 male R 1 3 14 self moralOther J j 1 0.4019 
20-May-2018_16:54:49 7326 20 male R 1 3 15 self immoralOther J j 1 0.4360 
20-May-2018_16:54:50 7326 20 male R 1 3 16 self immoralOther J j 1 0.3362 
20-May-2018_16:54:52 7326 20 male R 1 3 17 self immoralSelf H h 1 0.5063 
20-May-2018_16:54:53 7326 20 male R 1 3 18 self moralOther J j 1 0.3683 
20-May-2018_16:54:55 7326 20 male R 1 3 19 self moralOther J j 1 0.4244 
20-May-2018_16:54:56 7326 20 male R 1 3 20 self moralSelf H h 1 0.4624 
20-May-2018_16:54:58 7326 20 male R 1 3 21 self moralSelf H h 1 0.4706 
20-May-2018_16:55:00 7326 20 male R 1 3 22 self moralOther J j 1 0.4288 
20-May-2018_16:55:01 7326 20 male R 1 3 23 self moralOther J j 1 0.3549 
20-May-2018_16:55:03 7326 20 male R 1 3 24 self moralSelf H h 1 0.4509 
20-May-2018_16:55:05 7326 20 male R 1 4 1 self immoralSelf H h 1 0.5009 
20-May-2018_16:55:06 7326 20 male R 1 4 2 self immoralSelf H h 1 0.4071 
20-May-2018_16:55:08 7326 20 male R 1 4 3 self immoralSelf H h 1 0.4371 
20-May-2018_16:55:10 7326 20 male R 1 4 4 self immoralOther J j 1 0.4052 
20-May-2018_16:55:12 7326 20 male R 1 4 5 self moralOther J j 1 0.4413 
20-May-2018_16:55:13 7326 20 male R 1 4 6 self moralOther J j 1 0.4215 
20-May-2018_16:55:15 7326 20 male R 1 4 7 self moralOther J j 1 0.3500 
20-May-2018_16:55:17 7326 20 male R 1 4 8 self moralSelf H h 1 0.6097 
20-May-2018_16:55:19 7326 20 male R 1 4 9 self immoralSelf H h 1 0.5657 
20-May-2018_16:55:21 7326 20 male R 1 4 10 self immoralSelf H h 1 0.4279 
20-May-2018_16:55:22 7326 20 male R 1 4 11 self moralSelf H h 1 0.4419 
20-May-2018_16:55:24 7326 20 male R 1 4 12 self immoralSelf H h 1 0.5000 
20-May-2018_16:55:26 7326 20 male R 1 4 13 self moralOther J j 1 0.3022 
20-May-2018_16:55:27 7326 20 male R 1 4 14 self immoralOther J h 0 0.4082 
20-May-2018_16:55:29 7326 20 male R 1 4 15 self moralSelf H h 1 0.5543 
20-May-2018_16:55:31 7326 20 male R 1 4 16 self moralSelf H h 1 0.4785 
20-May-2018_16:55:33 7326 20 male R 1 4 17 self immoralOther J j 1 0.4526 
20-May-2018_16:55:34 7326 20 male R 1 4 18 self immoralOther J h 0 0.4028 
20-May-2018_16:55:36 7326 20 male R 1 4 19 self moralSelf H h 1 0.4588 
20-May-2018_16:55:38 7326 20 male R 1 4 20 self immoralOther J j 1 0.5148 
20-May-2018_16:55:39 7326 20 male R 1 4 21 self immoralOther J j 1 0.4450 
20-May-2018_16:55:41 7326 20 male R 1 4 22 self moralOther J j 1 0.5230 
20-May-2018_16:55:43 7326 20 male R 1 4 23 self moralSelf H h 1 0.5911 
20-May-2018_16:55:45 7326 20 male R 1 4 24 self moralOther J j 1 0.5232 
20-May-2018_16:56:10 7326 20 male R 1 5 1 self moralOther J j 1 0.4706 
20-May-2018_16:56:11 7326 20 male R 1 5 2 self immoralOther J j 1 0.4607 
20-May-2018_16:56:13 7326 20 male R 1 5 3 self immoralOther J j 1 0.4529 
20-May-2018_16:56:15 7326 20 male R 1 5 4 self immoralSelf H h 1 0.5729 
20-May-2018_16:56:17 7326 20 male R 1 5 5 self moralOther J j 1 0.4930 
20-May-2018_16:56:19 7326 20 male R 1 5 6 self moralSelf H h 1 0.4451 
20-May-2018_16:56:21 7326 20 male R 1 5 7 self immoralOther J j 1 0.4893 
20-May-2018_16:56:22 7326 20 male R 1 5 8 self moralSelf H h 1 0.5594 
20-May-2018_16:56:24 7326 20 male R 1 5 9 self immoralSelf H h 1 0.5075 
20-May-2018_16:56:26 7326 20 male R 1 5 10 self immoralOther J j 1 0.5436 
20-May-2018_16:56:27 7326 20 male R 1 5 11 self moralSelf H j 0 0.4197 
20-May-2018_16:56:29 7326 20 male R 1 5 12 self moralOther J j 1 0.5197 
20-May-2018_16:56:30 7326 20 male R 1 5 13 self moralSelf H j 0 0.4939 
20-May-2018_16:56:32 7326 20 male R 1 5 14 self immoralSelf H h 1 0.4559 
20-May-2018_16:56:34 7326 20 male R 1 5 15 self moralOther J j 1 0.4600 
20-May-2018_16:56:35 7326 20 male R 1 5 16 self immoralSelf H h 1 0.5801 
20-May-2018_16:56:37 7326 20 male R 1 5 17 self immoralSelf H h 1 0.4543 
20-May-2018_16:56:39 7326 20 male R 1 5 18 self moralSelf H h 1 0.5444 
20-May-2018_16:56:41 7326 20 male R 1 5 19 self immoralOther J j 1 0.6144 
20-May-2018_16:56:43 7326 20 male R 1 5 20 self moralSelf H h 1 0.4705 
20-May-2018_16:56:44 7326 20 male R 1 5 21 self immoralSelf H h 1 0.4866 
20-May-2018_16:56:46 7326 20 male R 1 5 22 self moralOther J j 1 0.4808 
20-May-2018_16:56:48 7326 20 male R 1 5 23 self moralOther J j 1 0.5128 
20-May-2018_16:56:50 7326 20 male R 1 5 24 self immoralOther J j 1 0.6069 
Date Sub Age Sex Hand Block Bin Trial Task Shape corrResp Resp ACC RT
20-May-2018_17:00:47 7326 20 male R 2 1 1 moral moralOther U u 1 0.5525 
20-May-2018_17:00:49 7326 20 male R 2 1 2 moral immoralOther Y y 1 0.7406 
20-May-2018_17:00:51 7326 20 male R 2 1 3 moral immoralOther Y y 1 0.5247 
20-May-2018_17:00:53 7326 20 male R 2 1 4 moral moralSelf U u 1 0.8368 
20-May-2018_17:00:55 7326 20 male R 2 1 5 moral immoralSelf Y y 1 0.6549 
20-May-2018_17:00:57 7326 20 male R 2 1 6 moral moralSelf U u 1 0.8070 
20-May-2018_17:00:59 7326 20 male R 2 1 7 moral moralOther U u 1 0.4051 
20-May-2018_17:01:01 7326 20 male R 2 1 8 moral immoralSelf Y y 1 0.5052 
20-May-2018_17:01:02 7326 20 male R 2 1 9 moral immoralSelf Y y 1 0.5533 
20-May-2018_17:01:04 7326 20 male R 2 1 10 moral immoralOther Y y 1 0.9214 
20-May-2018_17:01:06 7326 20 male R 2 1 11 moral moralSelf U u 1 0.5596 
20-May-2018_17:01:08 7326 20 male R 2 1 12 moral moralSelf U u 1 0.7137 
20-May-2018_17:01:10 7326 20 male R 2 1 13 moral immoralSelf Y y 1 0.5778 
20-May-2018_17:01:12 7326 20 male R 2 1 14 moral immoralOther Y NA -1 1.0260 
20-May-2018_17:01:14 7326 20 male R 2 1 15 moral moralOther U u 1 0.4379 
20-May-2018_17:01:15 7326 20 male R 2 1 16 moral moralOther U u 1 0.4121 
20-May-2018_17:01:17 7326 20 male R 2 1 17 moral moralOther U u 1 0.4803 
20-May-2018_17:01:19 7326 20 male R 2 1 18 moral moralSelf U u 1 0.7023 
20-May-2018_17:01:21 7326 20 male R 2 1 19 moral moralOther U u 1 0.6025 
20-May-2018_17:01:23 7326 20 male R 2 1 20 moral immoralOther Y u 0 0.5046 
20-May-2018_17:01:24 7326 20 male R 2 1 21 moral moralSelf U u 1 0.6446 
20-May-2018_17:01:26 7326 20 male R 2 1 22 moral immoralSelf Y y 1 0.4547 
20-May-2018_17:01:28 7326 20 male R 2 1 23 moral immoralOther Y y 1 0.5288 
20-May-2018_17:01:30 7326 20 male R 2 1 24 moral immoralSelf Y y 1 0.4369 
20-May-2018_17:01:32 7326 20 male R 2 2 1 moral moralOther U u 1 0.5150 
20-May-2018_17:01:33 7326 20 male R 2 2 2 moral moralSelf U u 1 0.5492 
20-May-2018_17:01:35 7326 20 male R 2 2 3 moral immoralSelf Y y 1 0.5233 
20-May-2018_17:01:37 7326 20 male R 2 2 4 moral moralOther U u 1 0.3573 
20-May-2018_17:01:39 7326 20 male R 2 2 5 moral immoralOther Y y 1 1.0094 
20-May-2018_17:01:41 7326 20 male R 2 2 6 moral immoralOther Y y 1 0.5175 
20-May-2018_17:01:43 7326 20 male R 2 2 7 moral immoralSelf Y y 1 0.6096 
20-May-2018_17:01:44 7326 20 male R 2 2 8 moral immoralOther Y y 1 0.6798 
20-May-2018_17:01:46 7326 20 male R 2 2 9 moral immoralOther Y y 1 0.6798 
20-May-2018_17:01:48 7326 20 male R 2 2 10 moral moralSelf U u 1 0.6499 
20-May-2018_17:01:50 7326 20 male R 2 2 11 moral moralOther U u 1 0.4261 
20-May-2018_17:01:52 7326 20 male R 2 2 12 moral moralOther U u 1 0.3821 
20-May-2018_17:01:54 7326 20 male R 2 2 13 moral immoralOther Y y 1 0.5602 
20-May-2018_17:01:55 7326 20 male R 2 2 14 moral immoralSelf Y y 1 0.5863 
20-May-2018_17:01:57 7326 20 male R 2 2 15 moral moralSelf U u 1 0.6264 
20-May-2018_17:01:59 7326 20 male R 2 2 16 moral immoralSelf Y y 1 0.6026 
20-May-2018_17:02:01 7326 20 male R 2 2 17 moral moralOther U u 1 0.4288 
20-May-2018_17:02:03 7326 20 male R 2 2 18 moral moralSelf U u 1 0.6848 
20-May-2018_17:02:05 7326 20 male R 2 2 19 moral moralSelf U u 1 0.5550 
20-May-2018_17:02:07 7326 20 male R 2 2 20 moral immoralOther Y y 1 0.6471 
20-May-2018_17:02:09 7326 20 male R 2 2 21 moral immoralSelf Y y 1 0.5251 
20-May-2018_17:02:10 7326 20 male R 2 2 22 moral moralSelf U u 1 0.6312 
20-May-2018_17:02:12 7326 20 male R 2 2 23 moral immoralSelf Y y 1 0.6333 
20-May-2018_17:02:14 7326 20 male R 2 2 24 moral moralOther U u 1 0.4714 
20-May-2018_17:02:35 7326 20 male R 2 3 1 moral moralSelf U u 1 0.7686 
20-May-2018_17:02:36 7326 20 male R 2 3 2 moral immoralSelf Y y 1 0.4767 
20-May-2018_17:02:38 7326 20 male R 2 3 3 moral moralOther U u 1 0.4328 
20-May-2018_17:02:39 7326 20 male R 2 3 4 moral moralOther U u 1 0.4588 
20-May-2018_17:02:41 7326 20 male R 2 3 5 moral moralSelf U u 1 0.5989 
20-May-2018_17:02:43 7326 20 male R 2 3 6 moral immoralSelf Y y 1 0.4631 
20-May-2018_17:02:45 7326 20 male R 2 3 7 moral immoralOther Y y 1 0.9832 
20-May-2018_17:02:47 7326 20 male R 2 3 8 moral moralOther U u 1 0.3273 
20-May-2018_17:02:49 7326 20 male R 2 3 9 moral immoralSelf Y y 1 0.4894 
20-May-2018_17:02:51 7326 20 male R 2 3 10 moral moralSelf U u 1 0.5636 
20-May-2018_17:02:52 7326 20 male R 2 3 11 moral immoralOther Y y 1 0.4076 
20-May-2018_17:02:54 7326 20 male R 2 3 12 moral immoralOther Y y 1 0.5697 
20-May-2018_17:02:56 7326 20 male R 2 3 13 moral immoralSelf Y y 1 0.4778 
20-May-2018_17:02:58 7326 20 male R 2 3 14 moral moralOther U u 1 0.3699 
20-May-2018_17:02:59 7326 20 male R 2 3 15 moral immoralSelf Y y 1 0.4300 
20-May-2018_17:03:01 7326 20 male R 2 3 16 moral moralSelf U u 1 0.6122 
20-May-2018_17:03:03 7326 20 male R 2 3 17 moral moralOther U u 1 0.4562 
20-May-2018_17:03:05 7326 20 male R 2 3 18 moral immoralOther Y y 1 0.6903 
20-May-2018_17:03:07 7326 20 male R 2 3 19 moral immoralOther Y y 1 0.4025 
20-May-2018_17:03:08 7326 20 male R 2 3 20 moral immoralOther Y y 1 0.4806 
20-May-2018_17:03:10 7326 20 male R 2 3 21 moral immoralSelf Y y 1 0.7026 
20-May-2018_17:03:12 7326 20 male R 2 3 22 moral moralOther U u 1 0.4867 
20-May-2018_17:03:14 7326 20 male R 2 3 23 moral moralSelf U u 1 0.5988 
20-May-2018_17:03:16 7326 20 male R 2 3 24 moral moralSelf U y 0 0.4550 
20-May-2018_17:03:18 7326 20 male R 2 4 1 moral moralOther U u 1 0.4372 
20-May-2018_17:03:19 7326 20 male R 2 4 2 moral immoralOther Y y 1 0.3772 
20-May-2018_17:03:21 7326 20 male R 2 4 3 moral moralOther U u 1 0.7172 
20-May-2018_17:03:22 7326 20 male R 2 4 4 moral moralOther U u 1 0.3913 
20-May-2018_17:03:24 7326 20 male R 2 4 5 moral moralSelf U u 1 0.3854 
20-May-2018_17:03:26 7326 20 male R 2 4 6 moral immoralSelf Y y 1 0.4515 
20-May-2018_17:03:27 7326 20 male R 2 4 7 moral moralSelf U u 1 0.5236 
20-May-2018_17:03:29 7326 20 male R 2 4 8 moral immoralSelf Y y 1 0.5857 
20-May-2018_17:03:31 7326 20 male R 2 4 9 moral immoralSelf Y y 1 0.6738 
20-May-2018_17:03:33 7326 20 male R 2 4 10 moral moralSelf U u 1 0.6779 
20-May-2018_17:03:35 7326 20 male R 2 4 11 moral immoralOther Y y 1 0.6261 
20-May-2018_17:03:37 7326 20 male R 2 4 12 moral immoralOther Y y 1 0.9882 
20-May-2018_17:03:39 7326 20 male R 2 4 13 moral immoralSelf Y y 1 0.5148 
20-May-2018_17:03:40 7326 20 male R 2 4 14 moral moralOther U u 1 0.5303 
20-May-2018_17:03:42 7326 20 male R 2 4 15 moral immoralSelf Y y 1 0.5305 
20-May-2018_17:03:44 7326 20 male R 2 4 16 moral moralSelf U u 1 0.6805 
20-May-2018_17:03:46 7326 20 male R 2 4 17 moral moralSelf U u 1 0.5907 
20-May-2018_17:03:48 7326 20 male R 2 4 18 moral immoralOther Y y 1 0.6148 
20-May-2018_17:03:50 7326 20 male R 2 4 19 moral moralOther U u 1 0.5329 
20-May-2018_17:03:51 7326 20 male R 2 4 20 moral immoralOther Y y 1 0.5991 
20-May-2018_17:03:53 7326 20 male R 2 4 21 moral moralOther U u 1 0.4530 
20-May-2018_17:03:55 7326 20 male R 2 4 22 moral moralSelf U u 1 0.6677 
20-May-2018_17:03:56 7326 20 male R 2 4 23 moral immoralSelf Y y 1 0.5353 
20-May-2018_17:03:58 7326 20 male R 2 4 24 moral immoralOther Y y 1 0.6814 
20-May-2018_17:04:45 7326 20 male R 2 5 1 moral immoralOther Y y 1 0.5061 
20-May-2018_17:04:47 7326 20 male R 2 5 2 moral immoralSelf Y y 1 0.6035 
20-May-2018_17:04:49 7326 20 male R 2 5 3 moral immoralSelf Y y 1 0.4663 
20-May-2018_17:04:51 7326 20 male R 2 5 4 moral moralSelf U u 1 0.4503 
20-May-2018_17:04:52 7326 20 male R 2 5 5 moral immoralOther Y y 1 0.5745 
20-May-2018_17:04:54 7326 20 male R 2 5 6 moral moralOther U y 0 0.4467 
20-May-2018_17:04:55 7326 20 male R 2 5 7 moral moralOther U u 1 0.3346 
20-May-2018_17:04:57 7326 20 male R 2 5 8 moral immoralOther Y y 1 0.5567 
20-May-2018_17:04:59 7326 20 male R 2 5 9 moral moralSelf U u 1 0.6308 
20-May-2018_17:05:01 7326 20 male R 2 5 10 moral immoralSelf Y y 1 0.4810 
20-May-2018_17:05:03 7326 20 male R 2 5 11 moral immoralSelf Y y 1 0.5010 
20-May-2018_17:05:04 7326 20 male R 2 5 12 moral immoralSelf Y y 1 0.3952 
20-May-2018_17:05:06 7326 20 male R 2 5 13 moral moralOther U u 1 0.4192 
20-May-2018_17:05:08 7326 20 male R 2 5 14 moral immoralSelf Y y 1 0.3310 
20-May-2018_17:05:09 7326 20 male R 2 5 15 moral moralSelf U y 0 0.4794 
20-May-2018_17:05:11 7326 20 male R 2 5 16 moral moralSelf U u 1 0.6255 
20-May-2018_17:05:13 7326 20 male R 2 5 17 moral moralSelf U u 1 0.3736 
20-May-2018_17:05:15 7326 20 male R 2 5 18 moral moralOther U u 1 0.5657 
20-May-2018_17:05:17 7326 20 male R 2 5 19 moral moralSelf U u 1 0.3879 
20-May-2018_17:05:18 7326 20 male R 2 5 20 moral moralOther U u 1 0.4560 
20-May-2018_17:05:20 7326 20 male R 2 5 21 moral immoralOther Y y 1 0.4820 
20-May-2018_17:05:22 7326 20 male R 2 5 22 moral moralOther U u 1 0.6001 
20-May-2018_17:05:24 7326 20 male R 2 5 23 moral immoralOther Y y 1 0.6083 
20-May-2018_17:05:26 7326 20 male R 2 5 24 moral immoralOther Y y 1 0.6864 
Date Sub Age Sex Hand Block Bin Trial Task Shape corrResp Resp ACC RT
20-May-2018_17:08:01 7326 20 male R 3 1 1 moral moralOther U u 1 0.4332 
20-May-2018_17:08:03 7326 20 male R 3 1 2 moral moralSelf U u 1 0.6472 
20-May-2018_17:08:04 7326 20 male R 3 1 3 moral immoralOther Y y 1 0.3974 
20-May-2018_17:08:06 7326 20 male R 3 1 4 moral moralSelf U y 0 0.3935 
20-May-2018_17:08:08 7326 20 male R 3 1 5 moral immoralOther Y y 1 0.7255 
20-May-2018_17:08:09 7326 20 male R 3 1 6 moral immoralSelf Y y 1 0.4977 
20-May-2018_17:08:11 7326 20 male R 3 1 7 moral immoralOther Y y 1 0.6938 
20-May-2018_17:08:12 7326 20 male R 3 1 8 moral moralOther U u 1 0.3899 
20-May-2018_17:08:14 7326 20 male R 3 1 9 moral moralSelf U u 1 0.4440 
20-May-2018_17:08:16 7326 20 male R 3 1 10 moral moralSelf U u 1 0.5100 
20-May-2018_17:08:18 7326 20 male R 3 1 11 moral immoralSelf Y y 1 0.4842 
20-May-2018_17:08:19 7326 20 male R 3 1 12 moral immoralOther Y y 1 0.5243 
20-May-2018_17:08:21 7326 20 male R 3 1 13 moral moralOther U u 1 0.4484 
20-May-2018_17:08:23 7326 20 male R 3 1 14 moral moralSelf U u 1 0.6444 
20-May-2018_17:08:25 7326 20 male R 3 1 15 moral moralOther U u 1 0.5906 
20-May-2018_17:08:27 7326 20 male R 3 1 16 moral immoralSelf Y y 1 0.5327 
20-May-2018_17:08:29 7326 20 male R 3 1 17 moral moralOther U u 1 0.5167 
20-May-2018_17:08:30 7326 20 male R 3 1 18 moral immoralOther Y u 0 0.4949 
20-May-2018_17:08:32 7326 20 male R 3 1 19 moral moralOther U u 1 0.5431 
20-May-2018_17:08:34 7326 20 male R 3 1 20 moral immoralOther Y y 1 0.4151 
20-May-2018_17:08:36 7326 20 male R 3 1 21 moral immoralSelf Y y 1 0.4993 
20-May-2018_17:08:38 7326 20 male R 3 1 22 moral moralSelf U NA -1 1.0260 
20-May-2018_17:08:40 7326 20 male R 3 1 23 moral immoralSelf Y y 1 0.5934 
20-May-2018_17:08:42 7326 20 male R 3 1 24 moral immoralSelf Y y 1 0.4335 
20-May-2018_17:08:43 7326 20 male R 3 2 1 moral moralOther U u 1 0.4657 
20-May-2018_17:08:45 7326 20 male R 3 2 2 moral moralSelf U u 1 0.4517 
20-May-2018_17:08:46 7326 20 male R 3 2 3 moral immoralSelf Y y 1 0.4135 
20-May-2018_17:08:48 7326 20 male R 3 2 4 moral immoralSelf Y y 1 0.5579 
20-May-2018_17:08:50 7326 20 male R 3 2 5 moral immoralOther Y y 1 0.5901 
20-May-2018_17:08:51 7326 20 male R 3 2 6 moral immoralSelf Y y 1 0.4661 
20-May-2018_17:08:53 7326 20 male R 3 2 7 moral moralSelf U u 1 0.5322 
20-May-2018_17:08:54 7326 20 male R 3 2 8 moral moralOther U u 1 0.3603 
20-May-2018_17:08:56 7326 20 male R 3 2 9 moral immoralOther Y y 1 0.5083 
20-May-2018_17:08:58 7326 20 male R 3 2 10 moral moralSelf U u 1 0.6005 
20-May-2018_17:09:00 7326 20 male R 3 2 11 moral moralOther U u 1 0.6886 
20-May-2018_17:09:01 7326 20 male R 3 2 12 moral immoralSelf Y y 1 0.4424 
20-May-2018_17:09:03 7326 20 male R 3 2 13 moral immoralOther Y y 1 0.5888 
20-May-2018_17:09:05 7326 20 male R 3 2 14 moral immoralSelf Y y 1 0.4908 
20-May-2018_17:09:07 7326 20 male R 3 2 15 moral immoralSelf Y y 1 0.4870 
20-May-2018_17:09:08 7326 20 male R 3 2 16 moral moralOther U u 1 0.4490 
20-May-2018_17:09:10 7326 20 male R 3 2 17 moral moralOther U u 1 0.5091 
20-May-2018_17:09:12 7326 20 male R 3 2 18 moral moralSelf U u 1 0.6792 
20-May-2018_17:09:14 7326 20 male R 3 2 19 moral moralSelf U u 1 0.4234 
20-May-2018_17:09:15 7326 20 male R 3 2 20 moral moralOther U u 1 0.4397 
20-May-2018_17:09:17 7326 20 male R 3 2 21 moral moralSelf U u 1 0.5076 
20-May-2018_17:09:19 7326 20 male R 3 2 22 moral immoralOther Y y 1 0.5017 
20-May-2018_17:09:20 7326 20 male R 3 2 23 moral immoralOther Y y 1 0.3837 
20-May-2018_17:09:22 7326 20 male R 3 2 24 moral immoralOther Y y 1 0.3599 
20-May-2018_17:09:31 7326 20 male R 3 3 1 moral moralSelf U u 1 0.6784 
20-May-2018_17:09:33 7326 20 male R 3 3 2 moral moralSelf U u 1 0.5626 
20-May-2018_17:09:35 7326 20 male R 3 3 3 moral immoralSelf Y y 1 0.4886 
20-May-2018_17:09:37 7326 20 male R 3 3 4 moral immoralOther Y y 1 0.5186 
20-May-2018_17:09:39 7326 20 male R 3 3 5 moral moralSelf U u 1 0.5848 
20-May-2018_17:09:41 7326 20 male R 3 3 6 moral immoralSelf Y y 1 0.4890 
20-May-2018_17:09:43 7326 20 male R 3 3 7 moral immoralOther Y y 1 0.8510 
20-May-2018_17:09:45 7326 20 male R 3 3 8 moral immoralSelf Y y 1 0.4012 
20-May-2018_17:09:46 7326 20 male R 3 3 9 moral moralOther U u 1 0.3533 
20-May-2018_17:09:48 7326 20 male R 3 3 10 moral immoralSelf Y y 1 0.4553 
20-May-2018_17:09:49 7326 20 male R 3 3 11 moral immoralOther Y y 1 0.6734 
20-May-2018_17:09:51 7326 20 male R 3 3 12 moral moralOther U u 1 0.3476 
20-May-2018_17:09:53 7326 20 male R 3 3 13 moral immoralOther Y y 1 0.5238 
20-May-2018_17:09:55 7326 20 male R 3 3 14 moral immoralSelf Y y 1 0.5777 
20-May-2018_17:09:56 7326 20 male R 3 3 15 moral immoralSelf Y y 1 0.4738 
20-May-2018_17:09:58 7326 20 male R 3 3 16 moral moralSelf U u 1 0.5199 
20-May-2018_17:10:00 7326 20 male R 3 3 17 moral moralOther U u 1 0.4680 
20-May-2018_17:10:02 7326 20 male R 3 3 18 moral immoralOther Y y 1 0.5520 
20-May-2018_17:10:03 7326 20 male R 3 3 19 moral moralOther U u 1 0.4222 
20-May-2018_17:10:05 7326 20 male R 3 3 20 moral moralSelf U y 0 0.4364 
20-May-2018_17:10:06 7326 20 male R 3 3 21 moral immoralOther Y y 1 0.5483 
20-May-2018_17:10:08 7326 20 male R 3 3 22 moral moralSelf U u 1 0.8024 
20-May-2018_17:10:10 7326 20 male R 3 3 23 moral moralOther U y 0 0.4785 
20-May-2018_17:10:11 7326 20 male R 3 3 24 moral moralOther U u 1 0.4767 
20-May-2018_17:10:13 7326 20 male R 3 4 1 moral immoralOther Y y 1 0.4949 
20-May-2018_17:10:15 7326 20 male R 3 4 2 moral moralSelf U u 1 0.6428 
20-May-2018_17:10:17 7326 20 male R 3 4 3 moral immoralSelf Y y 1 0.4669 
20-May-2018_17:10:18 7326 20 male R 3 4 4 moral moralOther U u 1 0.5030 
20-May-2018_17:10:20 7326 20 male R 3 4 5 moral immoralOther Y y 1 0.6312 
20-May-2018_17:10:22 7326 20 male R 3 4 6 moral immoralSelf Y y 1 0.5273 
20-May-2018_17:10:24 7326 20 male R 3 4 7 moral immoralSelf Y y 1 0.5093 
20-May-2018_17:10:26 7326 20 male R 3 4 8 moral moralOther U u 1 0.5215 
20-May-2018_17:10:27 7326 20 male R 3 4 9 moral moralOther U u 1 0.4795 
20-May-2018_17:10:29 7326 20 male R 3 4 10 moral moralOther U u 1 0.4476 
20-May-2018_17:10:30 7326 20 male R 3 4 11 moral moralSelf U u 1 0.5897 
20-May-2018_17:10:32 7326 20 male R 3 4 12 moral moralOther U u 1 0.4438 
20-May-2018_17:10:34 7326 20 male R 3 4 13 moral immoralSelf Y y 1 0.4219 
20-May-2018_17:10:35 7326 20 male R 3 4 14 moral moralSelf U u 1 0.6059 
20-May-2018_17:10:37 7326 20 male R 3 4 15 moral immoralOther Y y 1 0.6224 
20-May-2018_17:10:39 7326 20 male R 3 4 16 moral moralSelf U u 1 0.5902 
20-May-2018_17:10:41 7326 20 male R 3 4 17 moral moralSelf U u 1 0.6743 
20-May-2018_17:10:43 7326 20 male R 3 4 18 moral immoralSelf Y y 1 0.6144 
20-May-2018_17:10:45 7326 20 male R 3 4 19 moral immoralOther Y NA -1 1.0260 
20-May-2018_17:10:47 7326 20 male R 3 4 20 moral moralSelf U u 1 0.4946 
20-May-2018_17:10:49 7326 20 male R 3 4 21 moral immoralOther Y y 1 0.4608 
20-May-2018_17:10:51 7326 20 male R 3 4 22 moral immoralOther Y y 1 0.4448 
20-May-2018_17:10:52 7326 20 male R 3 4 23 moral moralOther U u 1 0.4470 
20-May-2018_17:10:54 7326 20 male R 3 4 24 moral immoralSelf Y y 1 0.4871 
20-May-2018_17:11:40 7326 20 male R 3 5 1 moral moralSelf U u 1 0.5217 
20-May-2018_17:11:42 7326 20 male R 3 5 2 moral immoralSelf Y y 1 0.4821 
20-May-2018_17:11:44 7326 20 male R 3 5 3 moral moralOther U u 1 0.4620 
20-May-2018_17:11:46 7326 20 male R 3 5 4 moral immoralOther Y y 1 0.5600 
20-May-2018_17:11:47 7326 20 male R 3 5 5 moral immoralOther Y y 1 0.5980 
20-May-2018_17:11:49 7326 20 male R 3 5 6 moral moralSelf U u 1 0.5981 
20-May-2018_17:11:51 7326 20 male R 3 5 7 moral immoralSelf Y y 1 0.4804 
20-May-2018_17:11:53 7326 20 male R 3 5 8 moral immoralSelf Y y 1 0.6065 
20-May-2018_17:11:55 7326 20 male R 3 5 9 moral immoralOther Y y 1 0.6005 
20-May-2018_17:11:56 7326 20 male R 3 5 10 moral moralSelf U u 1 0.5687 
20-May-2018_17:11:58 7326 20 male R 3 5 11 moral moralSelf U u 1 0.5627 
20-May-2018_17:12:00 7326 20 male R 3 5 12 moral immoralSelf Y y 1 0.5148 
20-May-2018_17:12:02 7326 20 male R 3 5 13 moral moralOther U u 1 0.4610 
20-May-2018_17:12:04 7326 20 male R 3 5 14 moral moralSelf U u 1 0.5650 
20-May-2018_17:12:06 7326 20 male R 3 5 15 moral moralSelf U u 1 0.4592 
20-May-2018_17:12:08 7326 20 male R 3 5 16 moral moralOther U u 1 0.5212 
20-May-2018_17:12:09 7326 20 male R 3 5 17 moral immoralSelf Y y 1 0.4455 
20-May-2018_17:12:11 7326 20 male R 3 5 18 moral immoralOther Y y 1 0.4796 
20-May-2018_17:12:13 7326 20 male R 3 5 19 moral immoralOther Y y 1 0.4956 
20-May-2018_17:12:14 7326 20 male R 3 5 20 moral moralOther U u 1 0.3736 
20-May-2018_17:12:16 7326 20 male R 3 5 21 moral moralOther U u 1 0.3838 
20-May-2018_17:12:17 7326 20 male R 3 5 22 moral immoralOther Y y 1 0.5258 
20-May-2018_17:12:19 7326 20 male R 3 5 23 moral immoralSelf Y y 1 0.4559 
20-May-2018_17:12:21 7326 20 male R 3 5 24 moral moralOther U u 1 0.5199 
Date Sub Age Sex Hand Block Bin Trial Task Shape corrResp Resp ACC RT
20-May-2018_17:16:35 7326 20 male R 4 1 1 self moralSelf H h 1 0.7065 
20-May-2018_17:16:37 7326 20 male R 4 1 2 self moralSelf H h 1 0.4927 
20-May-2018_17:16:39 7326 20 male R 4 1 3 self moralOther J j 1 0.5987 
20-May-2018_17:16:41 7326 20 male R 4 1 4 self moralSelf H h 1 0.6408 
20-May-2018_17:16:42 7326 20 male R 4 1 5 self immoralSelf H h 1 0.6349 
20-May-2018_17:16:44 7326 20 male R 4 1 6 self immoralOther J j 1 0.3870 
20-May-2018_17:16:46 7326 20 male R 4 1 7 self moralOther J j 1 0.5372 
20-May-2018_17:16:47 7326 20 male R 4 1 8 self immoralOther J j 1 0.4592 
20-May-2018_17:16:49 7326 20 male R 4 1 9 self moralOther J j 1 0.5153 
20-May-2018_17:16:50 7326 20 male R 4 1 10 self immoralOther J j 1 0.6095 
20-May-2018_17:16:52 7326 20 male R 4 1 11 self moralOther J j 1 0.8415 
20-May-2018_17:16:54 7326 20 male R 4 1 12 self immoralOther J j 1 0.5417 
20-May-2018_17:16:56 7326 20 male R 4 1 13 self immoralSelf H h 1 0.5557 
20-May-2018_17:16:58 7326 20 male R 4 1 14 self immoralSelf H h 1 0.4399 
20-May-2018_17:17:00 7326 20 male R 4 1 15 self immoralSelf H h 1 0.6119 
20-May-2018_17:17:02 7326 20 male R 4 1 16 self moralOther J j 1 0.5360 
20-May-2018_17:17:04 7326 20 male R 4 1 17 self immoralOther J j 1 0.4142 
20-May-2018_17:17:06 7326 20 male R 4 1 18 self immoralSelf H h 1 0.5763 
20-May-2018_17:17:08 7326 20 male R 4 1 19 self moralSelf H h 1 0.5064 
20-May-2018_17:17:09 7326 20 male R 4 1 20 self moralSelf H h 1 0.4785 
20-May-2018_17:17:11 7326 20 male R 4 1 21 self moralSelf H h 1 0.4546 
20-May-2018_17:17:13 7326 20 male R 4 1 22 self immoralSelf H h 1 0.5347 
20-May-2018_17:17:15 7326 20 male R 4 1 23 self immoralOther J j 1 0.5528 
20-May-2018_17:17:17 7326 20 male R 4 1 24 self moralOther J j 1 0.6149 
20-May-2018_17:17:19 7326 20 male R 4 2 1 self moralOther J j 1 0.5010 
20-May-2018_17:17:20 7326 20 male R 4 2 2 self moralOther J j 1 0.5191 
20-May-2018_17:17:22 7326 20 male R 4 2 3 self moralSelf H h 1 0.7732 
20-May-2018_17:17:24 7326 20 male R 4 2 4 self moralSelf H h 1 0.4793 
20-May-2018_17:17:26 7326 20 male R 4 2 5 self moralOther J j 1 0.6334 
20-May-2018_17:17:28 7326 20 male R 4 2 6 self immoralSelf H h 1 0.8976 
20-May-2018_17:17:30 7326 20 male R 4 2 7 self immoralSelf H h 1 0.4236 
20-May-2018_17:17:32 7326 20 male R 4 2 8 self immoralOther J j 1 0.6417 
20-May-2018_17:17:34 7326 20 male R 4 2 9 self immoralSelf H h 1 0.6338 
20-May-2018_17:17:35 7326 20 male R 4 2 10 self moralOther J j 1 0.5300 
20-May-2018_17:17:37 7326 20 male R 4 2 11 self immoralSelf H h 1 0.5780 
20-May-2018_17:17:39 7326 20 male R 4 2 12 self moralOther J j 1 0.4461 
20-May-2018_17:17:41 7326 20 male R 4 2 13 self immoralOther J j 1 0.5942 
20-May-2018_17:17:42 7326 20 male R 4 2 14 self immoralOther J j 1 0.4605 
20-May-2018_17:17:44 7326 20 male R 4 2 15 self moralSelf H h 1 0.6545 
20-May-2018_17:17:47 7326 20 male R 4 2 16 self immoralSelf H h 1 0.8206 
20-May-2018_17:17:48 7326 20 male R 4 2 17 self immoralSelf H h 1 0.4988 
20-May-2018_17:17:50 7326 20 male R 4 2 18 self moralOther J j 1 0.7449 
20-May-2018_17:17:53 7326 20 male R 4 2 19 self moralSelf H h 1 0.9029 
20-May-2018_17:17:54 7326 20 male R 4 2 20 self moralSelf H j 0 0.5130 
20-May-2018_17:17:56 7326 20 male R 4 2 21 self moralSelf H h 1 0.5551 
20-May-2018_17:17:57 7326 20 male R 4 2 22 self immoralOther J j 1 0.6212 
20-May-2018_17:17:59 7326 20 male R 4 2 23 self immoralOther J j 1 0.6193 
20-May-2018_17:18:01 7326 20 male R 4 2 24 self immoralOther J j 1 0.4274 
20-May-2018_17:24:02 7326 20 male R 4 3 1 self immoralSelf H h 1 0.4760 
20-May-2018_17:24:04 7326 20 male R 4 3 2 self moralSelf H h 1 0.6921 
20-May-2018_17:24:06 7326 20 male R 4 3 3 self moralOther J j 1 0.5342 
20-May-2018_17:24:08 7326 20 male R 4 3 4 self moralSelf H h 1 0.6203 
20-May-2018_17:24:10 7326 20 male R 4 3 5 self immoralSelf H h 1 0.5044 
20-May-2018_17:24:12 7326 20 male R 4 3 6 self immoralSelf H h 1 0.5046 
20-May-2018_17:24:14 7326 20 male R 4 3 7 self immoralSelf H h 1 0.3807 
20-May-2018_17:24:15 7326 20 male R 4 3 8 self immoralOther J j 1 0.7008 
20-May-2018_17:24:17 7326 20 male R 4 3 9 self moralOther J j 1 0.5268 
20-May-2018_17:24:19 7326 20 male R 4 3 10 self moralOther J j 1 0.3589 
20-May-2018_17:24:21 7326 20 male R 4 3 11 self moralSelf H h 1 0.5652 
20-May-2018_17:24:23 7326 20 male R 4 3 12 self immoralOther J j 1 0.5531 
20-May-2018_17:24:25 7326 20 male R 4 3 13 self immoralSelf H h 1 0.5273 
20-May-2018_17:24:26 7326 20 male R 4 3 14 self immoralOther J j 1 0.6514 
20-May-2018_17:24:28 7326 20 male R 4 3 15 self immoralOther J j 1 0.4375 
20-May-2018_17:24:30 7326 20 male R 4 3 16 self immoralOther J j 1 0.4736 
20-May-2018_17:24:31 7326 20 male R 4 3 17 self immoralOther J j 1 0.5878 
20-May-2018_17:24:33 7326 20 male R 4 3 18 self moralSelf H h 1 0.5117 
20-May-2018_17:24:35 7326 20 male R 4 3 19 self moralOther J j 1 0.4778 
20-May-2018_17:24:36 7326 20 male R 4 3 20 self immoralSelf H h 1 0.5300 
20-May-2018_17:24:38 7326 20 male R 4 3 21 self moralOther J j 1 0.5820 
20-May-2018_17:24:40 7326 20 male R 4 3 22 self moralOther J j 1 0.5102 
20-May-2018_17:24:42 7326 20 male R 4 3 23 self moralSelf H h 1 0.6662 
20-May-2018_17:24:43 7326 20 male R 4 3 24 self moralSelf H h 1 0.5103 
20-May-2018_17:24:45 7326 20 male R 4 4 1 self moralSelf H h 1 0.4965 
20-May-2018_17:24:47 7326 20 male R 4 4 2 self immoralOther J j 1 0.5906 
20-May-2018_17:24:49 7326 20 male R 4 4 3 self moralOther J j 1 0.5807 
20-May-2018_17:24:51 7326 20 male R 4 4 4 self immoralOther J j 1 0.6247 
20-May-2018_17:24:52 7326 20 male R 4 4 5 self immoralOther J j 1 0.4728 
20-May-2018_17:24:54 7326 20 male R 4 4 6 self moralSelf H h 1 0.5310 
20-May-2018_17:24:56 7326 20 male R 4 4 7 self moralSelf H NA -1 1.0260 
20-May-2018_17:24:58 7326 20 male R 4 4 8 self moralOther J j 1 0.5771 
20-May-2018_17:25:00 7326 20 male R 4 4 9 self moralSelf H h 1 0.5713 
20-May-2018_17:25:01 7326 20 male R 4 4 10 self immoralOther J j 1 0.5794 
20-May-2018_17:25:03 7326 20 male R 4 4 11 self moralSelf H h 1 0.5695 
20-May-2018_17:25:05 7326 20 male R 4 4 12 self immoralSelf H h 1 0.5815 
20-May-2018_17:25:07 7326 20 male R 4 4 13 self immoralOther J h 0 0.6837 
20-May-2018_17:25:08 7326 20 male R 4 4 14 self moralOther J j 1 0.4738 
20-May-2018_17:25:10 7326 20 male R 4 4 15 self moralOther J j 1 0.5419 
20-May-2018_17:25:12 7326 20 male R 4 4 16 self immoralSelf H h 1 0.6039 
20-May-2018_17:25:14 7326 20 male R 4 4 17 self moralOther J j 1 0.6001 
20-May-2018_17:25:16 7326 20 male R 4 4 18 self moralSelf H h 1 0.5843 
20-May-2018_17:25:18 7326 20 male R 4 4 19 self immoralSelf H h 1 0.5663 
20-May-2018_17:25:20 7326 20 male R 4 4 20 self moralOther J j 1 0.6864 
20-May-2018_17:25:21 7326 20 male R 4 4 21 self immoralSelf H h 1 0.5725 
20-May-2018_17:25:23 7326 20 male R 4 4 22 self immoralOther J j 1 0.6266 
20-May-2018_17:25:26 7326 20 male R 4 4 23 self immoralSelf H NA -1 1.0260 
20-May-2018_17:25:27 7326 20 male R 4 4 24 self immoralSelf H h 1 0.4109 
20-May-2018_17:25:43 7326 20 male R 4 5 1 self immoralOther J j 1 0.5217 
20-May-2018_17:25:45 7326 20 male R 4 5 2 self immoralSelf H h 1 0.6278 
20-May-2018_17:25:47 7326 20 male R 4 5 3 self immoralOther J j 1 0.5152 
20-May-2018_17:25:49 7326 20 male R 4 5 4 self moralOther J j 1 0.7180 
20-May-2018_17:25:51 7326 20 male R 4 5 5 self immoralSelf H h 1 0.6922 
20-May-2018_17:25:53 7326 20 male R 4 5 6 self immoralSelf H h 1 0.7743 
20-May-2018_17:25:54 7326 20 male R 4 5 7 self immoralSelf H h 1 0.4761 
20-May-2018_17:25:56 7326 20 male R 4 5 8 self moralOther J j 1 0.4245 
20-May-2018_17:25:58 7326 20 male R 4 5 9 self immoralOther J j 1 0.6009 
20-May-2018_17:25:59 7326 20 male R 4 5 10 self moralOther J j 1 0.4167 
20-May-2018_17:26:01 7326 20 male R 4 5 11 self moralOther J j 1 0.3048 
20-May-2018_17:26:02 7326 20 male R 4 5 12 self moralOther J j 1 0.3769 
20-May-2018_17:26:04 7326 20 male R 4 5 13 self moralSelf H h 1 0.4410 
20-May-2018_17:26:06 7326 20 male R 4 5 14 self moralOther J j 1 0.4870 
20-May-2018_17:26:08 7326 20 male R 4 5 15 self moralSelf H h 1 0.5931 
20-May-2018_17:26:09 7326 20 male R 4 5 16 self moralSelf H h 1 0.3552 
20-May-2018_17:26:11 7326 20 male R 4 5 17 self immoralOther J j 1 0.5494 
20-May-2018_17:26:12 7326 20 male R 4 5 18 self moralSelf H h 1 0.5754 
20-May-2018_17:26:14 7326 20 male R 4 5 19 self moralSelf H h 1 0.7003 
20-May-2018_17:26:16 7326 20 male R 4 5 20 self immoralOther J j 1 0.5476 
20-May-2018_17:26:18 7326 20 male R 4 5 21 self immoralSelf H h 1 0.5877 
20-May-2018_17:26:20 7326 20 male R 4 5 22 self immoralSelf H h 1 0.4878 
20-May-2018_17:26:22 7326 20 male R 4 5 23 self immoralOther J j 1 0.5700 
20-May-2018_17:26:24 7326 20 male R 4 5 24 self moralSelf H h 1 0.6020 
Date Sub Age Sex Hand Block Bin Trial Task Shape corrResp Resp ACC RT
20-May-2018_17:30:53 7326 20 male R 5 1 1 self moralOther J j 1 0.3874 
20-May-2018_17:30:55 7326 20 male R 5 1 2 self immoralSelf H h 1 0.5776 
20-May-2018_17:30:57 7326 20 male R 5 1 3 self moralOther J j 1 0.4756 
20-May-2018_17:30:59 7326 20 male R 5 1 4 self moralOther J j 1 0.4438 
20-May-2018_17:31:00 7326 20 male R 5 1 5 self immoralSelf H h 1 0.4898 
20-May-2018_17:31:02 7326 20 male R 5 1 6 self immoralSelf H h 1 0.4979 
20-May-2018_17:31:04 7326 20 male R 5 1 7 self immoralSelf H h 1 0.4180 
20-May-2018_17:31:06 7326 20 male R 5 1 8 self moralSelf H h 1 0.5761 
20-May-2018_17:31:07 7326 20 male R 5 1 9 self moralSelf H h 1 0.4062 
20-May-2018_17:31:09 7326 20 male R 5 1 10 self immoralOther J j 1 0.6163 
20-May-2018_17:31:11 7326 20 male R 5 1 11 self moralOther J j 1 0.4605 
20-May-2018_17:31:13 7326 20 male R 5 1 12 self moralOther J j 1 0.4164 
20-May-2018_17:31:14 7326 20 male R 5 1 13 self moralSelf H h 1 0.4846 
20-May-2018_17:31:16 7326 20 male R 5 1 14 self immoralOther J j 1 0.5728 
20-May-2018_17:31:18 7326 20 male R 5 1 15 self immoralOther J j 1 0.4468 
20-May-2018_17:31:20 7326 20 male R 5 1 16 self immoralOther J j 1 0.3569 
20-May-2018_17:31:21 7326 20 male R 5 1 17 self moralSelf H h 1 0.5691 
20-May-2018_17:31:23 7326 20 male R 5 1 18 self moralOther J j 1 0.5752 
20-May-2018_17:31:24 7326 20 male R 5 1 19 self moralSelf H h 1 0.3800 
20-May-2018_17:31:26 7326 20 male R 5 1 20 self moralSelf H h 1 0.4674 
20-May-2018_17:31:28 7326 20 male R 5 1 21 self immoralOther J j 1 0.5974 
20-May-2018_17:31:30 7326 20 male R 5 1 22 self immoralSelf H h 1 0.5695 
20-May-2018_17:31:32 7326 20 male R 5 1 23 self immoralSelf H h 1 0.5916 
20-May-2018_17:31:34 7326 20 male R 5 1 24 self immoralOther J j 1 0.6897 
20-May-2018_17:31:35 7326 20 male R 5 2 1 self immoralOther J j 1 0.5278 
20-May-2018_17:31:37 7326 20 male R 5 2 2 self immoralSelf H h 1 0.5239 
20-May-2018_17:31:40 7326 20 male R 5 2 3 self immoralSelf H h 1 0.8760 
20-May-2018_17:31:41 7326 20 male R 5 2 4 self immoralSelf H h 1 0.4882 
20-May-2018_17:31:43 7326 20 male R 5 2 5 self moralSelf H h 1 0.6684 
20-May-2018_17:31:45 7326 20 male R 5 2 6 self moralSelf H h 1 0.6344 
20-May-2018_17:31:47 7326 20 male R 5 2 7 self moralOther J j 1 0.5165 
20-May-2018_17:31:48 7326 20 male R 5 2 8 self moralSelf H h 1 0.6545 
20-May-2018_17:31:50 7326 20 male R 5 2 9 self moralOther J j 1 0.6126 
20-May-2018_17:31:52 7326 20 male R 5 2 10 self immoralOther J j 1 0.4667 
20-May-2018_17:31:54 7326 20 male R 5 2 11 self immoralOther J h 0 0.4589 
20-May-2018_17:31:55 7326 20 male R 5 2 12 self moralSelf H h 1 0.5410 
20-May-2018_17:31:57 7326 20 male R 5 2 13 self immoralSelf H h 1 0.5391 
20-May-2018_17:31:59 7326 20 male R 5 2 14 self moralOther J j 1 0.4251 
20-May-2018_17:32:01 7326 20 male R 5 2 15 self immoralOther J j 1 0.5073 
20-May-2018_17:32:03 7326 20 male R 5 2 16 self immoralOther J j 1 0.6233 
20-May-2018_17:32:05 7326 20 male R 5 2 17 self moralOther J j 1 0.4835 
20-May-2018_17:32:06 7326 20 male R 5 2 18 self moralSelf H h 1 0.5857 
20-May-2018_17:32:08 7326 20 male R 5 2 19 self moralOther J j 1 0.8037 
20-May-2018_17:32:10 7326 20 male R 5 2 20 self immoralSelf H h 1 0.4897 
20-May-2018_17:32:12 7326 20 male R 5 2 21 self immoralOther J j 1 0.5499 
20-May-2018_17:32:13 7326 20 male R 5 2 22 self moralSelf H h 1 0.5740 
20-May-2018_17:32:15 7326 20 male R 5 2 23 self moralOther J j 1 0.5340 
20-May-2018_17:32:17 7326 20 male R 5 2 24 self immoralSelf H h 1 0.5682 
20-May-2018_17:32:23 7326 20 male R 5 3 1 self immoralSelf H h 1 0.4866 
20-May-2018_17:32:25 7326 20 male R 5 3 2 self immoralSelf H h 1 0.4827 
20-May-2018_17:32:27 7326 20 male R 5 3 3 self moralSelf H h 1 0.5908 
20-May-2018_17:32:28 7326 20 male R 5 3 4 self moralOther J j 1 0.4688 
20-May-2018_17:32:30 7326 20 male R 5 3 5 self moralOther J j 1 0.3730 
20-May-2018_17:32:32 7326 20 male R 5 3 6 self immoralOther J j 1 0.6371 
20-May-2018_17:32:34 7326 20 male R 5 3 7 self moralSelf H h 1 0.5812 
20-May-2018_17:32:36 7326 20 male R 5 3 8 self moralSelf H h 1 0.5352 
20-May-2018_17:32:37 7326 20 male R 5 3 9 self moralOther J j 1 0.3974 
20-May-2018_17:32:39 7326 20 male R 5 3 10 self moralOther J j 1 0.5314 
20-May-2018_17:32:41 7326 20 male R 5 3 11 self immoralSelf H h 1 0.4455 
20-May-2018_17:32:42 7326 20 male R 5 3 12 self moralSelf H h 1 0.6376 
20-May-2018_17:32:44 7326 20 male R 5 3 13 self immoralOther J j 1 0.5478 
20-May-2018_17:32:46 7326 20 male R 5 3 14 self immoralSelf H h 1 0.5578 
20-May-2018_17:32:48 7326 20 male R 5 3 15 self moralOther J j 1 0.5180 
20-May-2018_17:32:50 7326 20 male R 5 3 16 self immoralOther J j 1 0.6261 
20-May-2018_17:32:51 7326 20 male R 5 3 17 self moralSelf H h 1 0.4662 
20-May-2018_17:32:53 7326 20 male R 5 3 18 self immoralOther J j 1 0.5422 
20-May-2018_17:32:55 7326 20 male R 5 3 19 self moralSelf H h 1 0.4904 
20-May-2018_17:32:56 7326 20 male R 5 3 20 self immoralSelf H h 1 0.5071 
20-May-2018_17:32:58 7326 20 male R 5 3 21 self immoralSelf H h 1 0.4305 
20-May-2018_17:33:00 7326 20 male R 5 3 22 self moralOther J j 1 0.4066 
20-May-2018_17:33:02 7326 20 male R 5 3 23 self immoralOther J j 1 0.5307 
20-May-2018_17:33:03 7326 20 male R 5 3 24 self immoralOther J j 1 0.4389 
20-May-2018_17:33:05 7326 20 male R 5 4 1 self immoralOther J j 1 0.4049 
20-May-2018_17:33:06 7326 20 male R 5 4 2 self moralOther J h 0 0.4230 
20-May-2018_17:33:08 7326 20 male R 5 4 3 self immoralSelf H h 1 0.5271 
20-May-2018_17:33:10 7326 20 male R 5 4 4 self immoralOther J j 1 0.5332 
20-May-2018_17:33:11 7326 20 male R 5 4 5 self immoralSelf H h 1 0.5272 
20-May-2018_17:33:13 7326 20 male R 5 4 6 self immoralSelf H h 1 0.4615 
20-May-2018_17:33:15 7326 20 male R 5 4 7 self immoralOther J j 1 0.4856 
20-May-2018_17:33:17 7326 20 male R 5 4 8 self moralOther J j 1 0.5895 
20-May-2018_17:33:18 7326 20 male R 5 4 9 self moralOther J j 1 0.4478 
20-May-2018_17:33:20 7326 20 male R 5 4 10 self moralSelf H h 1 0.4940 
20-May-2018_17:33:22 7326 20 male R 5 4 11 self immoralSelf H h 1 0.5538 
20-May-2018_17:33:23 7326 20 male R 5 4 12 self moralSelf H h 1 0.5281 
20-May-2018_17:33:25 7326 20 male R 5 4 13 self moralOther J j 1 0.4340 
20-May-2018_17:33:26 7326 20 male R 5 4 14 self moralSelf H h 1 0.4982 
20-May-2018_17:33:28 7326 20 male R 5 4 15 self moralSelf H h 1 0.4162 
20-May-2018_17:33:30 7326 20 male R 5 4 16 self immoralOther J j 1 0.4863 
20-May-2018_17:33:32 7326 20 male R 5 4 17 self immoralOther J j 1 0.5345 
20-May-2018_17:33:34 7326 20 male R 5 4 18 self immoralSelf H h 1 0.5086 
20-May-2018_17:33:36 7326 20 male R 5 4 19 self moralSelf H h 1 0.4826 
20-May-2018_17:33:37 7326 20 male R 5 4 20 self immoralOther J j 1 0.5028 
20-May-2018_17:33:39 7326 20 male R 5 4 21 self moralOther J j 1 0.5569 
20-May-2018_17:33:40 7326 20 male R 5 4 22 self moralSelf H h 1 0.4629 
20-May-2018_17:33:42 7326 20 male R 5 4 23 self moralOther J j 1 0.5350 
20-May-2018_17:33:44 7326 20 male R 5 4 24 self immoralSelf H h 1 0.4751 
20-May-2018_17:33:52 7326 20 male R 5 5 1 self immoralSelf H h 1 0.4116 
20-May-2018_17:33:54 7326 20 male R 5 5 2 self immoralOther J j 1 0.5857 
20-May-2018_17:33:56 7326 20 male R 5 5 3 self moralOther J j 1 0.5158 
20-May-2018_17:33:57 7326 20 male R 5 5 4 self moralSelf H h 1 0.4820 
20-May-2018_17:33:59 7326 20 male R 5 5 5 self moralOther J j 1 0.6080 
20-May-2018_17:34:01 7326 20 male R 5 5 6 self immoralSelf H h 1 0.4681 
20-May-2018_17:34:03 7326 20 male R 5 5 7 self immoralOther J j 1 0.5902 
20-May-2018_17:34:05 7326 20 male R 5 5 8 self immoralSelf H h 1 0.5083 
20-May-2018_17:34:06 7326 20 male R 5 5 9 self immoralOther J j 1 0.5684 
20-May-2018_17:34:08 7326 20 male R 5 5 10 self moralOther J j 1 0.5385 
20-May-2018_17:34:10 7326 20 male R 5 5 11 self moralSelf H h 1 0.5206 
20-May-2018_17:34:11 7326 20 male R 5 5 12 self immoralSelf H h 1 0.5747 
20-May-2018_17:34:13 7326 20 male R 5 5 13 self moralOther J j 1 0.3647 
20-May-2018_17:34:15 7326 20 male R 5 5 14 self immoralOther J j 1 0.5669 
20-May-2018_17:34:17 7326 20 male R 5 5 15 self moralSelf H h 1 0.5991 
20-May-2018_17:34:19 7326 20 male R 5 5 16 self moralSelf H h 1 0.4831 
20-May-2018_17:34:20 7326 20 male R 5 5 17 self moralOther J j 1 0.5153 
20-May-2018_17:34:22 7326 20 male R 5 5 18 self moralOther J j 1 0.6553 
20-May-2018_17:34:24 7326 20 male R 5 5 19 self moralSelf H h 1 0.4934 
20-May-2018_17:34:25 7326 20 male R 5 5 20 self immoralSelf H h 1 0.5095 
20-May-2018_17:34:27 7326 20 male R 5 5 21 self immoralOther J j 1 0.5657 
20-May-2018_17:34:29 7326 20 male R 5 5 22 self immoralOther J j 1 0.5898 
20-May-2018_17:34:30 7326 20 male R 5 5 23 self immoralSelf H h 1 0.4398 
20-May-2018_17:34:32 7326 20 male R 5 5 24 self moralSelf H h 1 0.5899 
Date Sub Age Sex Hand Block Bin Trial Task Shape corrResp Resp ACC RT
20-May-2018_17:37:35 7326 20 male R 6 1 1 moral immoralSelf Y y 1 0.5264 
20-May-2018_17:37:37 7326 20 male R 6 1 2 moral moralSelf U u 1 0.8508 
20-May-2018_17:37:39 7326 20 male R 6 1 3 moral immoralOther Y y 1 0.5585 
20-May-2018_17:37:41 7326 20 male R 6 1 4 moral moralSelf U u 1 0.4747 
20-May-2018_17:37:42 7326 20 male R 6 1 5 moral moralSelf U u 1 0.4568 
20-May-2018_17:37:44 7326 20 male R 6 1 6 moral immoralSelf Y y 1 0.4769 
20-May-2018_17:37:46 7326 20 male R 6 1 7 moral immoralOther Y y 1 0.9925 
20-May-2018_17:37:48 7326 20 male R 6 1 8 moral immoralOther Y y 1 0.4871 
20-May-2018_17:37:49 7326 20 male R 6 1 9 moral immoralOther Y y 1 0.4711 
20-May-2018_17:37:51 7326 20 male R 6 1 10 moral moralOther U u 1 0.5072 
20-May-2018_17:37:53 7326 20 male R 6 1 11 moral immoralSelf Y y 1 0.5353 
20-May-2018_17:37:54 7326 20 male R 6 1 12 moral moralOther U u 1 0.4435 
20-May-2018_17:37:56 7326 20 male R 6 1 13 moral moralSelf U u 1 0.4596 
20-May-2018_17:37:58 7326 20 male R 6 1 14 moral immoralOther Y y 1 0.4976 
20-May-2018_17:38:00 7326 20 male R 6 1 15 moral moralSelf U u 1 0.6717 
20-May-2018_17:38:02 7326 20 male R 6 1 16 moral moralOther U u 1 0.3839 
20-May-2018_17:38:04 7326 20 male R 6 1 17 moral immoralSelf Y y 1 0.4539 
20-May-2018_17:38:05 7326 20 male R 6 1 18 moral immoralSelf Y y 1 0.4641 
20-May-2018_17:38:08 7326 20 male R 6 1 19 moral moralSelf U u 1 0.7562 
20-May-2018_17:38:09 7326 20 male R 6 1 20 moral moralOther U u 1 0.4363 
20-May-2018_17:38:11 7326 20 male R 6 1 21 moral moralOther U u 1 0.4805 
20-May-2018_17:38:13 7326 20 male R 6 1 22 moral immoralSelf Y y 1 0.4585 
20-May-2018_17:38:15 7326 20 male R 6 1 23 moral immoralOther Y y 1 0.6786 
20-May-2018_17:38:16 7326 20 male R 6 1 24 moral moralOther U u 1 0.4407 
20-May-2018_17:38:18 7326 20 male R 6 2 1 moral immoralOther Y y 1 0.5468 
20-May-2018_17:38:20 7326 20 male R 6 2 2 moral moralSelf U u 1 0.5289 
20-May-2018_17:38:22 7326 20 male R 6 2 3 moral moralSelf U u 1 0.7670 
20-May-2018_17:38:23 7326 20 male R 6 2 4 moral immoralOther Y y 1 0.6611 
20-May-2018_17:38:25 7326 20 male R 6 2 5 moral moralSelf U u 1 0.7112 
20-May-2018_17:38:27 7326 20 male R 6 2 6 moral moralOther U u 1 0.4653 
20-May-2018_17:38:29 7326 20 male R 6 2 7 moral immoralOther Y y 1 0.4733 
20-May-2018_17:38:31 7326 20 male R 6 2 8 moral moralOther U u 1 0.6396 
20-May-2018_17:38:33 7326 20 male R 6 2 9 moral moralSelf U u 1 0.8197 
20-May-2018_17:38:35 7326 20 male R 6 2 10 moral immoralSelf Y y 1 0.4857 
20-May-2018_17:38:36 7326 20 male R 6 2 11 moral moralSelf U u 1 0.5099 
20-May-2018_17:38:38 7326 20 male R 6 2 12 moral moralOther U u 1 0.5160 
20-May-2018_17:38:40 7326 20 male R 6 2 13 moral immoralSelf Y y 1 0.4941 
20-May-2018_17:38:41 7326 20 male R 6 2 14 moral immoralOther Y y 1 0.5961 
20-May-2018_17:38:43 7326 20 male R 6 2 15 moral immoralSelf Y y 1 0.4402 
20-May-2018_17:38:45 7326 20 male R 6 2 16 moral moralOther U u 1 0.4543 
20-May-2018_17:38:47 7326 20 male R 6 2 17 moral moralOther U u 1 0.3524 
20-May-2018_17:38:48 7326 20 male R 6 2 18 moral moralSelf U u 1 0.5846 
20-May-2018_17:38:50 7326 20 male R 6 2 19 moral immoralSelf Y y 1 0.4487 
20-May-2018_17:38:52 7326 20 male R 6 2 20 moral immoralOther Y y 1 0.7227 
20-May-2018_17:38:54 7326 20 male R 6 2 21 moral immoralSelf Y y 1 0.4649 
20-May-2018_17:38:56 7326 20 male R 6 2 22 moral immoralOther Y y 1 0.6110 
20-May-2018_17:38:58 7326 20 male R 6 2 23 moral immoralSelf Y y 1 0.6310 
20-May-2018_17:39:00 7326 20 male R 6 2 24 moral moralOther U u 1 0.4431 
20-May-2018_17:39:06 7326 20 male R 6 3 1 moral moralSelf U u 1 0.4595 
20-May-2018_17:39:08 7326 20 male R 6 3 2 moral immoralSelf Y y 1 0.4256 
20-May-2018_17:39:10 7326 20 male R 6 3 3 moral immoralOther Y y 1 0.7678 
20-May-2018_17:39:11 7326 20 male R 6 3 4 moral immoralSelf Y y 1 0.4438 
20-May-2018_17:39:13 7326 20 male R 6 3 5 moral moralSelf U u 1 0.4640 
20-May-2018_17:39:15 7326 20 male R 6 3 6 moral moralOther U u 1 0.4200 
20-May-2018_17:39:17 7326 20 male R 6 3 7 moral moralSelf U u 1 0.5162 
20-May-2018_17:39:18 7326 20 male R 6 3 8 moral moralSelf U u 1 0.5042 
20-May-2018_17:39:20 7326 20 male R 6 3 9 moral immoralOther Y y 1 0.5303 
20-May-2018_17:39:22 7326 20 male R 6 3 10 moral immoralOther Y y 1 0.3144 
20-May-2018_17:39:23 7326 20 male R 6 3 11 moral immoralOther Y y 1 0.3745 
20-May-2018_17:39:25 7326 20 male R 6 3 12 moral immoralSelf Y y 1 0.5206 
20-May-2018_17:39:26 7326 20 male R 6 3 13 moral immoralSelf Y y 1 0.3387 
20-May-2018_17:39:28 7326 20 male R 6 3 14 moral moralOther U u 1 0.4267 
20-May-2018_17:39:30 7326 20 male R 6 3 15 moral moralOther U u 1 0.4229 
20-May-2018_17:39:32 7326 20 male R 6 3 16 moral moralOther U u 1 0.4530 
20-May-2018_17:39:33 7326 20 male R 6 3 17 moral moralSelf U y 0 0.5270 
20-May-2018_17:39:35 7326 20 male R 6 3 18 moral moralOther U u 1 0.4172 
20-May-2018_17:39:37 7326 20 male R 6 3 19 moral moralSelf U u 1 0.5413 
20-May-2018_17:39:38 7326 20 male R 6 3 20 moral immoralSelf Y y 1 0.4074 
20-May-2018_17:39:40 7326 20 male R 6 3 21 moral immoralSelf Y y 1 0.4295 
20-May-2018_17:39:42 7326 20 male R 6 3 22 moral immoralOther Y y 1 0.5596 
20-May-2018_17:39:43 7326 20 male R 6 3 23 moral moralOther U u 1 0.4577 
20-May-2018_17:39:45 7326 20 male R 6 3 24 moral immoralOther Y y 1 0.4538 
20-May-2018_17:39:47 7326 20 male R 6 4 1 moral moralSelf U u 1 0.6499 
20-May-2018_17:39:49 7326 20 male R 6 4 2 moral moralOther U u 1 0.4900 
20-May-2018_17:39:51 7326 20 male R 6 4 3 moral moralOther U u 1 0.4980 
20-May-2018_17:39:53 7326 20 male R 6 4 4 moral moralSelf U u 1 0.5643 
20-May-2018_17:39:55 7326 20 male R 6 4 5 moral immoralOther Y y 1 0.6083 
20-May-2018_17:39:56 7326 20 male R 6 4 6 moral immoralOther Y y 1 0.3767 
20-May-2018_17:39:58 7326 20 male R 6 4 7 moral moralOther U u 1 0.4085 
20-May-2018_17:40:00 7326 20 male R 6 4 8 moral moralSelf U u 1 0.5646 
20-May-2018_17:40:01 7326 20 male R 6 4 9 moral moralOther U u 1 0.3787 
20-May-2018_17:40:03 7326 20 male R 6 4 10 moral moralSelf U u 1 0.5928 
20-May-2018_17:40:05 7326 20 male R 6 4 11 moral immoralSelf Y y 1 0.4948 
20-May-2018_17:40:06 7326 20 male R 6 4 12 moral immoralOther Y y 1 0.5868 
20-May-2018_17:40:08 7326 20 male R 6 4 13 moral immoralOther Y y 1 0.4370 
20-May-2018_17:40:10 7326 20 male R 6 4 14 moral moralSelf U u 1 0.5591 
20-May-2018_17:40:12 7326 20 male R 6 4 15 moral immoralSelf Y y 1 0.4835 
20-May-2018_17:40:14 7326 20 male R 6 4 16 moral immoralSelf Y y 1 0.4557 
20-May-2018_17:40:15 7326 20 male R 6 4 17 moral immoralSelf Y y 1 0.4055 
20-May-2018_17:40:17 7326 20 male R 6 4 18 moral immoralSelf Y y 1 0.4036 
20-May-2018_17:40:19 7326 20 male R 6 4 19 moral immoralOther Y u 0 0.4516 
20-May-2018_17:40:20 7326 20 male R 6 4 20 moral immoralSelf Y y 1 0.4179 
20-May-2018_17:40:22 7326 20 male R 6 4 21 moral moralOther U u 1 0.4240 
20-May-2018_17:40:23 7326 20 male R 6 4 22 moral moralSelf U u 1 0.4779 
20-May-2018_17:40:25 7326 20 male R 6 4 23 moral moralOther U u 1 0.5120 
20-May-2018_17:40:27 7326 20 male R 6 4 24 moral immoralOther Y y 1 0.4501 
20-May-2018_17:40:34 7326 20 male R 6 5 1 moral moralOther U u 1 0.4786 
20-May-2018_17:40:36 7326 20 male R 6 5 2 moral moralOther U u 1 0.4246 
20-May-2018_17:40:38 7326 20 male R 6 5 3 moral moralSelf U y 0 0.5147 
20-May-2018_17:40:39 7326 20 male R 6 5 4 moral moralSelf U u 1 0.4249 
20-May-2018_17:40:41 7326 20 male R 6 5 5 moral immoralSelf Y y 1 0.4829 
20-May-2018_17:40:43 7326 20 male R 6 5 6 moral immoralSelf Y y 1 0.4811 
20-May-2018_17:40:45 7326 20 male R 6 5 7 moral immoralOther Y y 1 0.6411 
20-May-2018_17:40:46 7326 20 male R 6 5 8 moral immoralOther Y y 1 0.4852 
20-May-2018_17:40:48 7326 20 male R 6 5 9 moral moralSelf U u 1 0.5373 
20-May-2018_17:40:50 7326 20 male R 6 5 10 moral moralOther U u 1 0.4874 
20-May-2018_17:40:51 7326 20 male R 6 5 11 moral immoralOther Y y 1 0.5335 
20-May-2018_17:40:53 7326 20 male R 6 5 12 moral immoralSelf Y y 1 0.4896 
20-May-2018_17:40:55 7326 20 male R 6 5 13 moral moralOther U u 1 0.4177 
20-May-2018_17:40:57 7326 20 male R 6 5 14 moral immoralOther Y y 1 0.6378 
20-May-2018_17:40:58 7326 20 male R 6 5 15 moral moralSelf U u 1 0.6842 
20-May-2018_17:41:00 7326 20 male R 6 5 16 moral moralSelf U u 1 0.5103 
20-May-2018_17:41:02 7326 20 male R 6 5 17 moral immoralOther Y y 1 0.5082 
20-May-2018_17:41:04 7326 20 male R 6 5 18 moral moralSelf U u 1 0.6462 
20-May-2018_17:41:06 7326 20 male R 6 5 19 moral moralOther U u 1 0.4923 
20-May-2018_17:41:08 7326 20 male R 6 5 20 moral moralOther U u 1 0.5885 
20-May-2018_17:41:10 7326 20 male R 6 5 21 moral immoralSelf Y y 1 0.6127 
20-May-2018_17:41:12 7326 20 male R 6 5 22 moral immoralSelf Y y 1 0.6507 
20-May-2018_17:41:13 7326 20 male R 6 5 23 moral immoralSelf Y y 1 0.3948 
20-May-2018_17:41:15 7326 20 male R 6 5 24 moral immoralOther Y y 1 0.6408 
