Date Sub Age Sex Hand Block Bin Trial Task Shape corrResp Resp ACC RT
30-May-2018_15:49:09 7331 19 male R 1 1 1 self immoralSelf J NA -1 1.0231 
30-May-2018_15:49:11 7331 19 male R 1 1 2 self moralSelf J j 1 0.7380 
30-May-2018_15:49:13 7331 19 male R 1 1 3 self moralOther H h 1 0.6478 
30-May-2018_15:49:15 7331 19 male R 1 1 4 self moralSelf J j 1 0.5400 
30-May-2018_15:49:17 7331 19 male R 1 1 5 self moralOther H NA -1 1.0231 
30-May-2018_15:49:19 7331 19 male R 1 1 6 self moralOther H h 1 0.5143 
30-May-2018_15:49:20 7331 19 male R 1 1 7 self moralOther H h 1 0.6320 
30-May-2018_15:49:22 7331 19 male R 1 1 8 self moralSelf J j 1 0.4368 
30-May-2018_15:49:24 7331 19 male R 1 1 9 self moralSelf J j 1 0.4500 
30-May-2018_15:49:25 7331 19 male R 1 1 10 self immoralOther H h 1 0.6072 
30-May-2018_15:49:28 7331 19 male R 1 1 11 self immoralOther H h 1 0.5546 
30-May-2018_15:49:30 7331 19 male R 1 1 12 self immoralSelf J j 1 0.5072 
30-May-2018_15:49:31 7331 19 male R 1 1 13 self moralSelf J j 1 0.4112 
30-May-2018_15:49:33 7331 19 male R 1 1 14 self immoralSelf J j 1 0.6255 
30-May-2018_15:49:35 7331 19 male R 1 1 15 self immoralOther H h 1 0.5469 
30-May-2018_15:49:37 7331 19 male R 1 1 16 self immoralOther H h 1 0.6186 
30-May-2018_15:49:39 7331 19 male R 1 1 17 self moralOther H h 1 0.4388 
30-May-2018_15:49:41 7331 19 male R 1 1 18 self immoralOther H h 1 0.8493 
30-May-2018_15:49:43 7331 19 male R 1 1 19 self immoralSelf J j 1 0.8305 
30-May-2018_15:49:45 7331 19 male R 1 1 20 self moralSelf J j 1 0.4806 
30-May-2018_15:49:47 7331 19 male R 1 1 21 self immoralSelf J j 1 0.6128 
30-May-2018_15:49:49 7331 19 male R 1 1 22 self immoralOther H h 1 0.5018 
30-May-2018_15:49:51 7331 19 male R 1 1 23 self immoralSelf J j 1 0.7865 
30-May-2018_15:49:53 7331 19 male R 1 1 24 self moralOther H NA -1 1.0231 
30-May-2018_15:49:55 7331 19 male R 1 2 1 self immoralSelf J j 1 0.8041 
30-May-2018_15:49:57 7331 19 male R 1 2 2 self moralOther H h 1 0.7002 
30-May-2018_15:49:59 7331 19 male R 1 2 3 self moralSelf J j 1 0.5356 
30-May-2018_15:50:00 7331 19 male R 1 2 4 self moralOther H h 1 0.5808 
30-May-2018_15:50:02 7331 19 male R 1 2 5 self moralSelf J j 1 0.6251 
30-May-2018_15:50:04 7331 19 male R 1 2 6 self immoralOther H h 1 0.5961 
30-May-2018_15:50:05 7331 19 male R 1 2 7 self immoralOther H h 1 0.5720 
30-May-2018_15:50:07 7331 19 male R 1 2 8 self immoralSelf J j 1 0.9001 
30-May-2018_15:50:09 7331 19 male R 1 2 9 self moralSelf J j 1 0.4556 
30-May-2018_15:50:11 7331 19 male R 1 2 10 self immoralSelf J j 1 0.4692 
30-May-2018_15:50:13 7331 19 male R 1 2 11 self moralSelf J j 1 0.4495 
30-May-2018_15:50:15 7331 19 male R 1 2 12 self moralSelf J j 1 0.4793 
30-May-2018_15:50:16 7331 19 male R 1 2 13 self immoralOther H h 1 0.4939 
30-May-2018_15:50:18 7331 19 male R 1 2 14 self immoralSelf J j 1 0.5843 
30-May-2018_15:50:20 7331 19 male R 1 2 15 self moralOther H h 1 0.6272 
30-May-2018_15:50:22 7331 19 male R 1 2 16 self immoralOther H h 1 0.6104 
30-May-2018_15:50:24 7331 19 male R 1 2 17 self immoralSelf J j 1 0.5826 
30-May-2018_15:50:26 7331 19 male R 1 2 18 self moralOther H h 1 0.9493 
30-May-2018_15:50:28 7331 19 male R 1 2 19 self immoralSelf J j 1 0.5052 
30-May-2018_15:50:29 7331 19 male R 1 2 20 self moralOther H h 1 0.5476 
30-May-2018_15:50:31 7331 19 male R 1 2 21 self immoralOther H h 1 0.6046 
30-May-2018_15:50:33 7331 19 male R 1 2 22 self moralSelf J j 1 0.3180 
30-May-2018_15:50:34 7331 19 male R 1 2 23 self moralOther H h 1 0.4278 
30-May-2018_15:50:36 7331 19 male R 1 2 24 self immoralOther H h 1 0.6006 
30-May-2018_15:50:53 7331 19 male R 1 3 1 self moralSelf J j 1 0.5122 
30-May-2018_15:50:54 7331 19 male R 1 3 2 self immoralSelf J j 1 0.4643 
30-May-2018_15:50:56 7331 19 male R 1 3 3 self immoralSelf J j 1 0.5768 
30-May-2018_15:50:58 7331 19 male R 1 3 4 self immoralOther H h 1 0.4061 
30-May-2018_15:50:59 7331 19 male R 1 3 5 self immoralSelf J j 1 0.4598 
30-May-2018_15:51:01 7331 19 male R 1 3 6 self moralOther H h 1 0.3841 
30-May-2018_15:51:02 7331 19 male R 1 3 7 self immoralOther H h 1 0.5074 
30-May-2018_15:51:04 7331 19 male R 1 3 8 self immoralOther H h 1 0.5342 
30-May-2018_15:51:06 7331 19 male R 1 3 9 self moralOther H h 1 0.5532 
30-May-2018_15:51:08 7331 19 male R 1 3 10 self immoralSelf J j 1 0.6897 
30-May-2018_15:51:10 7331 19 male R 1 3 11 self moralSelf J j 1 0.3595 
30-May-2018_15:51:11 7331 19 male R 1 3 12 self moralOther H h 1 0.5840 
30-May-2018_15:51:13 7331 19 male R 1 3 13 self moralSelf J j 1 0.6156 
30-May-2018_15:51:15 7331 19 male R 1 3 14 self moralSelf J j 1 0.4185 
30-May-2018_15:51:17 7331 19 male R 1 3 15 self moralOther H h 1 0.5296 
30-May-2018_15:51:19 7331 19 male R 1 3 16 self immoralSelf J j 1 0.5989 
30-May-2018_15:51:21 7331 19 male R 1 3 17 self immoralSelf J j 1 0.8314 
30-May-2018_15:51:22 7331 19 male R 1 3 18 self immoralOther H h 1 0.5750 
30-May-2018_15:51:24 7331 19 male R 1 3 19 self immoralOther H h 1 0.5868 
30-May-2018_15:51:26 7331 19 male R 1 3 20 self moralOther H NA -1 1.0231 
30-May-2018_15:51:28 7331 19 male R 1 3 21 self moralOther H h 1 0.5762 
30-May-2018_15:51:30 7331 19 male R 1 3 22 self moralSelf J j 1 0.4068 
30-May-2018_15:51:32 7331 19 male R 1 3 23 self immoralOther H h 1 0.5589 
30-May-2018_15:51:34 7331 19 male R 1 3 24 self moralSelf J j 1 0.5444 
30-May-2018_15:51:36 7331 19 male R 1 4 1 self immoralSelf J j 1 0.4075 
30-May-2018_15:51:37 7331 19 male R 1 4 2 self moralSelf J j 1 0.5388 
30-May-2018_15:51:39 7331 19 male R 1 4 3 self immoralOther H h 1 0.6030 
30-May-2018_15:51:41 7331 19 male R 1 4 4 self moralOther H h 1 0.6783 
30-May-2018_15:51:43 7331 19 male R 1 4 5 self immoralSelf J j 1 0.6233 
30-May-2018_15:51:45 7331 19 male R 1 4 6 self moralSelf J j 1 0.5764 
30-May-2018_15:51:47 7331 19 male R 1 4 7 self moralSelf J j 1 0.4385 
30-May-2018_15:51:48 7331 19 male R 1 4 8 self moralSelf J j 1 0.4287 
30-May-2018_15:51:50 7331 19 male R 1 4 9 self immoralSelf J j 1 0.5097 
30-May-2018_15:51:52 7331 19 male R 1 4 10 self moralSelf J j 1 0.6016 
30-May-2018_15:51:54 7331 19 male R 1 4 11 self moralOther H h 1 0.5677 
30-May-2018_15:51:56 7331 19 male R 1 4 12 self immoralOther H h 1 0.6365 
30-May-2018_15:51:58 7331 19 male R 1 4 13 self moralOther H NA -1 1.0231 
30-May-2018_15:52:00 7331 19 male R 1 4 14 self immoralSelf J j 1 0.5962 
30-May-2018_15:52:02 7331 19 male R 1 4 15 self moralOther H h 1 0.7338 
30-May-2018_15:52:04 7331 19 male R 1 4 16 self moralOther H h 1 0.5409 
30-May-2018_15:52:05 7331 19 male R 1 4 17 self immoralOther H h 1 0.6853 
30-May-2018_15:52:07 7331 19 male R 1 4 18 self moralOther H h 1 0.5616 
30-May-2018_15:52:09 7331 19 male R 1 4 19 self immoralSelf J j 1 0.4818 
30-May-2018_15:52:11 7331 19 male R 1 4 20 self immoralOther H h 1 0.5449 
30-May-2018_15:52:13 7331 19 male R 1 4 21 self moralSelf J j 1 0.9354 
30-May-2018_15:52:15 7331 19 male R 1 4 22 self immoralOther H h 1 0.6019 
30-May-2018_15:52:17 7331 19 male R 1 4 23 self immoralSelf J j 1 0.5389 
30-May-2018_15:52:19 7331 19 male R 1 4 24 self immoralOther H h 1 0.5254 
30-May-2018_15:52:39 7331 19 male R 1 5 1 self immoralSelf J j 1 0.4339 
30-May-2018_15:52:41 7331 19 male R 1 5 2 self moralOther H h 1 0.4881 
30-May-2018_15:52:43 7331 19 male R 1 5 3 self moralSelf J j 1 0.3884 
30-May-2018_15:52:44 7331 19 male R 1 5 4 self immoralSelf J j 1 0.5442 
30-May-2018_15:52:46 7331 19 male R 1 5 5 self moralOther H h 1 0.4497 
30-May-2018_15:52:48 7331 19 male R 1 5 6 self moralSelf J j 1 0.3025 
30-May-2018_15:52:50 7331 19 male R 1 5 7 self immoralOther H h 1 0.4823 
30-May-2018_15:52:51 7331 19 male R 1 5 8 self moralSelf J j 1 0.4343 
30-May-2018_15:52:53 7331 19 male R 1 5 9 self immoralSelf J j 1 0.4339 
30-May-2018_15:52:55 7331 19 male R 1 5 10 self immoralSelf J j 1 0.6632 
30-May-2018_15:52:57 7331 19 male R 1 5 11 self moralSelf J j 1 0.6088 
30-May-2018_15:52:59 7331 19 male R 1 5 12 self immoralOther H h 1 0.5433 
30-May-2018_15:53:00 7331 19 male R 1 5 13 self immoralSelf J h 0 0.3467 
30-May-2018_15:53:02 7331 19 male R 1 5 14 self moralSelf J j 1 0.5044 
30-May-2018_15:53:04 7331 19 male R 1 5 15 self moralOther H h 1 0.8626 
30-May-2018_15:53:06 7331 19 male R 1 5 16 self immoralOther H h 1 0.5695 
30-May-2018_15:53:08 7331 19 male R 1 5 17 self immoralOther H h 1 0.7253 
30-May-2018_15:53:10 7331 19 male R 1 5 18 self moralOther H h 1 0.8727 
30-May-2018_15:53:12 7331 19 male R 1 5 19 self moralOther H h 1 0.6737 
30-May-2018_15:53:13 7331 19 male R 1 5 20 self moralOther H h 1 0.5717 
30-May-2018_15:53:15 7331 19 male R 1 5 21 self immoralOther H h 1 0.5392 
30-May-2018_15:53:17 7331 19 male R 1 5 22 self immoralSelf J j 1 0.5347 
30-May-2018_15:53:19 7331 19 male R 1 5 23 self immoralOther H h 1 0.5751 
30-May-2018_15:53:21 7331 19 male R 1 5 24 self moralSelf J j 1 0.5799 
Date Sub Age Sex Hand Block Bin Trial Task Shape corrResp Resp ACC RT
30-May-2018_15:56:08 7331 19 male R 2 1 1 moral immoralSelf U u 1 0.7062 
30-May-2018_15:56:10 7331 19 male R 2 1 2 moral moralSelf Y y 1 0.6047 
30-May-2018_15:56:12 7331 19 male R 2 1 3 moral immoralSelf U u 1 0.4711 
30-May-2018_15:56:13 7331 19 male R 2 1 4 moral moralOther Y y 1 0.4147 
30-May-2018_15:56:15 7331 19 male R 2 1 5 moral moralOther Y y 1 0.7540 
30-May-2018_15:56:17 7331 19 male R 2 1 6 moral immoralSelf U u 1 0.4750 
30-May-2018_15:56:19 7331 19 male R 2 1 7 moral moralSelf Y y 1 0.5057 
30-May-2018_15:56:21 7331 19 male R 2 1 8 moral immoralOther U u 1 0.8310 
30-May-2018_15:56:23 7331 19 male R 2 1 9 moral immoralSelf U u 1 0.5243 
30-May-2018_15:56:24 7331 19 male R 2 1 10 moral moralSelf Y y 1 0.5121 
30-May-2018_15:56:26 7331 19 male R 2 1 11 moral immoralOther U u 1 0.5963 
30-May-2018_15:56:28 7331 19 male R 2 1 12 moral immoralOther U u 1 0.6642 
30-May-2018_15:56:30 7331 19 male R 2 1 13 moral moralSelf Y y 1 0.6107 
30-May-2018_15:56:32 7331 19 male R 2 1 14 moral moralOther Y y 1 0.3698 
30-May-2018_15:56:34 7331 19 male R 2 1 15 moral immoralSelf U u 1 0.7383 
30-May-2018_15:56:35 7331 19 male R 2 1 16 moral moralSelf Y y 1 0.6023 
30-May-2018_15:56:37 7331 19 male R 2 1 17 moral moralOther Y y 1 0.5516 
30-May-2018_15:56:39 7331 19 male R 2 1 18 moral moralOther Y y 1 0.6208 
30-May-2018_15:56:41 7331 19 male R 2 1 19 moral immoralSelf U u 1 0.7489 
30-May-2018_15:56:43 7331 19 male R 2 1 20 moral immoralOther U u 1 0.5622 
30-May-2018_15:56:45 7331 19 male R 2 1 21 moral moralOther Y y 1 0.5895 
30-May-2018_15:56:47 7331 19 male R 2 1 22 moral immoralOther U u 1 0.7576 
30-May-2018_15:56:48 7331 19 male R 2 1 23 moral moralSelf Y y 1 0.4782 
30-May-2018_15:56:50 7331 19 male R 2 1 24 moral immoralOther U u 1 0.9088 
30-May-2018_15:56:52 7331 19 male R 2 2 1 moral moralSelf Y y 1 0.6735 
30-May-2018_15:56:54 7331 19 male R 2 2 2 moral immoralSelf U u 1 0.6440 
30-May-2018_15:56:56 7331 19 male R 2 2 3 moral immoralSelf U u 1 0.6356 
30-May-2018_15:56:58 7331 19 male R 2 2 4 moral immoralOther U u 1 0.9768 
30-May-2018_15:57:00 7331 19 male R 2 2 5 moral moralSelf Y y 1 0.3867 
30-May-2018_15:57:02 7331 19 male R 2 2 6 moral immoralOther U u 1 0.4938 
30-May-2018_15:57:04 7331 19 male R 2 2 7 moral immoralSelf U u 1 0.7294 
30-May-2018_15:57:05 7331 19 male R 2 2 8 moral immoralOther U u 1 0.4896 
30-May-2018_15:57:08 7331 19 male R 2 2 9 moral immoralSelf U u 1 0.6323 
30-May-2018_15:57:09 7331 19 male R 2 2 10 moral moralOther Y y 1 0.5067 
30-May-2018_15:57:11 7331 19 male R 2 2 11 moral immoralOther U u 1 0.5825 
30-May-2018_15:57:13 7331 19 male R 2 2 12 moral moralOther Y y 1 0.7477 
30-May-2018_15:57:15 7331 19 male R 2 2 13 moral immoralOther U u 1 0.6288 
30-May-2018_15:57:17 7331 19 male R 2 2 14 moral moralOther Y y 1 0.6717 
30-May-2018_15:57:18 7331 19 male R 2 2 15 moral moralSelf Y y 1 0.5338 
30-May-2018_15:57:20 7331 19 male R 2 2 16 moral moralSelf Y y 1 0.4675 
30-May-2018_15:57:22 7331 19 male R 2 2 17 moral moralOther Y y 1 0.5854 
30-May-2018_15:57:24 7331 19 male R 2 2 18 moral immoralOther U u 1 0.7858 
30-May-2018_15:57:26 7331 19 male R 2 2 19 moral moralSelf Y y 1 0.5651 
30-May-2018_15:57:27 7331 19 male R 2 2 20 moral moralSelf Y y 1 0.4659 
30-May-2018_15:57:29 7331 19 male R 2 2 21 moral immoralSelf U u 1 0.6048 
30-May-2018_15:57:31 7331 19 male R 2 2 22 moral moralOther Y y 1 0.5616 
30-May-2018_15:57:32 7331 19 male R 2 2 23 moral moralOther Y y 1 0.6840 
30-May-2018_15:57:35 7331 19 male R 2 2 24 moral immoralSelf U u 1 0.8427 
30-May-2018_15:57:55 7331 19 male R 2 3 1 moral moralSelf Y y 1 0.4115 
30-May-2018_15:57:56 7331 19 male R 2 3 2 moral moralSelf Y y 1 0.4817 
30-May-2018_15:57:58 7331 19 male R 2 3 3 moral immoralSelf U u 1 0.4520 
30-May-2018_15:58:00 7331 19 male R 2 3 4 moral moralSelf Y y 1 0.4912 
30-May-2018_15:58:01 7331 19 male R 2 3 5 moral immoralSelf U u 1 0.5162 
30-May-2018_15:58:03 7331 19 male R 2 3 6 moral immoralOther U u 1 0.6198 
30-May-2018_15:58:05 7331 19 male R 2 3 7 moral immoralOther U u 1 0.4410 
30-May-2018_15:58:07 7331 19 male R 2 3 8 moral moralSelf Y y 1 0.4359 
30-May-2018_15:58:09 7331 19 male R 2 3 9 moral immoralOther U u 1 0.5008 
30-May-2018_15:58:10 7331 19 male R 2 3 10 moral immoralSelf U u 1 0.5551 
30-May-2018_15:58:12 7331 19 male R 2 3 11 moral moralOther Y y 1 0.6192 
30-May-2018_15:58:14 7331 19 male R 2 3 12 moral immoralOther U u 1 0.5627 
30-May-2018_15:58:16 7331 19 male R 2 3 13 moral moralOther Y y 1 0.5313 
30-May-2018_15:58:17 7331 19 male R 2 3 14 moral immoralSelf U u 1 0.4824 
30-May-2018_15:58:19 7331 19 male R 2 3 15 moral immoralSelf U u 1 0.6049 
30-May-2018_15:58:21 7331 19 male R 2 3 16 moral moralOther Y y 1 0.4793 
30-May-2018_15:58:23 7331 19 male R 2 3 17 moral immoralOther U u 1 0.5922 
30-May-2018_15:58:24 7331 19 male R 2 3 18 moral moralSelf Y y 1 0.4286 
30-May-2018_15:58:26 7331 19 male R 2 3 19 moral moralOther Y y 1 0.5213 
30-May-2018_15:58:28 7331 19 male R 2 3 20 moral moralOther Y y 1 0.3892 
30-May-2018_15:58:29 7331 19 male R 2 3 21 moral immoralOther U u 1 0.4467 
30-May-2018_15:58:31 7331 19 male R 2 3 22 moral moralOther Y y 1 0.4778 
30-May-2018_15:58:33 7331 19 male R 2 3 23 moral immoralSelf U u 1 0.4925 
30-May-2018_15:58:34 7331 19 male R 2 3 24 moral moralSelf Y y 1 0.5089 
30-May-2018_15:58:36 7331 19 male R 2 4 1 moral immoralOther U u 1 0.7843 
30-May-2018_15:58:38 7331 19 male R 2 4 2 moral immoralOther U u 1 0.5401 
30-May-2018_15:58:40 7331 19 male R 2 4 3 moral moralSelf Y y 1 0.5280 
30-May-2018_15:58:42 7331 19 male R 2 4 4 moral moralOther Y y 1 0.7907 
30-May-2018_15:58:44 7331 19 male R 2 4 5 moral immoralOther U u 1 0.5898 
30-May-2018_15:58:46 7331 19 male R 2 4 6 moral immoralSelf U u 1 0.4684 
30-May-2018_15:58:48 7331 19 male R 2 4 7 moral moralOther Y y 1 0.5250 
30-May-2018_15:58:49 7331 19 male R 2 4 8 moral immoralSelf U u 1 0.5529 
30-May-2018_15:58:51 7331 19 male R 2 4 9 moral moralSelf Y y 1 0.5067 
30-May-2018_15:58:53 7331 19 male R 2 4 10 moral moralOther Y y 1 0.5426 
30-May-2018_15:58:54 7331 19 male R 2 4 11 moral moralOther Y y 1 0.3690 
30-May-2018_15:58:56 7331 19 male R 2 4 12 moral immoralSelf U u 1 0.4853 
30-May-2018_15:58:58 7331 19 male R 2 4 13 moral immoralSelf U u 1 0.5216 
30-May-2018_15:59:00 7331 19 male R 2 4 14 moral immoralSelf U u 1 0.4897 
30-May-2018_15:59:01 7331 19 male R 2 4 15 moral moralSelf Y y 1 0.5147 
30-May-2018_15:59:03 7331 19 male R 2 4 16 moral immoralOther U u 1 0.4978 
30-May-2018_15:59:05 7331 19 male R 2 4 17 moral moralSelf Y y 1 0.4437 
30-May-2018_15:59:07 7331 19 male R 2 4 18 moral moralSelf Y y 1 0.5403 
30-May-2018_15:59:08 7331 19 male R 2 4 19 moral moralOther Y y 1 0.6091 
30-May-2018_15:59:10 7331 19 male R 2 4 20 moral moralOther Y y 1 0.3912 
30-May-2018_15:59:11 7331 19 male R 2 4 21 moral immoralOther U y 0 0.3597 
30-May-2018_15:59:13 7331 19 male R 2 4 22 moral immoralSelf U u 1 0.5806 
30-May-2018_15:59:15 7331 19 male R 2 4 23 moral immoralOther U u 1 0.4884 
30-May-2018_15:59:17 7331 19 male R 2 4 24 moral moralSelf Y y 1 0.5491 
30-May-2018_15:59:34 7331 19 male R 2 5 1 moral immoralSelf U u 1 0.7116 
30-May-2018_15:59:35 7331 19 male R 2 5 2 moral immoralSelf U u 1 0.3997 
30-May-2018_15:59:37 7331 19 male R 2 5 3 moral moralSelf Y y 1 0.4050 
30-May-2018_15:59:38 7331 19 male R 2 5 4 moral moralOther Y y 1 0.4191 
30-May-2018_15:59:40 7331 19 male R 2 5 5 moral immoralSelf U u 1 0.4089 
30-May-2018_15:59:42 7331 19 male R 2 5 6 moral moralSelf Y y 1 0.3684 
30-May-2018_15:59:44 7331 19 male R 2 5 7 moral moralSelf Y y 1 0.4334 
30-May-2018_15:59:45 7331 19 male R 2 5 8 moral immoralOther U u 1 0.5836 
30-May-2018_15:59:47 7331 19 male R 2 5 9 moral immoralOther U u 1 0.4858 
30-May-2018_15:59:49 7331 19 male R 2 5 10 moral moralOther Y y 1 0.4360 
30-May-2018_15:59:51 7331 19 male R 2 5 11 moral moralSelf Y y 1 0.5076 
30-May-2018_15:59:52 7331 19 male R 2 5 12 moral immoralOther U u 1 0.5152 
30-May-2018_15:59:54 7331 19 male R 2 5 13 moral moralOther Y y 1 0.4997 
30-May-2018_15:59:56 7331 19 male R 2 5 14 moral immoralOther U u 1 0.5304 
30-May-2018_15:59:58 7331 19 male R 2 5 15 moral moralSelf Y y 1 0.4289 
30-May-2018_15:59:59 7331 19 male R 2 5 16 moral immoralOther U u 1 0.5488 
30-May-2018_16:00:01 7331 19 male R 2 5 17 moral moralOther Y y 1 0.5895 
30-May-2018_16:00:03 7331 19 male R 2 5 18 moral immoralSelf U u 1 0.6379 
30-May-2018_16:00:05 7331 19 male R 2 5 19 moral immoralSelf U u 1 0.5942 
30-May-2018_16:00:07 7331 19 male R 2 5 20 moral immoralSelf U u 1 0.5143 
30-May-2018_16:00:08 7331 19 male R 2 5 21 moral moralOther Y y 1 0.4203 
30-May-2018_16:00:10 7331 19 male R 2 5 22 moral immoralOther U u 1 0.4867 
30-May-2018_16:00:12 7331 19 male R 2 5 23 moral moralOther Y y 1 0.9465 
30-May-2018_16:00:14 7331 19 male R 2 5 24 moral moralSelf Y y 1 0.4290 
Date Sub Age Sex Hand Block Bin Trial Task Shape corrResp Resp ACC RT
30-May-2018_16:02:45 7331 19 male R 3 1 1 moral immoralSelf U u 1 0.7776 
30-May-2018_16:02:47 7331 19 male R 3 1 2 moral immoralOther U u 1 0.8775 
30-May-2018_16:02:49 7331 19 male R 3 1 3 moral immoralSelf U u 1 0.6588 
30-May-2018_16:02:50 7331 19 male R 3 1 4 moral moralSelf Y y 1 0.5064 
30-May-2018_16:02:52 7331 19 male R 3 1 5 moral moralSelf Y y 1 0.5930 
30-May-2018_16:02:54 7331 19 male R 3 1 6 moral immoralSelf U u 1 0.5516 
30-May-2018_16:02:56 7331 19 male R 3 1 7 moral moralSelf Y y 1 0.5475 
30-May-2018_16:02:57 7331 19 male R 3 1 8 moral moralOther Y y 1 0.5029 
30-May-2018_16:02:59 7331 19 male R 3 1 9 moral moralOther Y y 1 0.4598 
30-May-2018_16:03:00 7331 19 male R 3 1 10 moral moralSelf Y y 1 0.4503 
30-May-2018_16:03:02 7331 19 male R 3 1 11 moral immoralOther U u 1 0.4875 
30-May-2018_16:03:04 7331 19 male R 3 1 12 moral moralOther Y y 1 0.7224 
30-May-2018_16:03:06 7331 19 male R 3 1 13 moral moralSelf Y y 1 0.5682 
30-May-2018_16:03:08 7331 19 male R 3 1 14 moral immoralOther U u 1 0.5984 
30-May-2018_16:03:10 7331 19 male R 3 1 15 moral immoralSelf U u 1 0.9668 
30-May-2018_16:03:12 7331 19 male R 3 1 16 moral immoralSelf U u 1 0.5467 
30-May-2018_16:03:14 7331 19 male R 3 1 17 moral immoralOther U u 1 0.6616 
30-May-2018_16:03:16 7331 19 male R 3 1 18 moral moralOther Y y 1 0.6791 
30-May-2018_16:03:18 7331 19 male R 3 1 19 moral immoralOther U u 1 0.7483 
30-May-2018_16:03:20 7331 19 male R 3 1 20 moral moralSelf Y y 1 0.5033 
30-May-2018_16:03:22 7331 19 male R 3 1 21 moral moralOther Y y 1 0.5546 
30-May-2018_16:03:24 7331 19 male R 3 1 22 moral immoralSelf U u 1 0.5834 
30-May-2018_16:03:25 7331 19 male R 3 1 23 moral moralOther Y y 1 0.6173 
30-May-2018_16:03:27 7331 19 male R 3 1 24 moral immoralOther U u 1 0.6065 
30-May-2018_16:03:29 7331 19 male R 3 2 1 moral immoralOther U u 1 0.4932 
30-May-2018_16:03:31 7331 19 male R 3 2 2 moral moralOther Y y 1 0.5611 
30-May-2018_16:03:33 7331 19 male R 3 2 3 moral immoralSelf U u 1 0.6534 
30-May-2018_16:03:34 7331 19 male R 3 2 4 moral moralSelf Y y 1 0.4007 
30-May-2018_16:03:36 7331 19 male R 3 2 5 moral immoralSelf U u 1 0.4582 
30-May-2018_16:03:38 7331 19 male R 3 2 6 moral immoralSelf U u 1 0.5500 
30-May-2018_16:03:39 7331 19 male R 3 2 7 moral moralSelf Y y 1 0.5337 
30-May-2018_16:03:41 7331 19 male R 3 2 8 moral immoralOther U u 1 0.4876 
30-May-2018_16:03:43 7331 19 male R 3 2 9 moral immoralSelf U u 1 0.6909 
30-May-2018_16:03:45 7331 19 male R 3 2 10 moral immoralOther U u 1 0.5597 
30-May-2018_16:03:46 7331 19 male R 3 2 11 moral immoralSelf U u 1 0.6134 
30-May-2018_16:03:48 7331 19 male R 3 2 12 moral moralOther Y y 1 0.6591 
30-May-2018_16:03:50 7331 19 male R 3 2 13 moral moralOther Y y 1 0.6338 
30-May-2018_16:03:52 7331 19 male R 3 2 14 moral moralSelf Y y 1 0.4866 
30-May-2018_16:03:54 7331 19 male R 3 2 15 moral immoralSelf U u 1 0.5290 
30-May-2018_16:03:56 7331 19 male R 3 2 16 moral immoralOther U u 1 0.5757 
30-May-2018_16:03:58 7331 19 male R 3 2 17 moral moralSelf Y y 1 0.5090 
30-May-2018_16:04:00 7331 19 male R 3 2 18 moral immoralOther U u 1 0.6450 
30-May-2018_16:04:02 7331 19 male R 3 2 19 moral immoralOther U u 1 0.5914 
30-May-2018_16:04:04 7331 19 male R 3 2 20 moral moralOther Y y 1 0.7877 
30-May-2018_16:04:05 7331 19 male R 3 2 21 moral moralOther Y y 1 0.6019 
30-May-2018_16:04:07 7331 19 male R 3 2 22 moral moralSelf Y y 1 0.5423 
30-May-2018_16:04:09 7331 19 male R 3 2 23 moral moralOther Y y 1 0.5639 
30-May-2018_16:04:11 7331 19 male R 3 2 24 moral moralSelf Y y 1 0.4284 
30-May-2018_16:04:31 7331 19 male R 3 3 1 moral moralSelf Y y 1 0.3860 
30-May-2018_16:04:33 7331 19 male R 3 3 2 moral immoralSelf U u 1 0.4166 
30-May-2018_16:04:35 7331 19 male R 3 3 3 moral immoralOther U u 1 0.4891 
30-May-2018_16:04:37 7331 19 male R 3 3 4 moral immoralSelf U u 1 0.5193 
30-May-2018_16:04:39 7331 19 male R 3 3 5 moral immoralOther U u 1 0.5020 
30-May-2018_16:04:40 7331 19 male R 3 3 6 moral immoralOther U u 1 0.4319 
30-May-2018_16:04:42 7331 19 male R 3 3 7 moral moralOther Y y 1 0.5633 
30-May-2018_16:04:44 7331 19 male R 3 3 8 moral immoralOther U u 1 0.5953 
30-May-2018_16:04:45 7331 19 male R 3 3 9 moral immoralSelf U u 1 0.5639 
30-May-2018_16:04:47 7331 19 male R 3 3 10 moral immoralOther U u 1 0.5376 
30-May-2018_16:04:49 7331 19 male R 3 3 11 moral moralSelf Y y 1 0.5164 
30-May-2018_16:04:51 7331 19 male R 3 3 12 moral moralSelf Y y 1 0.4521 
30-May-2018_16:04:52 7331 19 male R 3 3 13 moral immoralSelf U u 1 0.5213 
30-May-2018_16:04:54 7331 19 male R 3 3 14 moral moralOther Y y 1 0.6015 
30-May-2018_16:04:56 7331 19 male R 3 3 15 moral moralOther Y y 1 0.6669 
30-May-2018_16:04:58 7331 19 male R 3 3 16 moral immoralSelf U u 1 0.5616 
30-May-2018_16:05:00 7331 19 male R 3 3 17 moral immoralOther U u 1 0.5635 
30-May-2018_16:05:02 7331 19 male R 3 3 18 moral moralOther Y y 1 0.5508 
30-May-2018_16:05:04 7331 19 male R 3 3 19 moral moralSelf Y NA -1 1.0231 
30-May-2018_16:05:06 7331 19 male R 3 3 20 moral moralOther Y y 1 0.6056 
30-May-2018_16:05:08 7331 19 male R 3 3 21 moral moralSelf Y y 1 0.4951 
30-May-2018_16:05:09 7331 19 male R 3 3 22 moral immoralSelf U u 1 0.4688 
30-May-2018_16:05:11 7331 19 male R 3 3 23 moral moralOther Y y 1 0.5950 
30-May-2018_16:05:13 7331 19 male R 3 3 24 moral moralSelf Y y 1 0.5687 
30-May-2018_16:05:15 7331 19 male R 3 4 1 moral moralOther Y y 1 0.4859 
30-May-2018_16:05:17 7331 19 male R 3 4 2 moral moralSelf Y NA -1 1.0231 
30-May-2018_16:05:19 7331 19 male R 3 4 3 moral moralOther Y y 1 0.5510 
30-May-2018_16:05:21 7331 19 male R 3 4 4 moral immoralOther U u 1 0.6363 
30-May-2018_16:05:23 7331 19 male R 3 4 5 moral immoralSelf U u 1 0.4975 
30-May-2018_16:05:25 7331 19 male R 3 4 6 moral immoralSelf U u 1 0.5841 
30-May-2018_16:05:26 7331 19 male R 3 4 7 moral immoralOther U u 1 0.4850 
30-May-2018_16:05:28 7331 19 male R 3 4 8 moral moralSelf Y y 1 0.4873 
30-May-2018_16:05:30 7331 19 male R 3 4 9 moral immoralSelf U u 1 0.5101 
30-May-2018_16:05:32 7331 19 male R 3 4 10 moral moralOther Y y 1 0.5769 
30-May-2018_16:05:33 7331 19 male R 3 4 11 moral immoralSelf U u 1 0.5737 
30-May-2018_16:05:35 7331 19 male R 3 4 12 moral moralSelf Y y 1 0.4476 
30-May-2018_16:05:37 7331 19 male R 3 4 13 moral moralOther Y y 1 0.7240 
30-May-2018_16:05:39 7331 19 male R 3 4 14 moral immoralOther U u 1 0.6088 
30-May-2018_16:05:40 7331 19 male R 3 4 15 moral moralSelf Y y 1 0.4332 
30-May-2018_16:05:42 7331 19 male R 3 4 16 moral moralSelf Y y 1 0.4635 
30-May-2018_16:05:44 7331 19 male R 3 4 17 moral immoralSelf U u 1 0.6165 
30-May-2018_16:05:46 7331 19 male R 3 4 18 moral immoralSelf U u 1 0.5064 
30-May-2018_16:05:48 7331 19 male R 3 4 19 moral moralSelf Y y 1 0.5126 
30-May-2018_16:05:50 7331 19 male R 3 4 20 moral moralOther Y y 1 0.6167 
30-May-2018_16:05:51 7331 19 male R 3 4 21 moral immoralOther U u 1 0.4722 
30-May-2018_16:05:53 7331 19 male R 3 4 22 moral immoralOther U u 1 0.5071 
30-May-2018_16:05:55 7331 19 male R 3 4 23 moral moralOther Y y 1 0.5533 
30-May-2018_16:05:57 7331 19 male R 3 4 24 moral immoralOther U u 1 0.4780 
30-May-2018_16:06:10 7331 19 male R 3 5 1 moral immoralSelf U u 1 0.4367 
30-May-2018_16:06:11 7331 19 male R 3 5 2 moral immoralOther U u 1 0.4805 
30-May-2018_16:06:13 7331 19 male R 3 5 3 moral moralSelf Y y 1 0.5563 
30-May-2018_16:06:15 7331 19 male R 3 5 4 moral immoralOther U u 1 0.4544 
30-May-2018_16:06:17 7331 19 male R 3 5 5 moral moralOther Y y 1 0.4553 
30-May-2018_16:06:19 7331 19 male R 3 5 6 moral immoralOther U u 1 0.4243 
30-May-2018_16:06:20 7331 19 male R 3 5 7 moral moralOther Y y 1 0.4225 
30-May-2018_16:06:22 7331 19 male R 3 5 8 moral immoralSelf U u 1 0.4875 
30-May-2018_16:06:24 7331 19 male R 3 5 9 moral moralOther Y y 1 0.3940 
30-May-2018_16:06:26 7331 19 male R 3 5 10 moral immoralSelf U u 1 0.5559 
30-May-2018_16:06:27 7331 19 male R 3 5 11 moral moralOther Y y 1 0.4995 
30-May-2018_16:06:29 7331 19 male R 3 5 12 moral immoralOther U u 1 0.5499 
30-May-2018_16:06:31 7331 19 male R 3 5 13 moral moralOther Y y 1 0.4949 
30-May-2018_16:06:33 7331 19 male R 3 5 14 moral moralOther Y y 1 0.4423 
30-May-2018_16:06:34 7331 19 male R 3 5 15 moral immoralSelf U u 1 0.4367 
30-May-2018_16:06:36 7331 19 male R 3 5 16 moral moralSelf Y y 1 0.5459 
30-May-2018_16:06:39 7331 19 male R 3 5 17 moral immoralOther U u 1 0.6491 
30-May-2018_16:06:40 7331 19 male R 3 5 18 moral moralSelf Y y 1 0.4915 
30-May-2018_16:06:42 7331 19 male R 3 5 19 moral moralSelf Y y 1 0.4963 
30-May-2018_16:06:44 7331 19 male R 3 5 20 moral moralSelf Y y 1 0.3980 
30-May-2018_16:06:45 7331 19 male R 3 5 21 moral moralSelf Y y 1 0.4540 
30-May-2018_16:06:47 7331 19 male R 3 5 22 moral immoralOther U u 1 0.4476 
30-May-2018_16:06:49 7331 19 male R 3 5 23 moral immoralSelf U u 1 0.4673 
30-May-2018_16:06:51 7331 19 male R 3 5 24 moral immoralSelf U u 1 0.5135 
Date Sub Age Sex Hand Block Bin Trial Task Shape corrResp Resp ACC RT
30-May-2018_16:09:28 7331 19 male R 4 1 1 self immoralSelf J j 1 0.4455 
30-May-2018_16:09:30 7331 19 male R 4 1 2 self immoralOther H h 1 0.7563 
30-May-2018_16:09:32 7331 19 male R 4 1 3 self moralSelf J j 1 0.3671 
30-May-2018_16:09:33 7331 19 male R 4 1 4 self moralSelf J j 1 0.4632 
30-May-2018_16:09:35 7331 19 male R 4 1 5 self immoralOther H h 1 0.5691 
30-May-2018_16:09:38 7331 19 male R 4 1 6 self moralOther H NA -1 1.0231 
30-May-2018_16:09:40 7331 19 male R 4 1 7 self immoralOther H h 1 0.7110 
30-May-2018_16:09:42 7331 19 male R 4 1 8 self immoralSelf J j 1 0.6394 
30-May-2018_16:09:43 7331 19 male R 4 1 9 self immoralOther H h 1 0.5493 
30-May-2018_16:09:45 7331 19 male R 4 1 10 self immoralSelf J j 1 0.4599 
30-May-2018_16:09:47 7331 19 male R 4 1 11 self moralSelf J j 1 0.4129 
30-May-2018_16:09:49 7331 19 male R 4 1 12 self moralOther H h 1 0.5188 
30-May-2018_16:09:50 7331 19 male R 4 1 13 self moralSelf J j 1 0.4304 
30-May-2018_16:09:52 7331 19 male R 4 1 14 self moralOther H h 1 0.7133 
30-May-2018_16:09:54 7331 19 male R 4 1 15 self moralOther H h 1 0.7068 
30-May-2018_16:09:56 7331 19 male R 4 1 16 self immoralSelf J j 1 0.5601 
30-May-2018_16:09:58 7331 19 male R 4 1 17 self moralSelf J j 1 0.5017 
30-May-2018_16:10:00 7331 19 male R 4 1 18 self moralOther H h 1 0.7088 
30-May-2018_16:10:01 7331 19 male R 4 1 19 self moralSelf J j 1 0.4732 
30-May-2018_16:10:04 7331 19 male R 4 1 20 self immoralSelf J j 1 1.0196 
30-May-2018_16:10:05 7331 19 male R 4 1 21 self moralOther H h 1 0.5863 
30-May-2018_16:10:07 7331 19 male R 4 1 22 self immoralSelf J j 1 0.4240 
30-May-2018_16:10:09 7331 19 male R 4 1 23 self immoralOther H h 1 0.6043 
30-May-2018_16:10:11 7331 19 male R 4 1 24 self immoralOther H h 1 0.5370 
30-May-2018_16:10:12 7331 19 male R 4 2 1 self moralSelf J j 1 0.4351 
30-May-2018_16:10:14 7331 19 male R 4 2 2 self immoralSelf J j 1 0.5564 
30-May-2018_16:10:16 7331 19 male R 4 2 3 self moralOther H j 0 0.5383 
30-May-2018_16:10:18 7331 19 male R 4 2 4 self immoralSelf J j 1 0.6573 
30-May-2018_16:10:20 7331 19 male R 4 2 5 self immoralOther H h 1 0.7656 
30-May-2018_16:10:22 7331 19 male R 4 2 6 self moralOther H h 1 0.9788 
30-May-2018_16:10:24 7331 19 male R 4 2 7 self immoralOther H h 1 0.6062 
30-May-2018_16:10:26 7331 19 male R 4 2 8 self moralSelf J j 1 0.4369 
30-May-2018_16:10:27 7331 19 male R 4 2 9 self moralSelf J j 1 0.5005 
30-May-2018_16:10:29 7331 19 male R 4 2 10 self immoralOther H h 1 0.5999 
30-May-2018_16:10:32 7331 19 male R 4 2 11 self immoralOther H h 1 0.8903 
30-May-2018_16:10:34 7331 19 male R 4 2 12 self immoralSelf J j 1 0.6687 
30-May-2018_16:10:35 7331 19 male R 4 2 13 self moralSelf J j 1 0.4952 
30-May-2018_16:10:37 7331 19 male R 4 2 14 self moralOther H j 0 0.7366 
30-May-2018_16:10:39 7331 19 male R 4 2 15 self immoralSelf J j 1 0.6402 
30-May-2018_16:10:41 7331 19 male R 4 2 16 self immoralOther H h 1 0.6318 
30-May-2018_16:10:43 7331 19 male R 4 2 17 self moralSelf J j 1 0.5195 
30-May-2018_16:10:45 7331 19 male R 4 2 18 self moralOther H h 1 0.7586 
30-May-2018_16:10:46 7331 19 male R 4 2 19 self moralSelf J j 1 0.3935 
30-May-2018_16:10:48 7331 19 male R 4 2 20 self immoralOther H h 1 0.6321 
30-May-2018_16:10:50 7331 19 male R 4 2 21 self immoralSelf J j 1 0.5376 
30-May-2018_16:10:52 7331 19 male R 4 2 22 self moralOther H h 1 0.7527 
30-May-2018_16:10:54 7331 19 male R 4 2 23 self moralOther H h 1 0.5736 
30-May-2018_16:10:56 7331 19 male R 4 2 24 self immoralSelf J j 1 0.7091 
30-May-2018_16:11:17 7331 19 male R 4 3 1 self moralOther H h 1 0.9871 
30-May-2018_16:11:19 7331 19 male R 4 3 2 self immoralSelf J j 1 0.5843 
30-May-2018_16:11:21 7331 19 male R 4 3 3 self immoralOther H h 1 0.6047 
30-May-2018_16:11:23 7331 19 male R 4 3 4 self immoralOther H h 1 0.5195 
30-May-2018_16:11:24 7331 19 male R 4 3 5 self moralSelf J j 1 0.3954 
30-May-2018_16:11:26 7331 19 male R 4 3 6 self immoralOther H h 1 0.5084 
30-May-2018_16:11:28 7331 19 male R 4 3 7 self immoralOther H h 1 0.4482 
30-May-2018_16:11:30 7331 19 male R 4 3 8 self immoralOther H h 1 0.6925 
30-May-2018_16:11:32 7331 19 male R 4 3 9 self immoralSelf J j 1 0.7627 
30-May-2018_16:11:34 7331 19 male R 4 3 10 self moralOther H h 1 0.5863 
30-May-2018_16:11:35 7331 19 male R 4 3 11 self moralOther H h 1 0.4720 
30-May-2018_16:11:37 7331 19 male R 4 3 12 self immoralSelf J h 0 0.6702 
30-May-2018_16:11:39 7331 19 male R 4 3 13 self immoralOther H h 1 0.5197 
30-May-2018_16:11:41 7331 19 male R 4 3 14 self moralSelf J j 1 0.3701 
30-May-2018_16:11:42 7331 19 male R 4 3 15 self immoralSelf J j 1 0.6953 
30-May-2018_16:11:44 7331 19 male R 4 3 16 self moralSelf J j 1 0.4403 
30-May-2018_16:11:46 7331 19 male R 4 3 17 self moralOther H h 1 0.7382 
30-May-2018_16:11:48 7331 19 male R 4 3 18 self moralSelf J j 1 0.4861 
30-May-2018_16:11:50 7331 19 male R 4 3 19 self moralOther H h 1 0.7111 
30-May-2018_16:11:52 7331 19 male R 4 3 20 self moralOther H h 1 0.6382 
30-May-2018_16:11:54 7331 19 male R 4 3 21 self moralSelf J j 1 0.4816 
30-May-2018_16:11:56 7331 19 male R 4 3 22 self immoralSelf J j 1 0.6101 
30-May-2018_16:11:57 7331 19 male R 4 3 23 self immoralSelf J j 1 0.7871 
30-May-2018_16:11:59 7331 19 male R 4 3 24 self moralSelf J j 1 0.5765 
30-May-2018_16:12:01 7331 19 male R 4 4 1 self moralSelf J j 1 0.5097 
30-May-2018_16:12:03 7331 19 male R 4 4 2 self moralOther H h 1 0.5851 
30-May-2018_16:12:05 7331 19 male R 4 4 3 self immoralOther H h 1 0.6152 
30-May-2018_16:12:07 7331 19 male R 4 4 4 self moralSelf J j 1 0.5051 
30-May-2018_16:12:09 7331 19 male R 4 4 5 self immoralSelf J j 1 0.6535 
30-May-2018_16:12:10 7331 19 male R 4 4 6 self immoralSelf J j 1 0.4079 
30-May-2018_16:12:12 7331 19 male R 4 4 7 self immoralOther H h 1 0.5096 
30-May-2018_16:12:14 7331 19 male R 4 4 8 self moralOther H h 1 0.8970 
30-May-2018_16:12:16 7331 19 male R 4 4 9 self moralSelf J j 1 0.4288 
30-May-2018_16:12:17 7331 19 male R 4 4 10 self moralOther H h 1 0.4840 
30-May-2018_16:12:19 7331 19 male R 4 4 11 self moralOther H h 1 0.5551 
30-May-2018_16:12:21 7331 19 male R 4 4 12 self immoralOther H h 1 0.4591 
30-May-2018_16:12:22 7331 19 male R 4 4 13 self moralSelf J j 1 0.5109 
30-May-2018_16:12:24 7331 19 male R 4 4 14 self immoralSelf J j 1 0.5374 
30-May-2018_16:12:26 7331 19 male R 4 4 15 self immoralSelf J j 1 0.6499 
30-May-2018_16:12:28 7331 19 male R 4 4 16 self moralOther H h 1 0.6043 
30-May-2018_16:12:30 7331 19 male R 4 4 17 self moralOther H h 1 0.6482 
30-May-2018_16:12:32 7331 19 male R 4 4 18 self immoralOther H h 1 0.5842 
30-May-2018_16:12:34 7331 19 male R 4 4 19 self immoralSelf J j 1 0.5373 
30-May-2018_16:12:36 7331 19 male R 4 4 20 self moralSelf J j 1 0.7717 
30-May-2018_16:12:38 7331 19 male R 4 4 21 self immoralSelf J j 1 0.5341 
30-May-2018_16:12:40 7331 19 male R 4 4 22 self immoralOther H h 1 0.5949 
30-May-2018_16:12:41 7331 19 male R 4 4 23 self immoralOther H h 1 0.4905 
30-May-2018_16:12:43 7331 19 male R 4 4 24 self moralSelf J j 1 0.5781 
30-May-2018_16:12:55 7331 19 male R 4 5 1 self immoralOther H NA -1 1.0231 
30-May-2018_16:12:57 7331 19 male R 4 5 2 self moralOther H h 1 0.6802 
30-May-2018_16:12:59 7331 19 male R 4 5 3 self moralOther H j 0 0.7024 
30-May-2018_16:13:00 7331 19 male R 4 5 4 self immoralOther H h 1 0.6700 
30-May-2018_16:13:02 7331 19 male R 4 5 5 self moralSelf J j 1 0.5010 
30-May-2018_16:13:04 7331 19 male R 4 5 6 self moralSelf J j 1 0.5163 
30-May-2018_16:13:05 7331 19 male R 4 5 7 self immoralOther H h 1 0.5167 
30-May-2018_16:13:07 7331 19 male R 4 5 8 self immoralSelf J j 1 0.4128 
30-May-2018_16:13:10 7331 19 male R 4 5 9 self moralOther H h 1 0.9156 
30-May-2018_16:13:12 7331 19 male R 4 5 10 self immoralSelf J NA -1 1.0231 
30-May-2018_16:13:14 7331 19 male R 4 5 11 self moralOther H h 1 0.6827 
30-May-2018_16:13:16 7331 19 male R 4 5 12 self immoralSelf J j 1 0.6151 
30-May-2018_16:13:17 7331 19 male R 4 5 13 self moralSelf J j 1 0.3988 
30-May-2018_16:13:19 7331 19 male R 4 5 14 self moralSelf J j 1 0.4486 
30-May-2018_16:13:20 7331 19 male R 4 5 15 self moralSelf J j 1 0.5060 
30-May-2018_16:13:22 7331 19 male R 4 5 16 self immoralOther H h 1 0.6036 
30-May-2018_16:13:24 7331 19 male R 4 5 17 self immoralOther H h 1 0.5424 
30-May-2018_16:13:26 7331 19 male R 4 5 18 self moralSelf J j 1 0.5548 
30-May-2018_16:13:28 7331 19 male R 4 5 19 self moralOther H h 1 0.5219 
30-May-2018_16:13:29 7331 19 male R 4 5 20 self immoralSelf J j 1 0.5360 
30-May-2018_16:13:31 7331 19 male R 4 5 21 self moralOther H h 1 0.8326 
30-May-2018_16:13:33 7331 19 male R 4 5 22 self immoralSelf J j 1 0.8181 
30-May-2018_16:13:35 7331 19 male R 4 5 23 self immoralSelf J j 1 0.6525 
30-May-2018_16:13:37 7331 19 male R 4 5 24 self immoralOther H h 1 0.4568 
Date Sub Age Sex Hand Block Bin Trial Task Shape corrResp Resp ACC RT
30-May-2018_16:15:59 7331 19 male R 5 1 1 self immoralOther H h 1 0.5778 
30-May-2018_16:16:01 7331 19 male R 5 1 2 self immoralOther H h 1 0.4697 
30-May-2018_16:16:03 7331 19 male R 5 1 3 self immoralOther H h 1 0.4745 
30-May-2018_16:16:05 7331 19 male R 5 1 4 self moralOther H j 0 0.4845 
30-May-2018_16:16:07 7331 19 male R 5 1 5 self moralSelf J j 1 0.5128 
30-May-2018_16:16:08 7331 19 male R 5 1 6 self immoralSelf J j 1 0.4305 
30-May-2018_16:16:10 7331 19 male R 5 1 7 self moralSelf J j 1 0.5031 
30-May-2018_16:16:12 7331 19 male R 5 1 8 self immoralSelf J j 1 0.4014 
30-May-2018_16:16:14 7331 19 male R 5 1 9 self moralOther H h 1 0.7253 
30-May-2018_16:16:15 7331 19 male R 5 1 10 self moralOther H h 1 0.5173 
30-May-2018_16:16:17 7331 19 male R 5 1 11 self immoralSelf J j 1 0.5325 
30-May-2018_16:16:19 7331 19 male R 5 1 12 self moralOther H h 1 0.7057 
30-May-2018_16:16:20 7331 19 male R 5 1 13 self moralSelf J j 1 0.4893 
30-May-2018_16:16:22 7331 19 male R 5 1 14 self moralSelf J j 1 0.4366 
30-May-2018_16:16:24 7331 19 male R 5 1 15 self immoralOther H h 1 0.5069 
30-May-2018_16:16:26 7331 19 male R 5 1 16 self immoralSelf J j 1 0.4137 
30-May-2018_16:16:27 7331 19 male R 5 1 17 self immoralOther H h 1 0.5639 
30-May-2018_16:16:29 7331 19 male R 5 1 18 self immoralSelf J j 1 0.5498 
30-May-2018_16:16:31 7331 19 male R 5 1 19 self moralSelf J j 1 0.3443 
30-May-2018_16:16:32 7331 19 male R 5 1 20 self moralSelf J j 1 0.6182 
30-May-2018_16:16:34 7331 19 male R 5 1 21 self moralOther H h 1 0.8310 
30-May-2018_16:16:36 7331 19 male R 5 1 22 self immoralOther H h 1 0.7129 
30-May-2018_16:16:38 7331 19 male R 5 1 23 self moralOther H h 1 0.4697 
30-May-2018_16:16:40 7331 19 male R 5 1 24 self immoralSelf J j 1 0.5074 
30-May-2018_16:16:42 7331 19 male R 5 2 1 self immoralOther H h 1 0.6712 
30-May-2018_16:16:44 7331 19 male R 5 2 2 self immoralSelf J j 1 0.8351 
30-May-2018_16:16:46 7331 19 male R 5 2 3 self immoralOther H h 1 0.5529 
30-May-2018_16:16:48 7331 19 male R 5 2 4 self immoralOther H h 1 0.6131 
30-May-2018_16:16:50 7331 19 male R 5 2 5 self moralOther H h 1 0.6156 
30-May-2018_16:16:51 7331 19 male R 5 2 6 self moralOther H h 1 0.5676 
30-May-2018_16:16:53 7331 19 male R 5 2 7 self immoralSelf J j 1 0.5691 
30-May-2018_16:16:55 7331 19 male R 5 2 8 self moralSelf J j 1 0.6633 
30-May-2018_16:16:57 7331 19 male R 5 2 9 self moralSelf J j 1 0.4855 
30-May-2018_16:16:59 7331 19 male R 5 2 10 self immoralOther H h 1 0.6682 
30-May-2018_16:17:01 7331 19 male R 5 2 11 self moralSelf J j 1 0.5191 
30-May-2018_16:17:03 7331 19 male R 5 2 12 self immoralOther H h 1 0.5416 
30-May-2018_16:17:04 7331 19 male R 5 2 13 self moralSelf J j 1 0.6467 
30-May-2018_16:17:06 7331 19 male R 5 2 14 self immoralSelf J j 1 0.5653 
30-May-2018_16:17:08 7331 19 male R 5 2 15 self immoralSelf J j 1 0.5871 
30-May-2018_16:17:09 7331 19 male R 5 2 16 self moralSelf J j 1 0.4442 
30-May-2018_16:17:11 7331 19 male R 5 2 17 self moralOther H h 1 0.6333 
30-May-2018_16:17:13 7331 19 male R 5 2 18 self moralSelf J j 1 0.5308 
30-May-2018_16:17:15 7331 19 male R 5 2 19 self moralOther H h 1 0.8367 
30-May-2018_16:17:16 7331 19 male R 5 2 20 self immoralSelf J j 1 0.5013 
30-May-2018_16:17:18 7331 19 male R 5 2 21 self immoralOther H h 1 0.6025 
30-May-2018_16:17:20 7331 19 male R 5 2 22 self moralOther H j 0 0.3570 
30-May-2018_16:17:22 7331 19 male R 5 2 23 self immoralSelf J j 1 0.4859 
30-May-2018_16:17:24 7331 19 male R 5 2 24 self moralOther H h 1 0.7063 
30-May-2018_16:17:40 7331 19 male R 5 3 1 self immoralSelf J j 1 0.6415 
30-May-2018_16:17:42 7331 19 male R 5 3 2 self moralOther H h 1 0.5248 
30-May-2018_16:17:44 7331 19 male R 5 3 3 self moralSelf J j 1 0.3367 
30-May-2018_16:17:45 7331 19 male R 5 3 4 self immoralOther H h 1 0.5470 
30-May-2018_16:17:47 7331 19 male R 5 3 5 self moralSelf J j 1 0.4351 
30-May-2018_16:17:49 7331 19 male R 5 3 6 self moralSelf J j 1 0.4013 
30-May-2018_16:17:51 7331 19 male R 5 3 7 self immoralSelf J j 1 0.6428 
30-May-2018_16:17:52 7331 19 male R 5 3 8 self moralOther H h 1 0.5318 
30-May-2018_16:17:54 7331 19 male R 5 3 9 self moralOther H h 1 0.5493 
30-May-2018_16:17:56 7331 19 male R 5 3 10 self immoralOther H h 1 0.5343 
30-May-2018_16:17:57 7331 19 male R 5 3 11 self immoralOther H h 1 0.5574 
30-May-2018_16:17:59 7331 19 male R 5 3 12 self moralOther H h 1 0.5052 
30-May-2018_16:18:01 7331 19 male R 5 3 13 self immoralSelf J j 1 0.5148 
30-May-2018_16:18:02 7331 19 male R 5 3 14 self immoralOther H h 1 0.6221 
30-May-2018_16:18:04 7331 19 male R 5 3 15 self moralSelf J j 1 0.5244 
30-May-2018_16:18:06 7331 19 male R 5 3 16 self immoralSelf J j 1 0.5465 
30-May-2018_16:18:08 7331 19 male R 5 3 17 self immoralSelf J j 1 0.6458 
30-May-2018_16:18:09 7331 19 male R 5 3 18 self immoralSelf J j 1 0.4459 
30-May-2018_16:18:11 7331 19 male R 5 3 19 self moralSelf J j 1 0.7693 
30-May-2018_16:18:13 7331 19 male R 5 3 20 self moralOther H h 1 0.4465 
30-May-2018_16:18:14 7331 19 male R 5 3 21 self moralOther H h 1 0.6442 
30-May-2018_16:18:16 7331 19 male R 5 3 22 self immoralOther H h 1 0.5092 
30-May-2018_16:18:18 7331 19 male R 5 3 23 self moralSelf J j 1 0.5600 
30-May-2018_16:18:20 7331 19 male R 5 3 24 self immoralOther H h 1 0.5573 
30-May-2018_16:18:22 7331 19 male R 5 4 1 self moralOther H h 1 0.6412 
30-May-2018_16:18:24 7331 19 male R 5 4 2 self moralSelf J j 1 0.4982 
30-May-2018_16:18:26 7331 19 male R 5 4 3 self immoralSelf J j 1 0.4846 
30-May-2018_16:18:27 7331 19 male R 5 4 4 self moralSelf J j 1 0.4361 
30-May-2018_16:18:29 7331 19 male R 5 4 5 self immoralOther H h 1 0.4909 
30-May-2018_16:18:31 7331 19 male R 5 4 6 self moralOther H h 1 0.5869 
30-May-2018_16:18:33 7331 19 male R 5 4 7 self immoralOther H h 1 0.6910 
30-May-2018_16:18:34 7331 19 male R 5 4 8 self moralSelf J j 1 0.4534 
30-May-2018_16:18:36 7331 19 male R 5 4 9 self immoralOther H h 1 0.4851 
30-May-2018_16:18:38 7331 19 male R 5 4 10 self immoralSelf J j 1 0.4084 
30-May-2018_16:18:40 7331 19 male R 5 4 11 self immoralSelf J j 1 0.6018 
30-May-2018_16:18:42 7331 19 male R 5 4 12 self immoralSelf J j 1 0.3590 
30-May-2018_16:18:43 7331 19 male R 5 4 13 self immoralSelf J j 1 0.3441 
30-May-2018_16:18:45 7331 19 male R 5 4 14 self moralSelf J j 1 0.4335 
30-May-2018_16:18:47 7331 19 male R 5 4 15 self moralOther H h 1 0.7244 
30-May-2018_16:18:49 7331 19 male R 5 4 16 self immoralOther H h 1 0.6275 
30-May-2018_16:18:51 7331 19 male R 5 4 17 self immoralSelf J j 1 0.5420 
30-May-2018_16:18:52 7331 19 male R 5 4 18 self moralSelf J j 1 0.4221 
30-May-2018_16:18:54 7331 19 male R 5 4 19 self moralOther H h 1 0.5064 
30-May-2018_16:18:56 7331 19 male R 5 4 20 self moralSelf J j 1 0.4349 
30-May-2018_16:18:57 7331 19 male R 5 4 21 self moralOther H h 1 0.5639 
30-May-2018_16:18:59 7331 19 male R 5 4 22 self immoralOther H h 1 0.6260 
30-May-2018_16:19:01 7331 19 male R 5 4 23 self immoralOther H h 1 0.6031 
30-May-2018_16:19:03 7331 19 male R 5 4 24 self moralOther H h 1 0.5656 
30-May-2018_16:19:27 7331 19 male R 5 5 1 self moralOther H h 1 0.5410 
30-May-2018_16:19:28 7331 19 male R 5 5 2 self immoralSelf J j 1 0.3773 
30-May-2018_16:19:30 7331 19 male R 5 5 3 self moralSelf J j 1 0.4635 
30-May-2018_16:19:32 7331 19 male R 5 5 4 self immoralOther H h 1 0.5304 
30-May-2018_16:19:34 7331 19 male R 5 5 5 self immoralOther H h 1 0.6382 
30-May-2018_16:19:36 7331 19 male R 5 5 6 self immoralSelf J j 1 0.3927 
30-May-2018_16:19:38 7331 19 male R 5 5 7 self moralOther H h 1 0.6143 
30-May-2018_16:19:40 7331 19 male R 5 5 8 self immoralSelf J j 1 0.5024 
30-May-2018_16:19:41 7331 19 male R 5 5 9 self immoralOther H h 1 0.4996 
30-May-2018_16:19:43 7331 19 male R 5 5 10 self moralOther H h 1 0.5623 
30-May-2018_16:19:45 7331 19 male R 5 5 11 self moralSelf J j 1 0.4302 
30-May-2018_16:19:46 7331 19 male R 5 5 12 self immoralOther H h 1 0.4989 
30-May-2018_16:19:48 7331 19 male R 5 5 13 self moralOther H h 1 0.4811 
30-May-2018_16:19:50 7331 19 male R 5 5 14 self moralSelf J j 1 0.4148 
30-May-2018_16:19:52 7331 19 male R 5 5 15 self immoralSelf J j 1 0.4803 
30-May-2018_16:19:53 7331 19 male R 5 5 16 self moralSelf J j 1 0.5029 
30-May-2018_16:19:55 7331 19 male R 5 5 17 self moralOther H h 1 0.6131 
30-May-2018_16:19:57 7331 19 male R 5 5 18 self immoralOther H h 1 0.5276 
30-May-2018_16:19:58 7331 19 male R 5 5 19 self immoralSelf J j 1 0.4872 
30-May-2018_16:20:00 7331 19 male R 5 5 20 self moralSelf J h 0 0.4642 
30-May-2018_16:20:02 7331 19 male R 5 5 21 self moralSelf J j 1 0.4628 
30-May-2018_16:20:03 7331 19 male R 5 5 22 self immoralOther H h 1 0.4826 
30-May-2018_16:20:05 7331 19 male R 5 5 23 self moralOther H h 1 0.5721 
30-May-2018_16:20:07 7331 19 male R 5 5 24 self immoralSelf J j 1 0.5623 
Date Sub Age Sex Hand Block Bin Trial Task Shape corrResp Resp ACC RT
30-May-2018_16:22:36 7331 19 male R 6 1 1 moral moralSelf Y y 1 0.4949 
30-May-2018_16:22:38 7331 19 male R 6 1 2 moral moralSelf Y y 1 0.5002 
30-May-2018_16:22:40 7331 19 male R 6 1 3 moral immoralOther U u 1 0.5760 
30-May-2018_16:22:42 7331 19 male R 6 1 4 moral moralOther Y y 1 0.5055 
30-May-2018_16:22:44 7331 19 male R 6 1 5 moral immoralOther U u 1 0.7093 
30-May-2018_16:22:46 7331 19 male R 6 1 6 moral immoralOther U u 1 0.5424 
30-May-2018_16:22:48 7331 19 male R 6 1 7 moral immoralSelf U u 1 0.7566 
30-May-2018_16:22:49 7331 19 male R 6 1 8 moral moralSelf Y y 1 0.4550 
30-May-2018_16:22:51 7331 19 male R 6 1 9 moral moralOther Y y 1 0.5652 
30-May-2018_16:22:53 7331 19 male R 6 1 10 moral immoralSelf U u 1 0.6914 
30-May-2018_16:22:55 7331 19 male R 6 1 11 moral moralSelf Y y 1 0.4726 
30-May-2018_16:22:57 7331 19 male R 6 1 12 moral moralSelf Y y 1 0.6378 
30-May-2018_16:22:58 7331 19 male R 6 1 13 moral immoralOther U u 1 0.6596 
30-May-2018_16:23:00 7331 19 male R 6 1 14 moral immoralSelf U u 1 0.8192 
30-May-2018_16:23:02 7331 19 male R 6 1 15 moral immoralOther U u 1 0.4936 
30-May-2018_16:23:04 7331 19 male R 6 1 16 moral immoralSelf U u 1 0.6259 
30-May-2018_16:23:06 7331 19 male R 6 1 17 moral immoralSelf U u 1 0.5977 
30-May-2018_16:23:08 7331 19 male R 6 1 18 moral moralOther Y y 1 0.7823 
30-May-2018_16:23:10 7331 19 male R 6 1 19 moral immoralSelf U u 1 0.8181 
30-May-2018_16:23:12 7331 19 male R 6 1 20 moral moralOther Y NA -1 1.0231 
30-May-2018_16:23:14 7331 19 male R 6 1 21 moral moralSelf Y y 1 0.5858 
30-May-2018_16:23:16 7331 19 male R 6 1 22 moral immoralOther U u 1 0.8254 
30-May-2018_16:23:18 7331 19 male R 6 1 23 moral moralOther Y y 1 0.8095 
30-May-2018_16:23:20 7331 19 male R 6 1 24 moral moralOther Y y 1 0.6665 
30-May-2018_16:23:21 7331 19 male R 6 2 1 moral moralSelf Y y 1 0.5635 
30-May-2018_16:23:23 7331 19 male R 6 2 2 moral moralSelf Y y 1 0.7480 
30-May-2018_16:23:26 7331 19 male R 6 2 3 moral immoralSelf U NA -1 1.0231 
30-May-2018_16:23:28 7331 19 male R 6 2 4 moral moralSelf Y y 1 0.7477 
30-May-2018_16:23:30 7331 19 male R 6 2 5 moral moralOther Y y 1 0.7849 
30-May-2018_16:23:31 7331 19 male R 6 2 6 moral moralOther Y y 1 0.4806 
30-May-2018_16:23:33 7331 19 male R 6 2 7 moral moralSelf Y y 1 0.6199 
30-May-2018_16:23:35 7331 19 male R 6 2 8 moral immoralOther U u 1 0.6402 
30-May-2018_16:23:37 7331 19 male R 6 2 9 moral immoralOther U u 1 0.8530 
30-May-2018_16:23:39 7331 19 male R 6 2 10 moral immoralOther U u 1 0.5020 
30-May-2018_16:23:41 7331 19 male R 6 2 11 moral moralOther Y y 1 0.5595 
30-May-2018_16:23:43 7331 19 male R 6 2 12 moral immoralSelf U u 1 0.6697 
30-May-2018_16:23:45 7331 19 male R 6 2 13 moral immoralSelf U u 1 0.6095 
30-May-2018_16:23:46 7331 19 male R 6 2 14 moral immoralOther U u 1 0.5188 
30-May-2018_16:23:48 7331 19 male R 6 2 15 moral moralOther Y y 1 0.7913 
30-May-2018_16:23:50 7331 19 male R 6 2 16 moral moralSelf Y y 1 0.4521 
30-May-2018_16:23:52 7331 19 male R 6 2 17 moral immoralSelf U u 1 0.5943 
30-May-2018_16:23:53 7331 19 male R 6 2 18 moral immoralSelf U u 1 0.5275 
30-May-2018_16:23:55 7331 19 male R 6 2 19 moral moralOther Y y 1 0.4909 
30-May-2018_16:23:57 7331 19 male R 6 2 20 moral immoralSelf U u 1 1.0057 
30-May-2018_16:23:59 7331 19 male R 6 2 21 moral immoralOther U u 1 0.4242 
30-May-2018_16:24:00 7331 19 male R 6 2 22 moral moralSelf Y y 1 0.4530 
30-May-2018_16:24:03 7331 19 male R 6 2 23 moral moralOther Y y 1 1.0003 
30-May-2018_16:24:05 7331 19 male R 6 2 24 moral immoralOther U u 1 0.6291 
30-May-2018_16:24:16 7331 19 male R 6 3 1 moral immoralOther U u 1 0.4436 
30-May-2018_16:24:17 7331 19 male R 6 3 2 moral moralOther Y y 1 0.5383 
30-May-2018_16:24:19 7331 19 male R 6 3 3 moral moralSelf Y y 1 0.4263 
30-May-2018_16:24:20 7331 19 male R 6 3 4 moral immoralSelf U u 1 0.6170 
30-May-2018_16:24:22 7331 19 male R 6 3 5 moral moralOther Y y 1 0.5950 
30-May-2018_16:24:24 7331 19 male R 6 3 6 moral moralSelf Y y 1 0.4313 
30-May-2018_16:24:25 7331 19 male R 6 3 7 moral immoralOther U u 1 0.4826 
30-May-2018_16:24:27 7331 19 male R 6 3 8 moral immoralSelf U u 1 0.6906 
30-May-2018_16:24:29 7331 19 male R 6 3 9 moral moralOther Y y 1 0.4959 
30-May-2018_16:24:31 7331 19 male R 6 3 10 moral moralSelf Y y 1 0.4672 
30-May-2018_16:24:32 7331 19 male R 6 3 11 moral immoralOther U u 1 0.5667 
30-May-2018_16:24:34 7331 19 male R 6 3 12 moral moralSelf Y y 1 0.5512 
30-May-2018_16:24:36 7331 19 male R 6 3 13 moral immoralSelf U u 1 0.6222 
30-May-2018_16:24:38 7331 19 male R 6 3 14 moral immoralSelf U u 1 0.5734 
30-May-2018_16:24:39 7331 19 male R 6 3 15 moral immoralSelf U u 1 0.5208 
30-May-2018_16:24:42 7331 19 male R 6 3 16 moral immoralOther U u 1 0.6032 
30-May-2018_16:24:43 7331 19 male R 6 3 17 moral immoralOther U u 1 0.5647 
30-May-2018_16:24:45 7331 19 male R 6 3 18 moral immoralOther U u 1 0.5610 
30-May-2018_16:24:47 7331 19 male R 6 3 19 moral moralOther Y y 1 0.5023 
30-May-2018_16:24:48 7331 19 male R 6 3 20 moral moralOther Y y 1 0.4882 
30-May-2018_16:24:50 7331 19 male R 6 3 21 moral moralSelf Y y 1 0.3839 
30-May-2018_16:24:52 7331 19 male R 6 3 22 moral moralSelf Y y 1 0.4831 
30-May-2018_16:24:54 7331 19 male R 6 3 23 moral moralOther Y y 1 0.4955 
30-May-2018_16:24:56 7331 19 male R 6 3 24 moral immoralSelf U u 1 0.5548 
30-May-2018_16:24:58 7331 19 male R 6 4 1 moral moralOther Y y 1 0.6461 
30-May-2018_16:24:59 7331 19 male R 6 4 2 moral moralOther Y y 1 0.5699 
30-May-2018_16:25:01 7331 19 male R 6 4 3 moral immoralSelf U u 1 0.5960 
30-May-2018_16:25:03 7331 19 male R 6 4 4 moral moralSelf Y y 1 0.4619 
30-May-2018_16:25:05 7331 19 male R 6 4 5 moral moralSelf Y y 1 0.5138 
30-May-2018_16:25:07 7331 19 male R 6 4 6 moral moralOther Y y 1 0.7350 
30-May-2018_16:25:08 7331 19 male R 6 4 7 moral immoralOther U y 0 0.4169 
30-May-2018_16:25:10 7331 19 male R 6 4 8 moral immoralSelf U u 1 0.6231 
30-May-2018_16:25:12 7331 19 male R 6 4 9 moral immoralSelf U u 1 0.6806 
30-May-2018_16:25:14 7331 19 male R 6 4 10 moral immoralOther U u 1 0.7691 
30-May-2018_16:25:16 7331 19 male R 6 4 11 moral immoralSelf U u 1 0.7241 
30-May-2018_16:25:18 7331 19 male R 6 4 12 moral moralSelf Y y 1 0.4959 
30-May-2018_16:25:19 7331 19 male R 6 4 13 moral moralOther Y u 0 0.5157 
30-May-2018_16:25:21 7331 19 male R 6 4 14 moral immoralOther U u 1 0.6423 
30-May-2018_16:25:23 7331 19 male R 6 4 15 moral moralOther Y y 1 0.6302 
30-May-2018_16:25:25 7331 19 male R 6 4 16 moral moralSelf Y y 1 0.4599 
30-May-2018_16:25:27 7331 19 male R 6 4 17 moral immoralOther U u 1 0.5818 
30-May-2018_16:25:29 7331 19 male R 6 4 18 moral immoralSelf U u 1 0.5706 
30-May-2018_16:25:31 7331 19 male R 6 4 19 moral immoralOther U u 1 0.6196 
30-May-2018_16:25:33 7331 19 male R 6 4 20 moral immoralOther U u 1 0.5524 
30-May-2018_16:25:35 7331 19 male R 6 4 21 moral moralSelf Y y 1 0.5802 
30-May-2018_16:25:36 7331 19 male R 6 4 22 moral immoralSelf U u 1 0.6166 
30-May-2018_16:25:38 7331 19 male R 6 4 23 moral moralSelf Y y 1 0.6684 
30-May-2018_16:25:41 7331 19 male R 6 4 24 moral moralOther Y y 1 0.7442 
30-May-2018_16:25:52 7331 19 male R 6 5 1 moral moralSelf Y y 1 0.3950 
30-May-2018_16:25:53 7331 19 male R 6 5 2 moral moralSelf Y y 1 0.5057 
30-May-2018_16:25:55 7331 19 male R 6 5 3 moral immoralOther U u 1 0.6055 
30-May-2018_16:25:57 7331 19 male R 6 5 4 moral moralOther Y y 1 0.5576 
30-May-2018_16:25:58 7331 19 male R 6 5 5 moral moralOther Y y 1 0.4075 
30-May-2018_16:26:00 7331 19 male R 6 5 6 moral immoralSelf U u 1 0.5633 
30-May-2018_16:26:02 7331 19 male R 6 5 7 moral immoralOther U u 1 0.7441 
30-May-2018_16:26:04 7331 19 male R 6 5 8 moral moralOther Y y 1 0.5518 
30-May-2018_16:26:05 7331 19 male R 6 5 9 moral moralSelf Y y 1 0.4676 
30-May-2018_16:26:07 7331 19 male R 6 5 10 moral immoralOther U u 1 0.5768 
30-May-2018_16:26:09 7331 19 male R 6 5 11 moral immoralOther U u 1 0.6286 
30-May-2018_16:26:11 7331 19 male R 6 5 12 moral moralSelf Y y 1 0.3826 
30-May-2018_16:26:13 7331 19 male R 6 5 13 moral immoralSelf U u 1 0.7063 
30-May-2018_16:26:14 7331 19 male R 6 5 14 moral immoralSelf U u 1 0.5573 
30-May-2018_16:26:16 7331 19 male R 6 5 15 moral moralOther Y y 1 0.6966 
30-May-2018_16:26:18 7331 19 male R 6 5 16 moral moralOther Y y 1 0.5066 
30-May-2018_16:26:19 7331 19 male R 6 5 17 moral moralSelf Y y 1 0.4704 
30-May-2018_16:26:21 7331 19 male R 6 5 18 moral immoralSelf U u 1 0.4837 
30-May-2018_16:26:23 7331 19 male R 6 5 19 moral moralSelf Y y 1 0.4207 
30-May-2018_16:26:24 7331 19 male R 6 5 20 moral immoralSelf U u 1 0.6988 
30-May-2018_16:26:26 7331 19 male R 6 5 21 moral immoralSelf U u 1 0.6236 
30-May-2018_16:26:28 7331 19 male R 6 5 22 moral moralOther Y y 1 0.5427 
30-May-2018_16:26:30 7331 19 male R 6 5 23 moral immoralOther U u 1 0.5644 
30-May-2018_16:26:31 7331 19 male R 6 5 24 moral immoralOther U u 1 0.4511 
