Date Sub Age Sex Hand Block Bin Trial Task Shape corrResp Resp ACC RT
26-May-2018_15:18:17 7328 20 male R 1 1 1 self moralSelf H NA -1 1.1081 
26-May-2018_15:18:19 7328 20 male R 1 1 2 self immoralSelf H h 1 0.7522 
26-May-2018_15:18:21 7328 20 male R 1 1 3 self immoralSelf H h 1 0.2797 
26-May-2018_15:18:22 7328 20 male R 1 1 4 self immoralSelf H j 0 0.3739 
26-May-2018_15:18:24 7328 20 male R 1 1 5 self moralOther J h 0 0.3891 
26-May-2018_15:18:26 7328 20 male R 1 1 6 self immoralOther J h 0 0.5802 
26-May-2018_15:18:28 7328 20 male R 1 1 7 self immoralSelf H h 1 0.8179 
26-May-2018_15:18:29 7328 20 male R 1 1 8 self immoralSelf H h 1 0.5704 
26-May-2018_15:18:32 7328 20 male R 1 1 9 self moralSelf H NA -1 1.1081 
26-May-2018_15:18:34 7328 20 male R 1 1 10 self moralOther J j 1 0.7593 
26-May-2018_15:18:36 7328 20 male R 1 1 11 self moralSelf H h 1 0.8507 
26-May-2018_15:18:38 7328 20 male R 1 1 12 self immoralOther J j 1 0.9120 
26-May-2018_15:18:40 7328 20 male R 1 1 13 self moralSelf H h 1 0.7869 
26-May-2018_15:18:42 7328 20 male R 1 1 14 self moralOther J j 1 0.7258 
26-May-2018_15:18:44 7328 20 male R 1 1 15 self moralOther J NA -1 1.1081 
26-May-2018_15:18:46 7328 20 male R 1 1 16 self moralSelf H h 1 0.9301 
26-May-2018_15:18:48 7328 20 male R 1 1 17 self immoralOther J j 1 0.5561 
26-May-2018_15:18:50 7328 20 male R 1 1 18 self moralOther J j 1 0.7288 
26-May-2018_15:18:52 7328 20 male R 1 1 19 self immoralSelf H h 1 0.7270 
26-May-2018_15:18:53 7328 20 male R 1 1 20 self immoralOther J j 1 0.6329 
26-May-2018_15:18:55 7328 20 male R 1 1 21 self immoralOther J j 1 0.8473 
26-May-2018_15:18:57 7328 20 male R 1 1 22 self moralOther J j 1 1.0683 
26-May-2018_15:18:59 7328 20 male R 1 1 23 self immoralOther J j 1 0.8450 
26-May-2018_15:19:01 7328 20 male R 1 1 24 self moralSelf H h 1 0.4780 
26-May-2018_15:19:03 7328 20 male R 1 2 1 self immoralOther J j 1 0.6136 
26-May-2018_15:19:05 7328 20 male R 1 2 2 self immoralOther J j 1 0.5055 
26-May-2018_15:19:07 7328 20 male R 1 2 3 self moralOther J j 1 0.7224 
26-May-2018_15:19:08 7328 20 male R 1 2 4 self immoralSelf H h 1 0.4844 
26-May-2018_15:19:10 7328 20 male R 1 2 5 self moralOther J j 1 0.7950 
26-May-2018_15:19:12 7328 20 male R 1 2 6 self moralOther J j 1 0.6893 
26-May-2018_15:19:14 7328 20 male R 1 2 7 self moralSelf H h 1 0.5151 
26-May-2018_15:19:15 7328 20 male R 1 2 8 self moralSelf H h 1 0.3999 
26-May-2018_15:19:17 7328 20 male R 1 2 9 self moralOther J j 1 0.6259 
26-May-2018_15:19:18 7328 20 male R 1 2 10 self moralOther J j 1 0.5144 
26-May-2018_15:19:20 7328 20 male R 1 2 11 self immoralSelf H h 1 0.5715 
26-May-2018_15:19:22 7328 20 male R 1 2 12 self moralOther J j 1 0.2957 
26-May-2018_15:19:24 7328 20 male R 1 2 13 self immoralSelf H h 1 0.4511 
26-May-2018_15:19:26 7328 20 male R 1 2 14 self immoralSelf H h 1 0.6488 
26-May-2018_15:19:27 7328 20 male R 1 2 15 self immoralOther J j 1 0.4898 
26-May-2018_15:19:29 7328 20 male R 1 2 16 self immoralOther J j 1 0.5087 
26-May-2018_15:19:31 7328 20 male R 1 2 17 self moralSelf H h 1 0.5351 
26-May-2018_15:19:32 7328 20 male R 1 2 18 self moralSelf H h 1 0.4952 
26-May-2018_15:19:34 7328 20 male R 1 2 19 self immoralOther J j 1 0.4124 
26-May-2018_15:19:35 7328 20 male R 1 2 20 self immoralOther J j 1 0.3029 
26-May-2018_15:19:37 7328 20 male R 1 2 21 self moralSelf H h 1 0.5094 
26-May-2018_15:19:38 7328 20 male R 1 2 22 self immoralSelf H j 0 0.5293 
26-May-2018_15:19:40 7328 20 male R 1 2 23 self moralSelf H h 1 0.4494 
26-May-2018_15:19:42 7328 20 male R 1 2 24 self immoralSelf H h 1 0.3666 
26-May-2018_15:20:27 7328 20 male R 1 3 1 self immoralOther J j 1 0.5438 
26-May-2018_15:20:29 7328 20 male R 1 3 2 self moralSelf H h 1 0.5434 
26-May-2018_15:20:30 7328 20 male R 1 3 3 self moralOther J j 1 0.5586 
26-May-2018_15:20:32 7328 20 male R 1 3 4 self immoralOther J j 1 0.6858 
26-May-2018_15:20:34 7328 20 male R 1 3 5 self immoralSelf H h 1 0.5456 
26-May-2018_15:20:36 7328 20 male R 1 3 6 self moralOther J j 1 0.4769 
26-May-2018_15:20:38 7328 20 male R 1 3 7 self moralOther J j 1 0.5674 
26-May-2018_15:20:39 7328 20 male R 1 3 8 self immoralOther J j 1 0.5368 
26-May-2018_15:20:41 7328 20 male R 1 3 9 self moralSelf H h 1 0.5454 
26-May-2018_15:20:43 7328 20 male R 1 3 10 self moralSelf H h 1 0.5158 
26-May-2018_15:20:44 7328 20 male R 1 3 11 self immoralSelf H h 1 0.5615 
26-May-2018_15:20:46 7328 20 male R 1 3 12 self moralOther J j 1 0.5996 
26-May-2018_15:20:48 7328 20 male R 1 3 13 self moralSelf H h 1 0.4544 
26-May-2018_15:20:50 7328 20 male R 1 3 14 self immoralOther J j 1 1.0290 
26-May-2018_15:20:52 7328 20 male R 1 3 15 self immoralSelf H h 1 0.5567 
26-May-2018_15:20:54 7328 20 male R 1 3 16 self moralOther J j 1 0.4950 
26-May-2018_15:20:55 7328 20 male R 1 3 17 self moralSelf H h 1 0.5398 
26-May-2018_15:20:57 7328 20 male R 1 3 18 self immoralSelf H h 1 0.6095 
26-May-2018_15:20:59 7328 20 male R 1 3 19 self moralSelf H h 1 0.5554 
26-May-2018_15:21:00 7328 20 male R 1 3 20 self immoralOther J j 1 0.4181 
26-May-2018_15:21:02 7328 20 male R 1 3 21 self immoralSelf H h 1 0.5818 
26-May-2018_15:21:03 7328 20 male R 1 3 22 self moralOther J j 1 0.4187 
26-May-2018_15:21:05 7328 20 male R 1 3 23 self immoralOther J j 1 0.5820 
26-May-2018_15:21:07 7328 20 male R 1 3 24 self immoralSelf H h 1 0.4777 
26-May-2018_15:21:09 7328 20 male R 1 4 1 self moralOther J j 1 0.7102 
26-May-2018_15:21:11 7328 20 male R 1 4 2 self moralSelf H h 1 0.5385 
26-May-2018_15:21:13 7328 20 male R 1 4 3 self moralOther J j 1 0.6558 
26-May-2018_15:21:14 7328 20 male R 1 4 4 self immoralOther J j 1 0.5513 
26-May-2018_15:21:16 7328 20 male R 1 4 5 self moralSelf H h 1 0.4753 
26-May-2018_15:21:17 7328 20 male R 1 4 6 self immoralOther J j 1 0.4607 
26-May-2018_15:21:19 7328 20 male R 1 4 7 self immoralSelf H h 1 0.5265 
26-May-2018_15:21:21 7328 20 male R 1 4 8 self immoralOther J j 1 0.4904 
26-May-2018_15:21:23 7328 20 male R 1 4 9 self immoralOther J j 1 0.5394 
26-May-2018_15:21:24 7328 20 male R 1 4 10 self immoralSelf H h 1 0.4943 
26-May-2018_15:21:26 7328 20 male R 1 4 11 self moralSelf H h 1 0.5527 
26-May-2018_15:21:28 7328 20 male R 1 4 12 self immoralSelf H h 1 0.5980 
26-May-2018_15:21:29 7328 20 male R 1 4 13 self immoralSelf H h 1 0.4621 
26-May-2018_15:21:31 7328 20 male R 1 4 14 self moralSelf H h 1 0.2763 
26-May-2018_15:21:33 7328 20 male R 1 4 15 self immoralOther J j 1 0.5092 
26-May-2018_15:21:35 7328 20 male R 1 4 16 self moralOther J j 1 0.7964 
26-May-2018_15:21:37 7328 20 male R 1 4 17 self immoralSelf H h 1 0.4516 
26-May-2018_15:21:39 7328 20 male R 1 4 18 self moralOther J j 1 0.6921 
26-May-2018_15:21:40 7328 20 male R 1 4 19 self moralOther J j 1 0.7420 
26-May-2018_15:21:42 7328 20 male R 1 4 20 self moralSelf H h 1 0.4964 
26-May-2018_15:21:44 7328 20 male R 1 4 21 self moralOther J j 1 0.9501 
26-May-2018_15:21:46 7328 20 male R 1 4 22 self immoralOther J j 1 0.5089 
26-May-2018_15:21:48 7328 20 male R 1 4 23 self moralSelf H h 1 0.5229 
26-May-2018_15:21:50 7328 20 male R 1 4 24 self immoralSelf H h 1 0.5065 
26-May-2018_15:22:00 7328 20 male R 1 5 1 self moralSelf H h 1 0.4830 
26-May-2018_15:22:02 7328 20 male R 1 5 2 self moralSelf H h 1 0.4572 
26-May-2018_15:22:04 7328 20 male R 1 5 3 self moralSelf H h 1 0.5113 
26-May-2018_15:22:05 7328 20 male R 1 5 4 self moralSelf H h 1 0.3923 
26-May-2018_15:22:07 7328 20 male R 1 5 5 self moralOther J h 0 0.3124 
26-May-2018_15:22:09 7328 20 male R 1 5 6 self moralSelf H h 1 0.4231 
26-May-2018_15:22:10 7328 20 male R 1 5 7 self immoralOther J j 1 0.4467 
26-May-2018_15:22:12 7328 20 male R 1 5 8 self moralOther J j 1 0.4459 
26-May-2018_15:22:13 7328 20 male R 1 5 9 self immoralOther J j 1 0.4144 
26-May-2018_15:22:15 7328 20 male R 1 5 10 self immoralOther J j 1 0.4714 
26-May-2018_15:22:17 7328 20 male R 1 5 11 self moralSelf H h 1 0.4404 
26-May-2018_15:22:19 7328 20 male R 1 5 12 self immoralSelf H h 1 0.7044 
26-May-2018_15:22:20 7328 20 male R 1 5 13 self immoralOther J j 1 0.4719 
26-May-2018_15:22:22 7328 20 male R 1 5 14 self immoralSelf H h 1 0.5954 
26-May-2018_15:22:24 7328 20 male R 1 5 15 self moralOther J j 1 0.5201 
26-May-2018_15:22:26 7328 20 male R 1 5 16 self immoralSelf H h 1 0.6163 
26-May-2018_15:22:27 7328 20 male R 1 5 17 self moralOther J j 1 0.4073 
26-May-2018_15:22:29 7328 20 male R 1 5 18 self immoralOther J j 1 0.4823 
26-May-2018_15:22:31 7328 20 male R 1 5 19 self immoralSelf H h 1 0.4565 
26-May-2018_15:22:33 7328 20 male R 1 5 20 self immoralSelf H h 1 0.6169 
26-May-2018_15:22:35 7328 20 male R 1 5 21 self moralOther J j 1 0.6289 
26-May-2018_15:22:37 7328 20 male R 1 5 22 self immoralOther J j 1 0.8942 
26-May-2018_15:22:38 7328 20 male R 1 5 23 self immoralSelf H h 1 0.4995 
26-May-2018_15:22:40 7328 20 male R 1 5 24 self moralOther J j 1 0.5928 
Date Sub Age Sex Hand Block Bin Trial Task Shape corrResp Resp ACC RT
26-May-2018_15:27:32 7328 20 male R 2 1 1 moral moralSelf U u 1 0.8312 
26-May-2018_15:27:34 7328 20 male R 2 1 2 moral moralOther U y 0 0.6017 
26-May-2018_15:27:36 7328 20 male R 2 1 3 moral immoralSelf Y NA -1 1.1081 
26-May-2018_15:27:38 7328 20 male R 2 1 4 moral immoralOther Y y 1 1.0372 
26-May-2018_15:27:40 7328 20 male R 2 1 5 moral immoralOther Y y 1 0.7078 
26-May-2018_15:27:42 7328 20 male R 2 1 6 moral immoralOther Y y 1 0.5004 
26-May-2018_15:27:44 7328 20 male R 2 1 7 moral immoralOther Y y 1 0.4920 
26-May-2018_15:27:46 7328 20 male R 2 1 8 moral moralSelf U u 1 0.5254 
26-May-2018_15:27:48 7328 20 male R 2 1 9 moral immoralSelf Y y 1 0.6784 
26-May-2018_15:27:50 7328 20 male R 2 1 10 moral moralOther U u 1 0.7594 
26-May-2018_15:27:52 7328 20 male R 2 1 11 moral immoralSelf Y y 1 1.0621 
26-May-2018_15:27:54 7328 20 male R 2 1 12 moral immoralSelf Y y 1 0.7442 
26-May-2018_15:27:56 7328 20 male R 2 1 13 moral moralOther U u 1 0.5103 
26-May-2018_15:27:58 7328 20 male R 2 1 14 moral moralOther U u 1 0.7329 
26-May-2018_15:28:00 7328 20 male R 2 1 15 moral immoralSelf Y y 1 0.7382 
26-May-2018_15:28:02 7328 20 male R 2 1 16 moral moralSelf U u 1 0.5567 
26-May-2018_15:28:03 7328 20 male R 2 1 17 moral moralSelf U u 1 0.4673 
26-May-2018_15:28:05 7328 20 male R 2 1 18 moral moralOther U u 1 0.7262 
26-May-2018_15:28:07 7328 20 male R 2 1 19 moral moralSelf U u 1 0.6510 
26-May-2018_15:28:09 7328 20 male R 2 1 20 moral moralOther U u 1 0.7852 
26-May-2018_15:28:11 7328 20 male R 2 1 21 moral immoralOther Y y 1 0.5928 
26-May-2018_15:28:13 7328 20 male R 2 1 22 moral moralSelf U u 1 0.8672 
26-May-2018_15:28:15 7328 20 male R 2 1 23 moral immoralOther Y y 1 0.5952 
26-May-2018_15:28:17 7328 20 male R 2 1 24 moral immoralSelf Y y 1 0.8875 
26-May-2018_15:28:18 7328 20 male R 2 2 1 moral moralSelf U u 1 0.4614 
26-May-2018_15:28:20 7328 20 male R 2 2 2 moral moralOther U y 0 0.8515 
26-May-2018_15:28:22 7328 20 male R 2 2 3 moral moralSelf U u 1 0.4247 
26-May-2018_15:28:24 7328 20 male R 2 2 4 moral immoralOther Y y 1 0.5523 
26-May-2018_15:28:26 7328 20 male R 2 2 5 moral immoralOther Y y 1 0.6395 
26-May-2018_15:28:27 7328 20 male R 2 2 6 moral immoralOther Y y 1 0.4998 
26-May-2018_15:28:29 7328 20 male R 2 2 7 moral moralOther U u 1 0.6250 
26-May-2018_15:28:31 7328 20 male R 2 2 8 moral immoralSelf Y y 1 0.6377 
26-May-2018_15:28:33 7328 20 male R 2 2 9 moral moralSelf U u 1 0.5908 
26-May-2018_15:28:35 7328 20 male R 2 2 10 moral immoralSelf Y y 1 0.7109 
26-May-2018_15:28:36 7328 20 male R 2 2 11 moral moralOther U u 1 0.6446 
26-May-2018_15:28:38 7328 20 male R 2 2 12 moral moralOther U y 0 0.6065 
26-May-2018_15:28:40 7328 20 male R 2 2 13 moral immoralOther Y y 1 0.8950 
26-May-2018_15:28:42 7328 20 male R 2 2 14 moral moralSelf U u 1 0.5045 
26-May-2018_15:28:43 7328 20 male R 2 2 15 moral immoralSelf Y y 1 0.7041 
26-May-2018_15:28:45 7328 20 male R 2 2 16 moral moralOther U u 1 0.5414 
26-May-2018_15:28:47 7328 20 male R 2 2 17 moral immoralSelf Y y 1 0.8261 
26-May-2018_15:28:49 7328 20 male R 2 2 18 moral immoralSelf Y y 1 0.7434 
26-May-2018_15:28:51 7328 20 male R 2 2 19 moral moralOther U u 1 0.6889 
26-May-2018_15:28:53 7328 20 male R 2 2 20 moral moralSelf U u 1 0.6160 
26-May-2018_15:28:54 7328 20 male R 2 2 21 moral immoralOther Y y 1 0.5861 
26-May-2018_15:28:57 7328 20 male R 2 2 22 moral immoralSelf Y y 1 0.7780 
26-May-2018_15:28:58 7328 20 male R 2 2 23 moral immoralOther Y y 1 0.5189 
26-May-2018_15:29:00 7328 20 male R 2 2 24 moral moralSelf U u 1 0.4967 
26-May-2018_15:30:12 7328 20 male R 2 3 1 moral immoralSelf Y y 1 0.7537 
26-May-2018_15:30:14 7328 20 male R 2 3 2 moral immoralOther Y y 1 0.6572 
26-May-2018_15:30:15 7328 20 male R 2 3 3 moral moralOther U u 1 0.5086 
26-May-2018_15:30:17 7328 20 male R 2 3 4 moral immoralOther Y y 1 0.5388 
26-May-2018_15:30:19 7328 20 male R 2 3 5 moral immoralSelf Y y 1 0.6570 
26-May-2018_15:30:21 7328 20 male R 2 3 6 moral moralOther U u 1 0.6590 
26-May-2018_15:30:23 7328 20 male R 2 3 7 moral immoralSelf Y y 1 0.5612 
26-May-2018_15:30:25 7328 20 male R 2 3 8 moral moralSelf U u 1 0.7061 
26-May-2018_15:30:26 7328 20 male R 2 3 9 moral moralSelf U u 1 0.4277 
26-May-2018_15:30:28 7328 20 male R 2 3 10 moral moralSelf U u 1 0.3571 
26-May-2018_15:30:29 7328 20 male R 2 3 11 moral immoralOther Y y 1 0.4259 
26-May-2018_15:30:31 7328 20 male R 2 3 12 moral moralOther U u 1 0.7576 
26-May-2018_15:30:32 7328 20 male R 2 3 13 moral moralSelf U u 1 0.4717 
26-May-2018_15:30:34 7328 20 male R 2 3 14 moral immoralSelf Y y 1 0.5494 
26-May-2018_15:30:36 7328 20 male R 2 3 15 moral immoralSelf Y u 0 0.6637 
26-May-2018_15:30:38 7328 20 male R 2 3 16 moral immoralOther Y y 1 0.6106 
26-May-2018_15:30:40 7328 20 male R 2 3 17 moral moralOther U u 1 0.6432 
26-May-2018_15:30:42 7328 20 male R 2 3 18 moral moralSelf U u 1 0.5360 
26-May-2018_15:30:43 7328 20 male R 2 3 19 moral moralSelf U u 1 0.4071 
26-May-2018_15:30:45 7328 20 male R 2 3 20 moral immoralSelf Y y 1 0.5893 
26-May-2018_15:30:47 7328 20 male R 2 3 21 moral moralOther U u 1 0.7042 
26-May-2018_15:30:49 7328 20 male R 2 3 22 moral immoralOther Y y 1 0.5574 
26-May-2018_15:30:51 7328 20 male R 2 3 23 moral immoralOther Y y 1 0.9453 
26-May-2018_15:30:52 7328 20 male R 2 3 24 moral moralOther U u 1 0.4837 
26-May-2018_15:30:54 7328 20 male R 2 4 1 moral moralSelf U u 1 0.5722 
26-May-2018_15:30:56 7328 20 male R 2 4 2 moral immoralSelf Y y 1 0.5304 
26-May-2018_15:30:58 7328 20 male R 2 4 3 moral moralOther U u 1 0.5370 
26-May-2018_15:31:00 7328 20 male R 2 4 4 moral immoralSelf Y y 1 0.8199 
26-May-2018_15:31:02 7328 20 male R 2 4 5 moral moralOther U u 1 0.4271 
26-May-2018_15:31:03 7328 20 male R 2 4 6 moral immoralOther Y y 1 0.4920 
26-May-2018_15:31:05 7328 20 male R 2 4 7 moral moralSelf U u 1 0.4804 
26-May-2018_15:31:07 7328 20 male R 2 4 8 moral moralOther U u 1 0.6291 
26-May-2018_15:31:08 7328 20 male R 2 4 9 moral immoralOther Y y 1 0.4852 
26-May-2018_15:31:10 7328 20 male R 2 4 10 moral moralSelf U u 1 0.4924 
26-May-2018_15:31:12 7328 20 male R 2 4 11 moral moralSelf U u 1 0.5042 
26-May-2018_15:31:13 7328 20 male R 2 4 12 moral moralOther U u 1 0.7189 
26-May-2018_15:31:15 7328 20 male R 2 4 13 moral immoralOther Y y 1 0.4742 
26-May-2018_15:31:17 7328 20 male R 2 4 14 moral moralOther U u 1 0.6277 
26-May-2018_15:31:18 7328 20 male R 2 4 15 moral moralOther U u 1 0.4894 
26-May-2018_15:31:20 7328 20 male R 2 4 16 moral moralSelf U u 1 0.5595 
26-May-2018_15:31:22 7328 20 male R 2 4 17 moral immoralSelf Y y 1 0.5756 
26-May-2018_15:31:24 7328 20 male R 2 4 18 moral immoralSelf Y y 1 0.6355 
26-May-2018_15:31:26 7328 20 male R 2 4 19 moral immoralOther Y y 1 0.5447 
26-May-2018_15:31:27 7328 20 male R 2 4 20 moral immoralOther Y y 1 0.4916 
26-May-2018_15:31:29 7328 20 male R 2 4 21 moral moralSelf U u 1 0.4903 
26-May-2018_15:31:31 7328 20 male R 2 4 22 moral immoralSelf Y y 1 0.6974 
26-May-2018_15:31:32 7328 20 male R 2 4 23 moral immoralSelf Y y 1 0.6875 
26-May-2018_15:31:34 7328 20 male R 2 4 24 moral immoralOther Y y 1 0.7930 
26-May-2018_15:32:07 7328 20 male R 2 5 1 moral moralSelf U u 1 0.4188 
26-May-2018_15:32:08 7328 20 male R 2 5 2 moral moralOther U u 1 0.5859 
26-May-2018_15:32:10 7328 20 male R 2 5 3 moral moralSelf U u 1 0.4171 
26-May-2018_15:32:12 7328 20 male R 2 5 4 moral immoralOther Y y 1 0.3860 
26-May-2018_15:32:13 7328 20 male R 2 5 5 moral immoralSelf Y y 1 0.5904 
26-May-2018_15:32:15 7328 20 male R 2 5 6 moral immoralOther Y y 1 0.4684 
26-May-2018_15:32:17 7328 20 male R 2 5 7 moral immoralSelf Y y 1 0.6018 
26-May-2018_15:32:19 7328 20 male R 2 5 8 moral moralSelf U u 1 0.4311 
26-May-2018_15:32:20 7328 20 male R 2 5 9 moral moralOther U u 1 0.5968 
26-May-2018_15:32:22 7328 20 male R 2 5 10 moral moralSelf U u 1 0.4424 
26-May-2018_15:32:24 7328 20 male R 2 5 11 moral immoralSelf Y y 1 0.5107 
26-May-2018_15:32:25 7328 20 male R 2 5 12 moral moralSelf U u 1 0.3988 
26-May-2018_15:32:27 7328 20 male R 2 5 13 moral moralOther U u 1 0.6041 
26-May-2018_15:32:29 7328 20 male R 2 5 14 moral immoralSelf Y y 1 0.5424 
26-May-2018_15:32:30 7328 20 male R 2 5 15 moral immoralSelf Y y 1 0.5406 
26-May-2018_15:32:32 7328 20 male R 2 5 16 moral immoralOther Y y 1 0.5680 
26-May-2018_15:32:34 7328 20 male R 2 5 17 moral moralOther U u 1 0.5798 
26-May-2018_15:32:35 7328 20 male R 2 5 18 moral moralOther U u 1 0.6273 
26-May-2018_15:32:37 7328 20 male R 2 5 19 moral immoralOther Y y 1 0.4449 
26-May-2018_15:32:39 7328 20 male R 2 5 20 moral moralOther U u 1 0.3903 
26-May-2018_15:32:40 7328 20 male R 2 5 21 moral immoralOther Y y 1 0.3674 
26-May-2018_15:32:42 7328 20 male R 2 5 22 moral moralSelf U u 1 0.4060 
26-May-2018_15:32:44 7328 20 male R 2 5 23 moral immoralSelf Y y 1 0.5327 
26-May-2018_15:32:45 7328 20 male R 2 5 24 moral immoralOther Y y 1 0.6127 
Date Sub Age Sex Hand Block Bin Trial Task Shape corrResp Resp ACC RT
26-May-2018_15:36:50 7328 20 male R 3 1 1 self immoralOther J j 1 0.6700 
26-May-2018_15:36:51 7328 20 male R 3 1 2 self immoralSelf H h 1 0.5450 
26-May-2018_15:36:53 7328 20 male R 3 1 3 self immoralOther J j 1 0.5648 
26-May-2018_15:36:55 7328 20 male R 3 1 4 self moralSelf H h 1 0.4567 
26-May-2018_15:36:57 7328 20 male R 3 1 5 self moralOther J h 0 0.7513 
26-May-2018_15:36:59 7328 20 male R 3 1 6 self moralSelf H h 1 0.4747 
26-May-2018_15:37:01 7328 20 male R 3 1 7 self immoralOther J j 1 0.5396 
26-May-2018_15:37:02 7328 20 male R 3 1 8 self moralSelf H h 1 0.4551 
26-May-2018_15:37:04 7328 20 male R 3 1 9 self moralOther J j 1 0.9432 
26-May-2018_15:37:06 7328 20 male R 3 1 10 self moralSelf H h 1 0.4619 
26-May-2018_15:37:08 7328 20 male R 3 1 11 self immoralOther J j 1 0.5141 
26-May-2018_15:37:10 7328 20 male R 3 1 12 self moralSelf H h 1 0.4704 
26-May-2018_15:37:11 7328 20 male R 3 1 13 self moralOther J j 1 0.8286 
26-May-2018_15:37:13 7328 20 male R 3 1 14 self moralOther J j 1 0.4763 
26-May-2018_15:37:15 7328 20 male R 3 1 15 self immoralOther J j 1 0.4598 
26-May-2018_15:37:17 7328 20 male R 3 1 16 self immoralSelf H h 1 0.6124 
26-May-2018_15:37:19 7328 20 male R 3 1 17 self immoralOther J j 1 0.5701 
26-May-2018_15:37:20 7328 20 male R 3 1 18 self moralSelf H h 1 0.4797 
26-May-2018_15:37:22 7328 20 male R 3 1 19 self immoralSelf H h 1 0.6562 
26-May-2018_15:37:24 7328 20 male R 3 1 20 self immoralSelf H h 1 0.6766 
26-May-2018_15:37:26 7328 20 male R 3 1 21 self immoralSelf H h 1 0.6287 
26-May-2018_15:37:27 7328 20 male R 3 1 22 self moralOther J j 1 0.4297 
26-May-2018_15:37:29 7328 20 male R 3 1 23 self immoralSelf H h 1 0.6377 
26-May-2018_15:37:31 7328 20 male R 3 1 24 self moralOther J j 1 0.5799 
26-May-2018_15:37:32 7328 20 male R 3 2 1 self moralSelf H h 1 0.5118 
26-May-2018_15:37:34 7328 20 male R 3 2 2 self immoralOther J j 1 0.9005 
26-May-2018_15:37:36 7328 20 male R 3 2 3 self immoralSelf H h 1 0.5900 
26-May-2018_15:37:38 7328 20 male R 3 2 4 self immoralOther J j 1 0.4875 
26-May-2018_15:37:40 7328 20 male R 3 2 5 self immoralSelf H h 1 0.7143 
26-May-2018_15:37:41 7328 20 male R 3 2 6 self immoralSelf H j 0 0.5931 
26-May-2018_15:37:43 7328 20 male R 3 2 7 self moralSelf H h 1 0.4566 
26-May-2018_15:37:45 7328 20 male R 3 2 8 self moralSelf H h 1 0.3974 
26-May-2018_15:37:47 7328 20 male R 3 2 9 self moralOther J j 1 0.6045 
26-May-2018_15:37:48 7328 20 male R 3 2 10 self moralOther J j 1 0.4563 
26-May-2018_15:37:50 7328 20 male R 3 2 11 self immoralOther J h 0 0.5732 
26-May-2018_15:37:52 7328 20 male R 3 2 12 self moralOther J j 1 0.5845 
26-May-2018_15:37:53 7328 20 male R 3 2 13 self immoralSelf H h 1 0.6138 
26-May-2018_15:37:55 7328 20 male R 3 2 14 self moralOther J j 1 0.6151 
26-May-2018_15:37:57 7328 20 male R 3 2 15 self immoralSelf H h 1 0.5993 
26-May-2018_15:37:59 7328 20 male R 3 2 16 self moralOther J j 1 0.6793 
26-May-2018_15:38:01 7328 20 male R 3 2 17 self moralOther J j 1 0.4220 
26-May-2018_15:38:03 7328 20 male R 3 2 18 self immoralSelf H h 1 0.5092 
26-May-2018_15:38:04 7328 20 male R 3 2 19 self immoralOther J j 1 0.5083 
26-May-2018_15:38:06 7328 20 male R 3 2 20 self moralSelf H h 1 0.4401 
26-May-2018_15:38:08 7328 20 male R 3 2 21 self moralSelf H h 1 0.5286 
26-May-2018_15:38:09 7328 20 male R 3 2 22 self immoralOther J j 1 0.5391 
26-May-2018_15:38:11 7328 20 male R 3 2 23 self moralSelf H h 1 0.4661 
26-May-2018_15:38:13 7328 20 male R 3 2 24 self immoralOther J j 1 0.8145 
26-May-2018_15:39:03 7328 20 male R 3 3 1 self immoralOther J j 1 0.5444 
26-May-2018_15:39:05 7328 20 male R 3 3 2 self immoralOther J j 1 0.4146 
26-May-2018_15:39:07 7328 20 male R 3 3 3 self moralOther J j 1 0.5116 
26-May-2018_15:39:08 7328 20 male R 3 3 4 self moralSelf H h 1 0.4387 
26-May-2018_15:39:10 7328 20 male R 3 3 5 self immoralSelf H h 1 0.7084 
26-May-2018_15:39:12 7328 20 male R 3 3 6 self immoralOther J j 1 0.4770 
26-May-2018_15:39:13 7328 20 male R 3 3 7 self immoralOther J j 1 0.3566 
26-May-2018_15:39:15 7328 20 male R 3 3 8 self moralSelf H h 1 0.4507 
26-May-2018_15:39:17 7328 20 male R 3 3 9 self immoralSelf H h 1 0.7792 
26-May-2018_15:39:18 7328 20 male R 3 3 10 self immoralOther J j 1 0.4151 
26-May-2018_15:39:20 7328 20 male R 3 3 11 self moralSelf H h 1 0.5033 
26-May-2018_15:39:22 7328 20 male R 3 3 12 self moralOther J j 1 0.7795 
26-May-2018_15:39:24 7328 20 male R 3 3 13 self moralSelf H h 1 0.5193 
26-May-2018_15:39:25 7328 20 male R 3 3 14 self moralOther J j 1 0.6352 
26-May-2018_15:39:27 7328 20 male R 3 3 15 self immoralSelf H h 1 0.6283 
26-May-2018_15:39:29 7328 20 male R 3 3 16 self moralSelf H h 1 0.5234 
26-May-2018_15:39:31 7328 20 male R 3 3 17 self moralSelf H h 1 0.4857 
26-May-2018_15:39:33 7328 20 male R 3 3 18 self immoralSelf H h 1 0.6397 
26-May-2018_15:39:34 7328 20 male R 3 3 19 self moralOther J j 1 0.5926 
26-May-2018_15:39:36 7328 20 male R 3 3 20 self immoralSelf H h 1 0.6436 
26-May-2018_15:39:38 7328 20 male R 3 3 21 self immoralSelf H h 1 0.6140 
26-May-2018_15:39:40 7328 20 male R 3 3 22 self immoralOther J j 1 0.6753 
26-May-2018_15:39:41 7328 20 male R 3 3 23 self moralOther J j 1 0.7280 
26-May-2018_15:39:43 7328 20 male R 3 3 24 self moralOther J j 1 0.5582 
26-May-2018_15:39:44 7328 20 male R 3 4 1 self immoralSelf H h 1 0.6274 
26-May-2018_15:39:46 7328 20 male R 3 4 2 self immoralOther J j 1 0.5757 
26-May-2018_15:39:48 7328 20 male R 3 4 3 self immoralOther J j 1 0.4958 
26-May-2018_15:39:50 7328 20 male R 3 4 4 self moralOther J j 1 0.7438 
26-May-2018_15:39:52 7328 20 male R 3 4 5 self immoralOther J j 1 0.5979 
26-May-2018_15:39:53 7328 20 male R 3 4 6 self moralOther J j 1 0.6508 
26-May-2018_15:39:55 7328 20 male R 3 4 7 self moralSelf H h 1 0.4673 
26-May-2018_15:39:56 7328 20 male R 3 4 8 self moralSelf H h 1 0.4002 
26-May-2018_15:39:58 7328 20 male R 3 4 9 self moralSelf H h 1 0.4181 
26-May-2018_15:40:00 7328 20 male R 3 4 10 self moralOther J j 1 0.5104 
26-May-2018_15:40:01 7328 20 male R 3 4 11 self immoralSelf H h 1 0.6290 
26-May-2018_15:40:03 7328 20 male R 3 4 12 self immoralSelf H h 1 0.5388 
26-May-2018_15:40:05 7328 20 male R 3 4 13 self moralSelf H h 1 0.4615 
26-May-2018_15:40:06 7328 20 male R 3 4 14 self moralSelf H h 1 0.3379 
26-May-2018_15:40:08 7328 20 male R 3 4 15 self moralOther J h 0 0.3159 
26-May-2018_15:40:10 7328 20 male R 3 4 16 self immoralSelf H h 1 0.4270 
26-May-2018_15:40:11 7328 20 male R 3 4 17 self immoralOther J j 1 0.4162 
26-May-2018_15:40:13 7328 20 male R 3 4 18 self moralOther J j 1 0.7457 
26-May-2018_15:40:15 7328 20 male R 3 4 19 self immoralOther J j 1 0.7236 
26-May-2018_15:40:17 7328 20 male R 3 4 20 self moralSelf H h 1 0.4494 
26-May-2018_15:40:19 7328 20 male R 3 4 21 self immoralSelf H h 1 0.5877 
26-May-2018_15:40:20 7328 20 male R 3 4 22 self immoralSelf H h 1 0.4561 
26-May-2018_15:40:22 7328 20 male R 3 4 23 self moralOther J j 1 0.3936 
26-May-2018_15:40:24 7328 20 male R 3 4 24 self immoralOther J j 1 0.6215 
26-May-2018_15:41:28 7328 20 male R 3 5 1 self immoralOther J j 1 0.5778 
26-May-2018_15:41:29 7328 20 male R 3 5 2 self immoralSelf H h 1 0.3613 
26-May-2018_15:41:31 7328 20 male R 3 5 3 self immoralSelf H h 1 0.4885 
26-May-2018_15:41:32 7328 20 male R 3 5 4 self moralSelf H h 1 0.6580 
26-May-2018_15:41:34 7328 20 male R 3 5 5 self immoralOther J j 1 0.4880 
26-May-2018_15:41:36 7328 20 male R 3 5 6 self moralSelf H h 1 0.5617 
26-May-2018_15:41:38 7328 20 male R 3 5 7 self moralSelf H h 1 0.2817 
26-May-2018_15:41:39 7328 20 male R 3 5 8 self immoralOther J j 1 0.4568 
26-May-2018_15:41:41 7328 20 male R 3 5 9 self moralOther J j 1 0.5655 
26-May-2018_15:41:43 7328 20 male R 3 5 10 self moralSelf H h 1 0.4004 
26-May-2018_15:41:44 7328 20 male R 3 5 11 self moralOther J j 1 0.4339 
26-May-2018_15:41:46 7328 20 male R 3 5 12 self immoralOther J j 1 0.4938 
26-May-2018_15:41:48 7328 20 male R 3 5 13 self immoralSelf H h 1 0.5418 
26-May-2018_15:41:50 7328 20 male R 3 5 14 self immoralSelf H h 1 0.5330 
26-May-2018_15:41:51 7328 20 male R 3 5 15 self immoralOther J j 1 0.5250 
26-May-2018_15:41:53 7328 20 male R 3 5 16 self moralOther J j 1 0.5520 
26-May-2018_15:41:55 7328 20 male R 3 5 17 self moralOther J j 1 0.3991 
26-May-2018_15:41:57 7328 20 male R 3 5 18 self immoralSelf H h 1 0.6155 
26-May-2018_15:41:59 7328 20 male R 3 5 19 self immoralSelf H h 1 0.4166 
26-May-2018_15:42:01 7328 20 male R 3 5 20 self immoralOther J j 1 0.7955 
26-May-2018_15:42:02 7328 20 male R 3 5 21 self moralOther J j 1 0.7333 
26-May-2018_15:42:04 7328 20 male R 3 5 22 self moralOther J j 1 0.4917 
26-May-2018_15:42:05 7328 20 male R 3 5 23 self moralSelf H h 1 0.4568 
26-May-2018_15:42:07 7328 20 male R 3 5 24 self moralSelf H h 1 0.3091 
Date Sub Age Sex Hand Block Bin Trial Task Shape corrResp Resp ACC RT
26-May-2018_15:46:41 7328 20 male R 4 1 1 moral moralSelf U u 1 0.4292 
26-May-2018_15:46:43 7328 20 male R 4 1 2 moral moralOther U u 1 0.5700 
26-May-2018_15:46:44 7328 20 male R 4 1 3 moral moralSelf U u 1 0.4576 
26-May-2018_15:46:46 7328 20 male R 4 1 4 moral moralSelf U u 1 0.4196 
26-May-2018_15:46:48 7328 20 male R 4 1 5 moral immoralSelf Y y 1 0.6479 
26-May-2018_15:46:49 7328 20 male R 4 1 6 moral moralOther U u 1 0.7274 
26-May-2018_15:46:51 7328 20 male R 4 1 7 moral immoralSelf Y y 1 0.5077 
26-May-2018_15:46:53 7328 20 male R 4 1 8 moral immoralSelf Y y 1 0.4635 
26-May-2018_15:46:54 7328 20 male R 4 1 9 moral immoralOther Y y 1 0.7380 
26-May-2018_15:46:56 7328 20 male R 4 1 10 moral moralSelf U u 1 0.4398 
26-May-2018_15:46:58 7328 20 male R 4 1 11 moral immoralSelf Y y 1 0.6322 
26-May-2018_15:47:00 7328 20 male R 4 1 12 moral immoralOther Y y 1 0.5683 
26-May-2018_15:47:02 7328 20 male R 4 1 13 moral moralOther U u 1 0.7604 
26-May-2018_15:47:03 7328 20 male R 4 1 14 moral moralOther U u 1 0.4137 
26-May-2018_15:47:05 7328 20 male R 4 1 15 moral immoralSelf Y y 1 0.5427 
26-May-2018_15:47:08 7328 20 male R 4 1 16 moral immoralOther Y y 1 0.7502 
26-May-2018_15:47:09 7328 20 male R 4 1 17 moral immoralOther Y y 1 0.4139 
26-May-2018_15:47:11 7328 20 male R 4 1 18 moral immoralSelf Y y 1 0.8238 
26-May-2018_15:47:13 7328 20 male R 4 1 19 moral moralOther U y 0 0.7104 
26-May-2018_15:47:15 7328 20 male R 4 1 20 moral moralSelf U u 1 0.5068 
26-May-2018_15:47:16 7328 20 male R 4 1 21 moral moralSelf U u 1 0.4730 
26-May-2018_15:47:18 7328 20 male R 4 1 22 moral immoralOther Y y 1 0.6000 
26-May-2018_15:47:20 7328 20 male R 4 1 23 moral moralOther U u 1 0.6544 
26-May-2018_15:47:22 7328 20 male R 4 1 24 moral immoralOther Y y 1 0.5098 
26-May-2018_15:47:23 7328 20 male R 4 2 1 moral immoralSelf Y y 1 0.6238 
26-May-2018_15:47:26 7328 20 male R 4 2 2 moral moralSelf U u 1 0.7839 
26-May-2018_15:47:27 7328 20 male R 4 2 3 moral immoralOther Y y 1 0.6033 
26-May-2018_15:47:29 7328 20 male R 4 2 4 moral immoralSelf Y y 1 0.7078 
26-May-2018_15:47:31 7328 20 male R 4 2 5 moral moralSelf U u 1 0.5107 
26-May-2018_15:47:32 7328 20 male R 4 2 6 moral moralSelf U u 1 0.4821 
26-May-2018_15:47:34 7328 20 male R 4 2 7 moral immoralOther Y y 1 0.5536 
26-May-2018_15:47:36 7328 20 male R 4 2 8 moral immoralOther Y y 1 0.4177 
26-May-2018_15:47:38 7328 20 male R 4 2 9 moral immoralSelf Y y 1 0.4747 
26-May-2018_15:47:40 7328 20 male R 4 2 10 moral immoralOther Y y 1 0.4687 
26-May-2018_15:47:41 7328 20 male R 4 2 11 moral moralOther U u 1 0.3949 
26-May-2018_15:47:42 7328 20 male R 4 2 12 moral moralOther U u 1 0.3943 
26-May-2018_15:47:44 7328 20 male R 4 2 13 moral moralOther U u 1 0.4867 
26-May-2018_15:47:45 7328 20 male R 4 2 14 moral moralSelf U u 1 0.4924 
26-May-2018_15:47:47 7328 20 male R 4 2 15 moral moralSelf U u 1 0.4266 
26-May-2018_15:47:49 7328 20 male R 4 2 16 moral immoralSelf Y y 1 0.4968 
26-May-2018_15:47:50 7328 20 male R 4 2 17 moral moralOther U y 0 0.3519 
26-May-2018_15:47:52 7328 20 male R 4 2 18 moral immoralOther Y y 1 0.5336 
26-May-2018_15:47:53 7328 20 male R 4 2 19 moral immoralSelf Y y 1 0.5486 
26-May-2018_15:47:55 7328 20 male R 4 2 20 moral moralSelf U u 1 0.4345 
26-May-2018_15:47:57 7328 20 male R 4 2 21 moral moralOther U u 1 0.4740 
26-May-2018_15:47:59 7328 20 male R 4 2 22 moral immoralSelf Y y 1 0.5503 
26-May-2018_15:48:00 7328 20 male R 4 2 23 moral immoralOther Y y 1 0.6079 
26-May-2018_15:48:02 7328 20 male R 4 2 24 moral moralOther U u 1 0.5218 
26-May-2018_15:49:07 7328 20 male R 4 3 1 moral immoralSelf Y y 1 0.5557 
26-May-2018_15:49:09 7328 20 male R 4 3 2 moral moralSelf U u 1 0.3037 
26-May-2018_15:49:10 7328 20 male R 4 3 3 moral moralSelf U u 1 0.4142 
26-May-2018_15:49:12 7328 20 male R 4 3 4 moral moralOther U u 1 0.6830 
26-May-2018_15:49:14 7328 20 male R 4 3 5 moral immoralOther Y y 1 0.4408 
26-May-2018_15:49:15 7328 20 male R 4 3 6 moral moralSelf U u 1 0.4158 
26-May-2018_15:49:17 7328 20 male R 4 3 7 moral immoralSelf Y y 1 0.6739 
26-May-2018_15:49:19 7328 20 male R 4 3 8 moral moralOther U u 1 0.5925 
26-May-2018_15:49:21 7328 20 male R 4 3 9 moral immoralOther Y y 1 0.4358 
26-May-2018_15:49:23 7328 20 male R 4 3 10 moral immoralOther Y y 1 0.9888 
26-May-2018_15:49:25 7328 20 male R 4 3 11 moral moralSelf U u 1 0.4412 
26-May-2018_15:49:26 7328 20 male R 4 3 12 moral moralSelf U u 1 0.5024 
26-May-2018_15:49:28 7328 20 male R 4 3 13 moral immoralOther Y y 1 0.5877 
26-May-2018_15:49:30 7328 20 male R 4 3 14 moral immoralOther Y y 1 0.5402 
26-May-2018_15:49:31 7328 20 male R 4 3 15 moral moralOther U u 1 0.5191 
26-May-2018_15:49:33 7328 20 male R 4 3 16 moral moralOther U y 0 0.5544 
26-May-2018_15:49:35 7328 20 male R 4 3 17 moral immoralSelf Y y 1 0.8100 
26-May-2018_15:49:36 7328 20 male R 4 3 18 moral immoralSelf Y y 1 0.7296 
26-May-2018_15:49:38 7328 20 male R 4 3 19 moral moralSelf U u 1 0.4700 
26-May-2018_15:49:40 7328 20 male R 4 3 20 moral moralOther U u 1 0.4605 
26-May-2018_15:49:41 7328 20 male R 4 3 21 moral immoralOther Y y 1 0.5641 
26-May-2018_15:49:43 7328 20 male R 4 3 22 moral moralOther U u 1 0.4438 
26-May-2018_15:49:45 7328 20 male R 4 3 23 moral immoralSelf Y y 1 0.5454 
26-May-2018_15:49:47 7328 20 male R 4 3 24 moral immoralSelf Y y 1 0.7083 
26-May-2018_15:49:49 7328 20 male R 4 4 1 moral immoralSelf Y y 1 0.6293 
26-May-2018_15:49:50 7328 20 male R 4 4 2 moral moralOther U u 1 0.5395 
26-May-2018_15:49:52 7328 20 male R 4 4 3 moral immoralOther Y y 1 0.6846 
26-May-2018_15:49:54 7328 20 male R 4 4 4 moral moralOther U u 1 0.6578 
26-May-2018_15:49:56 7328 20 male R 4 4 5 moral immoralSelf Y y 1 0.5430 
26-May-2018_15:49:58 7328 20 male R 4 4 6 moral moralSelf U u 1 0.4067 
26-May-2018_15:50:00 7328 20 male R 4 4 7 moral moralSelf U u 1 0.6669 
26-May-2018_15:50:02 7328 20 male R 4 4 8 moral immoralOther Y y 1 0.6798 
26-May-2018_15:50:04 7328 20 male R 4 4 9 moral immoralOther Y y 1 0.7735 
26-May-2018_15:50:06 7328 20 male R 4 4 10 moral immoralSelf Y y 1 0.8879 
26-May-2018_15:50:08 7328 20 male R 4 4 11 moral moralOther U u 1 0.4385 
26-May-2018_15:50:09 7328 20 male R 4 4 12 moral immoralSelf Y y 1 0.4038 
26-May-2018_15:50:11 7328 20 male R 4 4 13 moral immoralOther Y y 1 0.3831 
26-May-2018_15:50:13 7328 20 male R 4 4 14 moral moralSelf U u 1 0.5004 
26-May-2018_15:50:14 7328 20 male R 4 4 15 moral moralSelf U u 1 0.5038 
26-May-2018_15:50:16 7328 20 male R 4 4 16 moral moralOther U y 0 0.4789 
26-May-2018_15:50:18 7328 20 male R 4 4 17 moral immoralSelf Y y 1 0.5058 
26-May-2018_15:50:19 7328 20 male R 4 4 18 moral immoralOther Y y 1 0.5938 
26-May-2018_15:50:21 7328 20 male R 4 4 19 moral immoralSelf Y y 1 0.5639 
26-May-2018_15:50:22 7328 20 male R 4 4 20 moral immoralOther Y y 1 0.4359 
26-May-2018_15:50:24 7328 20 male R 4 4 21 moral moralOther U u 1 0.5084 
26-May-2018_15:50:26 7328 20 male R 4 4 22 moral moralSelf U u 1 0.5282 
26-May-2018_15:50:27 7328 20 male R 4 4 23 moral moralSelf U u 1 0.4252 
26-May-2018_15:50:29 7328 20 male R 4 4 24 moral moralOther U u 1 0.5340 
26-May-2018_15:50:57 7328 20 male R 4 5 1 moral immoralSelf Y y 1 0.6216 
26-May-2018_15:50:59 7328 20 male R 4 5 2 moral immoralSelf Y y 1 0.7394 
26-May-2018_15:51:01 7328 20 male R 4 5 3 moral moralOther U u 1 0.4407 
26-May-2018_15:51:02 7328 20 male R 4 5 4 moral immoralOther Y y 1 0.6120 
26-May-2018_15:51:04 7328 20 male R 4 5 5 moral moralSelf U u 1 0.5259 
26-May-2018_15:51:05 7328 20 male R 4 5 6 moral immoralOther Y y 1 0.4747 
26-May-2018_15:51:07 7328 20 male R 4 5 7 moral moralOther U u 1 0.6399 
26-May-2018_15:51:09 7328 20 male R 4 5 8 moral immoralSelf Y y 1 0.4160 
26-May-2018_15:51:10 7328 20 male R 4 5 9 moral moralOther U u 1 0.4758 
26-May-2018_15:51:12 7328 20 male R 4 5 10 moral moralSelf U u 1 0.4523 
26-May-2018_15:51:13 7328 20 male R 4 5 11 moral immoralOther Y y 1 0.4506 
26-May-2018_15:51:15 7328 20 male R 4 5 12 moral immoralSelf Y y 1 0.6111 
26-May-2018_15:51:17 7328 20 male R 4 5 13 moral moralSelf U u 1 0.4558 
26-May-2018_15:51:18 7328 20 male R 4 5 14 moral immoralOther Y y 1 0.5148 
26-May-2018_15:51:20 7328 20 male R 4 5 15 moral immoralSelf Y y 1 0.6376 
26-May-2018_15:51:21 7328 20 male R 4 5 16 moral immoralSelf Y y 1 0.4053 
26-May-2018_15:51:23 7328 20 male R 4 5 17 moral moralOther U u 1 0.4589 
26-May-2018_15:51:25 7328 20 male R 4 5 18 moral immoralOther Y y 1 0.5428 
26-May-2018_15:51:26 7328 20 male R 4 5 19 moral immoralOther Y y 1 0.5338 
26-May-2018_15:51:28 7328 20 male R 4 5 20 moral moralSelf U u 1 0.4520 
26-May-2018_15:51:29 7328 20 male R 4 5 21 moral moralOther U u 1 0.4686 
26-May-2018_15:51:31 7328 20 male R 4 5 22 moral moralSelf U u 1 0.3966 
26-May-2018_15:51:33 7328 20 male R 4 5 23 moral moralSelf U u 1 0.5275 
26-May-2018_15:51:35 7328 20 male R 4 5 24 moral moralOther U u 1 0.6825 
Date Sub Age Sex Hand Block Bin Trial Task Shape corrResp Resp ACC RT
26-May-2018_15:54:45 7328 20 male R 5 1 1 moral moralOther U u 1 0.6628 
26-May-2018_15:54:47 7328 20 male R 5 1 2 moral moralOther U u 1 0.4159 
26-May-2018_15:54:48 7328 20 male R 5 1 3 moral moralSelf U u 1 0.6669 
26-May-2018_15:54:50 7328 20 male R 5 1 4 moral moralSelf U u 1 0.3944 
26-May-2018_15:54:52 7328 20 male R 5 1 5 moral moralOther U u 1 0.4594 
26-May-2018_15:54:53 7328 20 male R 5 1 6 moral moralOther U u 1 0.3484 
26-May-2018_15:54:55 7328 20 male R 5 1 7 moral immoralOther Y y 1 0.4698 
26-May-2018_15:54:56 7328 20 male R 5 1 8 moral immoralOther Y y 1 0.3880 
26-May-2018_15:54:58 7328 20 male R 5 1 9 moral moralOther U u 1 0.4468 
26-May-2018_15:55:00 7328 20 male R 5 1 10 moral immoralSelf Y y 1 0.5340 
26-May-2018_15:55:02 7328 20 male R 5 1 11 moral immoralSelf Y y 1 0.5783 
26-May-2018_15:55:04 7328 20 male R 5 1 12 moral immoralSelf Y y 1 0.6179 
26-May-2018_15:55:06 7328 20 male R 5 1 13 moral immoralOther Y y 1 0.7012 
26-May-2018_15:55:07 7328 20 male R 5 1 14 moral moralSelf U u 1 0.6157 
26-May-2018_15:55:09 7328 20 male R 5 1 15 moral moralOther U u 1 0.6591 
26-May-2018_15:55:11 7328 20 male R 5 1 16 moral immoralSelf Y y 1 0.4601 
26-May-2018_15:55:13 7328 20 male R 5 1 17 moral immoralOther Y y 1 0.7213 
26-May-2018_15:55:14 7328 20 male R 5 1 18 moral moralSelf U u 1 0.4123 
26-May-2018_15:55:16 7328 20 male R 5 1 19 moral immoralOther Y y 1 0.5558 
26-May-2018_15:55:18 7328 20 male R 5 1 20 moral moralSelf U u 1 0.5192 
26-May-2018_15:55:20 7328 20 male R 5 1 21 moral immoralOther Y y 1 0.6623 
26-May-2018_15:55:22 7328 20 male R 5 1 22 moral moralSelf U u 1 0.3782 
26-May-2018_15:55:24 7328 20 male R 5 1 23 moral immoralSelf Y y 1 0.5438 
26-May-2018_15:55:26 7328 20 male R 5 1 24 moral immoralSelf Y y 1 1.0254 
26-May-2018_15:55:27 7328 20 male R 5 2 1 moral immoralOther Y y 1 0.4508 
26-May-2018_15:55:29 7328 20 male R 5 2 2 moral moralOther U u 1 0.4340 
26-May-2018_15:55:31 7328 20 male R 5 2 3 moral moralOther U u 1 0.4947 
26-May-2018_15:55:32 7328 20 male R 5 2 4 moral immoralSelf Y y 1 0.5014 
26-May-2018_15:55:34 7328 20 male R 5 2 5 moral moralSelf U u 1 0.3970 
26-May-2018_15:55:36 7328 20 male R 5 2 6 moral immoralOther Y y 1 0.5067 
26-May-2018_15:55:37 7328 20 male R 5 2 7 moral moralSelf U u 1 0.4286 
26-May-2018_15:55:39 7328 20 male R 5 2 8 moral immoralSelf Y y 1 0.4437 
26-May-2018_15:55:40 7328 20 male R 5 2 9 moral moralOther U u 1 0.4010 
26-May-2018_15:55:42 7328 20 male R 5 2 10 moral moralSelf U u 1 0.5492 
26-May-2018_15:55:45 7328 20 male R 5 2 11 moral immoralSelf Y y 1 0.7856 
26-May-2018_15:55:46 7328 20 male R 5 2 12 moral immoralSelf Y y 1 0.5542 
26-May-2018_15:55:48 7328 20 male R 5 2 13 moral immoralOther Y y 1 0.7741 
26-May-2018_15:55:50 7328 20 male R 5 2 14 moral moralOther U u 1 0.5805 
26-May-2018_15:55:52 7328 20 male R 5 2 15 moral immoralOther Y y 1 0.5520 
26-May-2018_15:55:53 7328 20 male R 5 2 16 moral moralOther U u 1 0.3958 
26-May-2018_15:55:55 7328 20 male R 5 2 17 moral moralSelf U u 1 0.5549 
26-May-2018_15:55:57 7328 20 male R 5 2 18 moral moralSelf U u 1 0.3545 
26-May-2018_15:55:58 7328 20 male R 5 2 19 moral moralSelf U u 1 0.3749 
26-May-2018_15:56:00 7328 20 male R 5 2 20 moral immoralSelf Y y 1 0.4822 
26-May-2018_15:56:01 7328 20 male R 5 2 21 moral moralOther U y 0 0.5035 
26-May-2018_15:56:03 7328 20 male R 5 2 22 moral immoralOther Y y 1 0.5336 
26-May-2018_15:56:05 7328 20 male R 5 2 23 moral immoralSelf Y y 1 0.4716 
26-May-2018_15:56:06 7328 20 male R 5 2 24 moral immoralOther Y y 1 0.4684 
26-May-2018_15:56:33 7328 20 male R 5 3 1 moral immoralOther Y y 1 0.6815 
26-May-2018_15:56:34 7328 20 male R 5 3 2 moral immoralSelf Y y 1 0.4535 
26-May-2018_15:56:36 7328 20 male R 5 3 3 moral moralSelf U u 1 0.4455 
26-May-2018_15:56:38 7328 20 male R 5 3 4 moral immoralOther Y y 1 0.4384 
26-May-2018_15:56:39 7328 20 male R 5 3 5 moral immoralOther Y y 1 0.3773 
26-May-2018_15:56:41 7328 20 male R 5 3 6 moral moralOther U u 1 0.4151 
26-May-2018_15:56:43 7328 20 male R 5 3 7 moral moralOther U u 1 0.5158 
26-May-2018_15:56:44 7328 20 male R 5 3 8 moral immoralOther Y y 1 0.4887 
26-May-2018_15:56:46 7328 20 male R 5 3 9 moral immoralSelf Y y 1 0.7084 
26-May-2018_15:56:48 7328 20 male R 5 3 10 moral moralSelf U u 1 0.3838 
26-May-2018_15:56:49 7328 20 male R 5 3 11 moral moralSelf U u 1 0.4465 
26-May-2018_15:56:51 7328 20 male R 5 3 12 moral moralOther U u 1 0.5562 
26-May-2018_15:56:53 7328 20 male R 5 3 13 moral moralOther U u 1 0.4118 
26-May-2018_15:56:55 7328 20 male R 5 3 14 moral moralSelf U u 1 0.5210 
26-May-2018_15:56:57 7328 20 male R 5 3 15 moral immoralSelf Y y 1 0.5719 
26-May-2018_15:56:58 7328 20 male R 5 3 16 moral immoralSelf Y y 1 0.5385 
26-May-2018_15:57:00 7328 20 male R 5 3 17 moral moralOther U u 1 0.3795 
26-May-2018_15:57:01 7328 20 male R 5 3 18 moral immoralOther Y y 1 0.5632 
26-May-2018_15:57:03 7328 20 male R 5 3 19 moral immoralOther Y y 1 0.4789 
26-May-2018_15:57:05 7328 20 male R 5 3 20 moral moralSelf U u 1 0.4663 
26-May-2018_15:57:06 7328 20 male R 5 3 21 moral moralSelf U u 1 0.4307 
26-May-2018_15:57:08 7328 20 male R 5 3 22 moral immoralSelf Y y 1 0.6674 
26-May-2018_15:57:10 7328 20 male R 5 3 23 moral immoralSelf Y y 1 0.4345 
26-May-2018_15:57:12 7328 20 male R 5 3 24 moral moralOther U u 1 0.5743 
26-May-2018_15:57:13 7328 20 male R 5 4 1 moral moralSelf U u 1 0.3927 
26-May-2018_15:57:15 7328 20 male R 5 4 2 moral moralOther U u 1 0.5052 
26-May-2018_15:57:16 7328 20 male R 5 4 3 moral moralSelf U u 1 0.4513 
26-May-2018_15:57:18 7328 20 male R 5 4 4 moral moralSelf U u 1 0.3633 
26-May-2018_15:57:20 7328 20 male R 5 4 5 moral moralOther U u 1 0.5069 
26-May-2018_15:57:21 7328 20 male R 5 4 6 moral immoralOther Y y 1 0.5526 
26-May-2018_15:57:23 7328 20 male R 5 4 7 moral immoralSelf Y y 1 0.6746 
26-May-2018_15:57:24 7328 20 male R 5 4 8 moral immoralSelf Y y 1 0.3612 
26-May-2018_15:57:26 7328 20 male R 5 4 9 moral immoralSelf Y y 1 0.3576 
26-May-2018_15:57:28 7328 20 male R 5 4 10 moral moralSelf U u 1 0.4870 
26-May-2018_15:57:30 7328 20 male R 5 4 11 moral immoralOther Y y 1 0.5406 
26-May-2018_15:57:31 7328 20 male R 5 4 12 moral immoralOther Y y 1 0.5036 
26-May-2018_15:57:33 7328 20 male R 5 4 13 moral moralSelf U u 1 0.3446 
26-May-2018_15:57:35 7328 20 male R 5 4 14 moral immoralOther Y y 1 0.5338 
26-May-2018_15:57:36 7328 20 male R 5 4 15 moral moralSelf U u 1 0.4121 
26-May-2018_15:57:38 7328 20 male R 5 4 16 moral immoralSelf Y y 1 0.5768 
26-May-2018_15:57:39 7328 20 male R 5 4 17 moral immoralSelf Y y 1 0.4687 
26-May-2018_15:57:41 7328 20 male R 5 4 18 moral moralOther U u 1 0.4376 
26-May-2018_15:57:43 7328 20 male R 5 4 19 moral moralOther U u 1 0.4682 
26-May-2018_15:57:45 7328 20 male R 5 4 20 moral immoralSelf Y y 1 0.5059 
26-May-2018_15:57:46 7328 20 male R 5 4 21 moral immoralOther Y y 1 0.4803 
26-May-2018_15:57:48 7328 20 male R 5 4 22 moral moralOther U u 1 0.6392 
26-May-2018_15:57:50 7328 20 male R 5 4 23 moral immoralOther Y y 1 0.4643 
26-May-2018_15:57:52 7328 20 male R 5 4 24 moral moralOther U u 1 0.6474 
26-May-2018_15:58:52 7328 20 male R 5 5 1 moral moralSelf U u 1 0.4389 
26-May-2018_15:58:54 7328 20 male R 5 5 2 moral moralSelf U u 1 0.4107 
26-May-2018_15:58:55 7328 20 male R 5 5 3 moral immoralOther Y y 1 0.4018 
26-May-2018_15:58:56 7328 20 male R 5 5 4 moral immoralOther Y y 1 0.4259 
26-May-2018_15:58:58 7328 20 male R 5 5 5 moral immoralSelf Y y 1 0.4590 
26-May-2018_15:59:00 7328 20 male R 5 5 6 moral immoralSelf Y y 1 0.3912 
26-May-2018_15:59:01 7328 20 male R 5 5 7 moral moralSelf U u 1 0.3767 
26-May-2018_15:59:03 7328 20 male R 5 5 8 moral moralOther U u 1 0.5297 
26-May-2018_15:59:05 7328 20 male R 5 5 9 moral immoralOther Y y 1 0.4860 
26-May-2018_15:59:06 7328 20 male R 5 5 10 moral immoralSelf Y y 1 0.7066 
26-May-2018_15:59:08 7328 20 male R 5 5 11 moral moralOther U u 1 0.3892 
26-May-2018_15:59:10 7328 20 male R 5 5 12 moral moralOther U u 1 0.4556 
26-May-2018_15:59:12 7328 20 male R 5 5 13 moral moralOther U u 1 0.3879 
26-May-2018_15:59:13 7328 20 male R 5 5 14 moral immoralOther Y y 1 0.4580 
26-May-2018_15:59:15 7328 20 male R 5 5 15 moral moralSelf U u 1 0.4355 
26-May-2018_15:59:17 7328 20 male R 5 5 16 moral immoralSelf Y y 1 0.5363 
26-May-2018_15:59:18 7328 20 male R 5 5 17 moral moralSelf U u 1 0.4282 
26-May-2018_15:59:20 7328 20 male R 5 5 18 moral immoralSelf Y y 1 0.4847 
26-May-2018_15:59:22 7328 20 male R 5 5 19 moral moralOther U u 1 0.4932 
26-May-2018_15:59:24 7328 20 male R 5 5 20 moral immoralOther Y y 1 0.5352 
26-May-2018_15:59:25 7328 20 male R 5 5 21 moral moralOther U u 1 0.3988 
26-May-2018_15:59:27 7328 20 male R 5 5 22 moral moralSelf U u 1 0.4953 
26-May-2018_15:59:29 7328 20 male R 5 5 23 moral immoralSelf Y y 1 0.5193 
26-May-2018_15:59:30 7328 20 male R 5 5 24 moral immoralOther Y y 1 0.5054 
Date Sub Age Sex Hand Block Bin Trial Task Shape corrResp Resp ACC RT
26-May-2018_16:03:20 7328 20 male R 6 1 1 self immoralSelf H h 1 0.6627 
26-May-2018_16:03:21 7328 20 male R 6 1 2 self moralOther J j 1 0.5518 
26-May-2018_16:03:23 7328 20 male R 6 1 3 self moralOther J j 1 0.6348 
26-May-2018_16:03:25 7328 20 male R 6 1 4 self moralSelf H h 1 0.4380 
26-May-2018_16:03:27 7328 20 male R 6 1 5 self immoralSelf H h 1 0.6899 
26-May-2018_16:03:29 7328 20 male R 6 1 6 self immoralOther J j 1 0.4222 
26-May-2018_16:03:31 7328 20 male R 6 1 7 self moralOther J j 1 0.6444 
26-May-2018_16:03:32 7328 20 male R 6 1 8 self immoralSelf H h 1 0.5889 
26-May-2018_16:03:34 7328 20 male R 6 1 9 self immoralOther J j 1 0.5495 
26-May-2018_16:03:36 7328 20 male R 6 1 10 self moralOther J j 1 0.9095 
26-May-2018_16:03:38 7328 20 male R 6 1 11 self moralSelf H h 1 0.4757 
26-May-2018_16:03:39 7328 20 male R 6 1 12 self moralOther J h 0 0.4622 
26-May-2018_16:03:41 7328 20 male R 6 1 13 self immoralOther J j 1 0.4707 
26-May-2018_16:03:42 7328 20 male R 6 1 14 self moralSelf H h 1 0.4274 
26-May-2018_16:03:44 7328 20 male R 6 1 15 self immoralOther J j 1 0.6101 
26-May-2018_16:03:46 7328 20 male R 6 1 16 self immoralOther J j 1 0.4521 
26-May-2018_16:03:47 7328 20 male R 6 1 17 self immoralSelf H h 1 0.6168 
26-May-2018_16:03:49 7328 20 male R 6 1 18 self immoralOther J j 1 0.6018 
26-May-2018_16:03:51 7328 20 male R 6 1 19 self moralOther J j 1 0.7022 
26-May-2018_16:03:53 7328 20 male R 6 1 20 self moralSelf H h 1 0.4443 
26-May-2018_16:03:54 7328 20 male R 6 1 21 self moralSelf H h 1 0.3940 
26-May-2018_16:03:56 7328 20 male R 6 1 22 self moralSelf H h 1 0.3927 
26-May-2018_16:03:58 7328 20 male R 6 1 23 self immoralSelf H h 1 0.7085 
26-May-2018_16:04:00 7328 20 male R 6 1 24 self immoralSelf H j 0 0.6324 
26-May-2018_16:04:02 7328 20 male R 6 2 1 self immoralOther J j 1 0.6287 
26-May-2018_16:04:03 7328 20 male R 6 2 2 self immoralSelf H h 1 0.5288 
26-May-2018_16:04:05 7328 20 male R 6 2 3 self immoralOther J j 1 0.5451 
26-May-2018_16:04:06 7328 20 male R 6 2 4 self moralSelf H h 1 0.3536 
26-May-2018_16:04:08 7328 20 male R 6 2 5 self moralOther J j 1 0.9569 
26-May-2018_16:04:10 7328 20 male R 6 2 6 self moralOther J j 1 0.4163 
26-May-2018_16:04:12 7328 20 male R 6 2 7 self moralSelf H h 1 0.4277 
26-May-2018_16:04:14 7328 20 male R 6 2 8 self moralOther J j 1 0.6142 
26-May-2018_16:04:15 7328 20 male R 6 2 9 self immoralOther J j 1 0.6132 
26-May-2018_16:04:17 7328 20 male R 6 2 10 self immoralSelf H j 0 0.4768 
26-May-2018_16:04:19 7328 20 male R 6 2 11 self immoralOther J j 1 0.5348 
26-May-2018_16:04:21 7328 20 male R 6 2 12 self immoralOther J j 1 0.4501 
26-May-2018_16:04:23 7328 20 male R 6 2 13 self immoralSelf H h 1 0.3250 
26-May-2018_16:04:24 7328 20 male R 6 2 14 self moralSelf H h 1 0.5679 
26-May-2018_16:04:26 7328 20 male R 6 2 15 self moralOther J j 1 0.5830 
26-May-2018_16:04:28 7328 20 male R 6 2 16 self immoralSelf H h 1 0.4904 
26-May-2018_16:04:29 7328 20 male R 6 2 17 self moralOther J j 1 0.5116 
26-May-2018_16:04:31 7328 20 male R 6 2 18 self moralSelf H h 1 0.4458 
26-May-2018_16:04:32 7328 20 male R 6 2 19 self moralSelf H h 1 0.4439 
26-May-2018_16:04:34 7328 20 male R 6 2 20 self immoralOther J j 1 0.5076 
26-May-2018_16:04:36 7328 20 male R 6 2 21 self immoralSelf H h 1 0.6639 
26-May-2018_16:04:37 7328 20 male R 6 2 22 self moralSelf H h 1 0.3999 
26-May-2018_16:04:39 7328 20 male R 6 2 23 self moralOther J h 0 0.5778 
26-May-2018_16:04:41 7328 20 male R 6 2 24 self immoralSelf H h 1 0.6824 
26-May-2018_16:05:54 7328 20 male R 6 3 1 self moralSelf H h 1 0.4810 
26-May-2018_16:05:56 7328 20 male R 6 3 2 self moralOther J j 1 0.6434 
26-May-2018_16:05:58 7328 20 male R 6 3 3 self moralOther J j 1 0.5135 
26-May-2018_16:06:00 7328 20 male R 6 3 4 self immoralSelf H h 1 0.6101 
26-May-2018_16:06:01 7328 20 male R 6 3 5 self immoralOther J j 1 0.6097 
26-May-2018_16:06:03 7328 20 male R 6 3 6 self moralSelf H h 1 0.5053 
26-May-2018_16:06:04 7328 20 male R 6 3 7 self immoralSelf H h 1 0.7031 
26-May-2018_16:06:06 7328 20 male R 6 3 8 self moralOther J j 1 0.4287 
26-May-2018_16:06:07 7328 20 male R 6 3 9 self moralSelf H h 1 0.3643 
26-May-2018_16:06:09 7328 20 male R 6 3 10 self moralSelf H h 1 0.4203 
26-May-2018_16:06:11 7328 20 male R 6 3 11 self immoralSelf H h 1 0.5550 
26-May-2018_16:06:13 7328 20 male R 6 3 12 self immoralSelf H h 1 0.5644 
26-May-2018_16:06:14 7328 20 male R 6 3 13 self moralOther J j 1 0.6831 
26-May-2018_16:06:16 7328 20 male R 6 3 14 self moralSelf H h 1 0.4650 
26-May-2018_16:06:18 7328 20 male R 6 3 15 self immoralOther J j 1 0.5034 
26-May-2018_16:06:20 7328 20 male R 6 3 16 self immoralOther J j 1 0.5454 
26-May-2018_16:06:22 7328 20 male R 6 3 17 self moralOther J j 1 0.5851 
26-May-2018_16:06:23 7328 20 male R 6 3 18 self moralOther J j 1 0.5734 
26-May-2018_16:06:25 7328 20 male R 6 3 19 self immoralOther J j 1 0.4874 
26-May-2018_16:06:26 7328 20 male R 6 3 20 self moralSelf H h 1 0.5109 
26-May-2018_16:06:28 7328 20 male R 6 3 21 self immoralOther J j 1 0.3778 
26-May-2018_16:06:30 7328 20 male R 6 3 22 self immoralOther J j 1 0.5397 
26-May-2018_16:06:32 7328 20 male R 6 3 23 self immoralSelf H h 1 0.5167 
26-May-2018_16:06:33 7328 20 male R 6 3 24 self immoralSelf H h 1 0.6278 
26-May-2018_16:06:35 7328 20 male R 6 4 1 self moralOther J j 1 0.5997 
26-May-2018_16:06:37 7328 20 male R 6 4 2 self immoralSelf H h 1 0.6205 
26-May-2018_16:06:39 7328 20 male R 6 4 3 self moralSelf H h 1 0.4709 
26-May-2018_16:06:40 7328 20 male R 6 4 4 self immoralSelf H h 1 0.4916 
26-May-2018_16:06:42 7328 20 male R 6 4 5 self immoralSelf H h 1 0.4484 
26-May-2018_16:06:43 7328 20 male R 6 4 6 self immoralSelf H h 1 0.3817 
26-May-2018_16:06:45 7328 20 male R 6 4 7 self immoralOther J j 1 0.4778 
26-May-2018_16:06:47 7328 20 male R 6 4 8 self immoralOther J j 1 0.4938 
26-May-2018_16:06:48 7328 20 male R 6 4 9 self moralOther J h 0 0.6110 
26-May-2018_16:06:50 7328 20 male R 6 4 10 self moralSelf H h 1 0.7067 
26-May-2018_16:06:52 7328 20 male R 6 4 11 self moralSelf H h 1 0.4319 
26-May-2018_16:06:54 7328 20 male R 6 4 12 self moralOther J j 1 0.9599 
26-May-2018_16:06:56 7328 20 male R 6 4 13 self moralOther J j 1 0.4852 
26-May-2018_16:06:57 7328 20 male R 6 4 14 self moralOther J j 1 0.4392 
26-May-2018_16:06:59 7328 20 male R 6 4 15 self moralSelf H h 1 0.5634 
26-May-2018_16:07:01 7328 20 male R 6 4 16 self moralSelf H h 1 0.4275 
26-May-2018_16:07:02 7328 20 male R 6 4 17 self immoralOther J j 1 0.4643 
26-May-2018_16:07:04 7328 20 male R 6 4 18 self moralSelf H h 1 0.4873 
26-May-2018_16:07:06 7328 20 male R 6 4 19 self moralOther J j 1 0.6291 
26-May-2018_16:07:08 7328 20 male R 6 4 20 self immoralOther J j 1 0.5773 
26-May-2018_16:07:09 7328 20 male R 6 4 21 self immoralOther J j 1 0.5318 
26-May-2018_16:07:11 7328 20 male R 6 4 22 self immoralSelf H h 1 0.6952 
26-May-2018_16:07:13 7328 20 male R 6 4 23 self immoralSelf H h 1 0.3833 
26-May-2018_16:07:14 7328 20 male R 6 4 24 self immoralOther J j 1 0.6760 
26-May-2018_16:07:47 7328 20 male R 6 5 1 self moralSelf H h 1 0.4504 
26-May-2018_16:07:49 7328 20 male R 6 5 2 self moralOther J j 1 0.5272 
26-May-2018_16:07:51 7328 20 male R 6 5 3 self moralSelf H h 1 0.3692 
26-May-2018_16:07:53 7328 20 male R 6 5 4 self moralOther J j 1 0.6181 
26-May-2018_16:07:54 7328 20 male R 6 5 5 self immoralSelf H h 1 0.5792 
26-May-2018_16:07:56 7328 20 male R 6 5 6 self immoralSelf H h 1 0.6639 
26-May-2018_16:07:58 7328 20 male R 6 5 7 self immoralOther J j 1 0.5605 
26-May-2018_16:07:59 7328 20 male R 6 5 8 self immoralOther J j 1 0.4546 
26-May-2018_16:08:01 7328 20 male R 6 5 9 self moralSelf H h 1 0.5253 
26-May-2018_16:08:03 7328 20 male R 6 5 10 self moralSelf H h 1 0.4525 
26-May-2018_16:08:04 7328 20 male R 6 5 11 self immoralOther J j 1 0.5354 
26-May-2018_16:08:06 7328 20 male R 6 5 12 self moralOther J j 1 0.6747 
26-May-2018_16:08:08 7328 20 male R 6 5 13 self immoralOther J j 1 0.4451 
26-May-2018_16:08:10 7328 20 male R 6 5 14 self moralOther J j 1 0.4781 
26-May-2018_16:08:11 7328 20 male R 6 5 15 self immoralSelf H h 1 0.5144 
26-May-2018_16:08:13 7328 20 male R 6 5 16 self moralOther J j 1 0.4707 
26-May-2018_16:08:15 7328 20 male R 6 5 17 self immoralSelf H h 1 0.6012 
26-May-2018_16:08:16 7328 20 male R 6 5 18 self immoralOther J j 1 0.5128 
26-May-2018_16:08:18 7328 20 male R 6 5 19 self moralOther J j 1 0.5721 
26-May-2018_16:08:20 7328 20 male R 6 5 20 self moralSelf H h 1 0.5053 
26-May-2018_16:08:22 7328 20 male R 6 5 21 self immoralOther J j 1 0.4975 
26-May-2018_16:08:23 7328 20 male R 6 5 22 self immoralSelf H h 1 0.5201 
26-May-2018_16:08:25 7328 20 male R 6 5 23 self moralSelf H h 1 0.6406 
26-May-2018_16:08:27 7328 20 male R 6 5 24 self immoralSelf H h 1 0.5005 
