Date Sub Age Sex Hand Block Bin Trial Task Shape corrResp Resp ACC RT
13-May-2018_14:25:57 7312 21 female R 1 1 1 self immoralSelf H NA -1 1.0841 
13-May-2018_14:26:00 7312 21 female R 1 1 2 self moralOther J j 1 1.0390 
13-May-2018_14:26:02 7312 21 female R 1 1 3 self immoralSelf H h 1 0.5752 
13-May-2018_14:26:03 7312 21 female R 1 1 4 self moralSelf H h 1 0.5650 
13-May-2018_14:26:06 7312 21 female R 1 1 5 self moralOther J j 1 0.6878 
13-May-2018_14:26:07 7312 21 female R 1 1 6 self immoralOther J j 1 0.5223 
13-May-2018_14:26:10 7312 21 female R 1 1 7 self moralSelf H h 1 0.5924 
13-May-2018_14:26:11 7312 21 female R 1 1 8 self moralOther J j 1 0.5581 
13-May-2018_14:26:13 7312 21 female R 1 1 9 self moralSelf H h 1 0.5460 
13-May-2018_14:26:15 7312 21 female R 1 1 10 self immoralOther J j 1 0.4407 
13-May-2018_14:26:17 7312 21 female R 1 1 11 self immoralSelf H h 1 0.8243 
13-May-2018_14:26:18 7312 21 female R 1 1 12 self moralOther J j 1 0.5839 
13-May-2018_14:26:20 7312 21 female R 1 1 13 self immoralOther J j 1 0.6061 
13-May-2018_14:26:22 7312 21 female R 1 1 14 self moralSelf H h 1 0.4174 
13-May-2018_14:26:24 7312 21 female R 1 1 15 self immoralOther J j 1 0.7803 
13-May-2018_14:26:26 7312 21 female R 1 1 16 self moralOther J j 1 0.6661 
13-May-2018_14:26:28 7312 21 female R 1 1 17 self moralOther J j 1 0.6582 
13-May-2018_14:26:30 7312 21 female R 1 1 18 self immoralOther J j 1 0.5480 
13-May-2018_14:26:31 7312 21 female R 1 1 19 self immoralSelf H h 1 0.3627 
13-May-2018_14:26:33 7312 21 female R 1 1 20 self immoralOther J j 1 0.4748 
13-May-2018_14:26:35 7312 21 female R 1 1 21 self moralSelf H h 1 0.5309 
13-May-2018_14:26:37 7312 21 female R 1 1 22 self immoralSelf H j 0 0.7851 
13-May-2018_14:26:39 7312 21 female R 1 1 23 self immoralSelf H h 1 0.5818 
13-May-2018_14:26:41 7312 21 female R 1 1 24 self moralSelf H h 1 0.5805 
13-May-2018_14:26:42 7312 21 female R 1 2 1 self immoralOther J j 1 0.4437 
13-May-2018_14:26:44 7312 21 female R 1 2 2 self immoralOther J j 1 0.6912 
13-May-2018_14:26:46 7312 21 female R 1 2 3 self moralSelf H h 1 0.4598 
13-May-2018_14:26:48 7312 21 female R 1 2 4 self immoralSelf H h 1 0.5892 
13-May-2018_14:26:49 7312 21 female R 1 2 5 self moralSelf H h 1 0.5305 
13-May-2018_14:26:51 7312 21 female R 1 2 6 self immoralSelf H h 1 0.4802 
13-May-2018_14:26:53 7312 21 female R 1 2 7 self immoralOther J j 1 0.7288 
13-May-2018_14:26:54 7312 21 female R 1 2 8 self moralOther J j 1 0.6949 
13-May-2018_14:26:56 7312 21 female R 1 2 9 self moralSelf H h 1 0.4587 
13-May-2018_14:26:58 7312 21 female R 1 2 10 self moralOther J j 1 0.5078 
13-May-2018_14:27:00 7312 21 female R 1 2 11 self immoralSelf H h 1 0.8434 
13-May-2018_14:27:02 7312 21 female R 1 2 12 self immoralSelf H h 1 0.5333 
13-May-2018_14:27:03 7312 21 female R 1 2 13 self immoralSelf H h 1 0.4092 
13-May-2018_14:27:05 7312 21 female R 1 2 14 self moralOther J j 1 0.3472 
13-May-2018_14:27:07 7312 21 female R 1 2 15 self immoralSelf H h 1 0.4982 
13-May-2018_14:27:08 7312 21 female R 1 2 16 self immoralOther J j 1 0.5849 
13-May-2018_14:27:10 7312 21 female R 1 2 17 self moralSelf H h 1 0.5163 
13-May-2018_14:27:12 7312 21 female R 1 2 18 self moralSelf H h 1 0.6463 
13-May-2018_14:27:14 7312 21 female R 1 2 19 self immoralOther J j 1 0.8515 
13-May-2018_14:27:16 7312 21 female R 1 2 20 self moralOther J j 1 0.6262 
13-May-2018_14:27:19 7312 21 female R 1 2 21 self moralOther J j 1 0.6578 
13-May-2018_14:27:20 7312 21 female R 1 2 22 self moralSelf H h 1 0.5562 
13-May-2018_14:27:22 7312 21 female R 1 2 23 self moralOther J j 1 0.8240 
13-May-2018_14:27:24 7312 21 female R 1 2 24 self immoralOther J j 1 0.9879 
13-May-2018_14:27:32 7312 21 female R 1 3 1 self moralOther J j 1 0.5247 
13-May-2018_14:27:34 7312 21 female R 1 3 2 self moralSelf H h 1 0.4113 
13-May-2018_14:27:36 7312 21 female R 1 3 3 self immoralSelf H h 1 0.9756 
13-May-2018_14:27:38 7312 21 female R 1 3 4 self immoralSelf H h 1 0.5504 
13-May-2018_14:27:40 7312 21 female R 1 3 5 self immoralSelf H h 1 0.5070 
13-May-2018_14:27:41 7312 21 female R 1 3 6 self moralSelf H h 1 0.5298 
13-May-2018_14:27:43 7312 21 female R 1 3 7 self moralOther J j 1 0.5463 
13-May-2018_14:27:45 7312 21 female R 1 3 8 self immoralOther J j 1 0.5444 
13-May-2018_14:27:47 7312 21 female R 1 3 9 self moralSelf H h 1 0.5770 
13-May-2018_14:27:49 7312 21 female R 1 3 10 self immoralOther J j 1 0.5427 
13-May-2018_14:27:51 7312 21 female R 1 3 11 self immoralOther J j 1 0.8806 
13-May-2018_14:27:53 7312 21 female R 1 3 12 self immoralOther J j 1 0.5227 
13-May-2018_14:27:55 7312 21 female R 1 3 13 self moralSelf H h 1 0.5223 
13-May-2018_14:27:57 7312 21 female R 1 3 14 self immoralOther J j 1 0.5270 
13-May-2018_14:27:59 7312 21 female R 1 3 15 self moralSelf H h 1 0.4589 
13-May-2018_14:28:01 7312 21 female R 1 3 16 self moralSelf H h 1 0.4778 
13-May-2018_14:28:02 7312 21 female R 1 3 17 self immoralOther J j 1 0.4289 
13-May-2018_14:28:04 7312 21 female R 1 3 18 self moralOther J j 1 0.6531 
13-May-2018_14:28:06 7312 21 female R 1 3 19 self moralOther J j 1 0.4921 
13-May-2018_14:28:08 7312 21 female R 1 3 20 self moralOther J j 1 0.5426 
13-May-2018_14:28:09 7312 21 female R 1 3 21 self immoralSelf H h 1 0.3582 
13-May-2018_14:28:11 7312 21 female R 1 3 22 self immoralSelf H h 1 0.4721 
13-May-2018_14:28:13 7312 21 female R 1 3 23 self immoralSelf H h 1 0.4030 
13-May-2018_14:28:15 7312 21 female R 1 3 24 self moralOther J j 1 0.5790 
13-May-2018_14:28:17 7312 21 female R 1 4 1 self moralSelf H h 1 0.5523 
13-May-2018_14:28:19 7312 21 female R 1 4 2 self immoralSelf H h 1 0.6206 
13-May-2018_14:28:21 7312 21 female R 1 4 3 self immoralOther J j 1 0.5505 
13-May-2018_14:28:23 7312 21 female R 1 4 4 self immoralSelf H h 1 0.4876 
13-May-2018_14:28:24 7312 21 female R 1 4 5 self immoralOther J j 1 0.5837 
13-May-2018_14:28:26 7312 21 female R 1 4 6 self moralSelf H h 1 0.4769 
13-May-2018_14:28:28 7312 21 female R 1 4 7 self moralSelf H h 1 0.3956 
13-May-2018_14:28:29 7312 21 female R 1 4 8 self immoralSelf H h 1 0.5080 
13-May-2018_14:28:31 7312 21 female R 1 4 9 self moralOther J j 1 0.5966 
13-May-2018_14:28:33 7312 21 female R 1 4 10 self moralSelf H h 1 0.5417 
13-May-2018_14:28:36 7312 21 female R 1 4 11 self immoralSelf H h 1 0.7206 
13-May-2018_14:28:37 7312 21 female R 1 4 12 self immoralOther J j 1 0.6882 
13-May-2018_14:28:39 7312 21 female R 1 4 13 self immoralSelf H h 1 0.5489 
13-May-2018_14:28:41 7312 21 female R 1 4 14 self immoralOther J j 1 0.6229 
13-May-2018_14:28:43 7312 21 female R 1 4 15 self moralSelf H h 1 0.4903 
13-May-2018_14:28:45 7312 21 female R 1 4 16 self immoralSelf H h 1 0.6894 
13-May-2018_14:28:46 7312 21 female R 1 4 17 self moralOther J j 1 0.5074 
13-May-2018_14:28:48 7312 21 female R 1 4 18 self moralOther J j 1 0.7606 
13-May-2018_14:28:51 7312 21 female R 1 4 19 self immoralOther J j 1 0.8713 
13-May-2018_14:28:53 7312 21 female R 1 4 20 self moralOther J j 1 0.5759 
13-May-2018_14:28:55 7312 21 female R 1 4 21 self moralSelf H h 1 0.5406 
13-May-2018_14:28:56 7312 21 female R 1 4 22 self immoralOther J j 1 0.5280 
13-May-2018_14:28:58 7312 21 female R 1 4 23 self moralOther J j 1 0.5869 
13-May-2018_14:29:00 7312 21 female R 1 4 24 self moralOther J j 1 0.5399 
13-May-2018_14:29:04 7312 21 female R 1 5 1 self moralOther J j 1 0.6068 
13-May-2018_14:29:06 7312 21 female R 1 5 2 self moralSelf H h 1 0.5368 
13-May-2018_14:29:08 7312 21 female R 1 5 3 self immoralOther J j 1 0.6790 
13-May-2018_14:29:10 7312 21 female R 1 5 4 self moralSelf H h 1 0.5248 
13-May-2018_14:29:11 7312 21 female R 1 5 5 self immoralOther J j 1 0.5356 
13-May-2018_14:29:13 7312 21 female R 1 5 6 self immoralOther J j 1 0.7479 
13-May-2018_14:29:15 7312 21 female R 1 5 7 self immoralOther J j 1 0.5277 
13-May-2018_14:29:16 7312 21 female R 1 5 8 self moralSelf H h 1 0.5715 
13-May-2018_14:29:18 7312 21 female R 1 5 9 self moralSelf H h 1 0.4808 
13-May-2018_14:29:20 7312 21 female R 1 5 10 self moralOther J j 1 0.5581 
13-May-2018_14:29:21 7312 21 female R 1 5 11 self moralOther J j 1 0.4325 
13-May-2018_14:29:23 7312 21 female R 1 5 12 self immoralSelf H h 1 0.5977 
13-May-2018_14:29:25 7312 21 female R 1 5 13 self immoralSelf H h 1 0.5234 
13-May-2018_14:29:26 7312 21 female R 1 5 14 self immoralSelf H h 1 0.4911 
13-May-2018_14:29:28 7312 21 female R 1 5 15 self immoralOther J j 1 0.5067 
13-May-2018_14:29:30 7312 21 female R 1 5 16 self moralOther J h 0 0.4955 
13-May-2018_14:29:32 7312 21 female R 1 5 17 self immoralSelf H h 1 0.9863 
13-May-2018_14:29:34 7312 21 female R 1 5 18 self moralOther J j 1 0.5963 
13-May-2018_14:29:36 7312 21 female R 1 5 19 self immoralSelf H h 1 0.6100 
13-May-2018_14:29:38 7312 21 female R 1 5 20 self moralOther J j 1 0.6326 
13-May-2018_14:29:40 7312 21 female R 1 5 21 self immoralOther J j 1 0.5274 
13-May-2018_14:29:42 7312 21 female R 1 5 22 self moralSelf H h 1 0.7595 
13-May-2018_14:29:44 7312 21 female R 1 5 23 self moralSelf H h 1 0.5262 
13-May-2018_14:29:46 7312 21 female R 1 5 24 self immoralSelf H h 1 0.6010 
Date Sub Age Sex Hand Block Bin Trial Task Shape corrResp Resp ACC RT
13-May-2018_14:32:34 7312 21 female R 2 1 1 moral immoralOther Y NA -1 1.0841 
13-May-2018_14:32:36 7312 21 female R 2 1 2 moral immoralOther Y y 1 1.0067 
13-May-2018_14:32:38 7312 21 female R 2 1 3 moral immoralSelf Y y 1 0.7075 
13-May-2018_14:32:40 7312 21 female R 2 1 4 moral moralSelf U u 1 0.6318 
13-May-2018_14:32:42 7312 21 female R 2 1 5 moral moralOther U u 1 0.7848 
13-May-2018_14:32:44 7312 21 female R 2 1 6 moral immoralSelf Y u 0 0.7943 
13-May-2018_14:32:46 7312 21 female R 2 1 7 moral moralOther U u 1 0.7427 
13-May-2018_14:32:48 7312 21 female R 2 1 8 moral moralOther U u 1 0.6195 
13-May-2018_14:32:49 7312 21 female R 2 1 9 moral immoralSelf Y y 1 0.3278 
13-May-2018_14:32:51 7312 21 female R 2 1 10 moral moralSelf U u 1 0.6746 
13-May-2018_14:32:53 7312 21 female R 2 1 11 moral moralSelf U u 1 0.5073 
13-May-2018_14:32:55 7312 21 female R 2 1 12 moral immoralOther Y y 1 0.5328 
13-May-2018_14:32:57 7312 21 female R 2 1 13 moral immoralSelf Y y 1 0.6142 
13-May-2018_14:32:59 7312 21 female R 2 1 14 moral moralSelf U u 1 0.4444 
13-May-2018_14:33:00 7312 21 female R 2 1 15 moral moralOther U u 1 0.4878 
13-May-2018_14:33:02 7312 21 female R 2 1 16 moral moralSelf U u 1 0.5014 
13-May-2018_14:33:04 7312 21 female R 2 1 17 moral immoralOther Y y 1 0.7660 
13-May-2018_14:33:06 7312 21 female R 2 1 18 moral moralOther U u 1 0.5773 
13-May-2018_14:33:08 7312 21 female R 2 1 19 moral immoralOther Y y 1 0.9261 
13-May-2018_14:33:10 7312 21 female R 2 1 20 moral immoralSelf Y y 1 0.5818 
13-May-2018_14:33:12 7312 21 female R 2 1 21 moral moralSelf U u 1 0.5536 
13-May-2018_14:33:14 7312 21 female R 2 1 22 moral immoralSelf Y y 1 0.8562 
13-May-2018_14:33:17 7312 21 female R 2 1 23 moral moralOther U u 1 0.9039 
13-May-2018_14:33:19 7312 21 female R 2 1 24 moral immoralOther Y y 1 0.5355 
13-May-2018_14:33:20 7312 21 female R 2 2 1 moral moralSelf U u 1 0.6636 
13-May-2018_14:33:22 7312 21 female R 2 2 2 moral immoralSelf Y u 0 0.7310 
13-May-2018_14:33:24 7312 21 female R 2 2 3 moral moralSelf U u 1 0.8214 
13-May-2018_14:33:26 7312 21 female R 2 2 4 moral moralSelf U u 1 0.5000 
13-May-2018_14:33:27 7312 21 female R 2 2 5 moral immoralSelf Y y 1 0.5542 
13-May-2018_14:33:29 7312 21 female R 2 2 6 moral moralSelf U u 1 0.6648 
13-May-2018_14:33:32 7312 21 female R 2 2 7 moral immoralSelf Y y 1 0.7775 
13-May-2018_14:33:33 7312 21 female R 2 2 8 moral immoralSelf Y y 1 0.4396 
13-May-2018_14:33:35 7312 21 female R 2 2 9 moral immoralOther Y y 1 0.6021 
13-May-2018_14:33:37 7312 21 female R 2 2 10 moral moralOther U u 1 0.4149 
13-May-2018_14:33:38 7312 21 female R 2 2 11 moral moralSelf U u 1 0.3702 
13-May-2018_14:33:40 7312 21 female R 2 2 12 moral moralSelf U u 1 0.4027 
13-May-2018_14:33:42 7312 21 female R 2 2 13 moral immoralOther Y y 1 0.5184 
13-May-2018_14:33:44 7312 21 female R 2 2 14 moral moralOther U u 1 0.5530 
13-May-2018_14:33:46 7312 21 female R 2 2 15 moral immoralSelf Y y 1 0.6863 
13-May-2018_14:33:48 7312 21 female R 2 2 16 moral immoralOther Y y 1 0.5837 
13-May-2018_14:33:49 7312 21 female R 2 2 17 moral immoralOther Y y 1 0.5061 
13-May-2018_14:33:51 7312 21 female R 2 2 18 moral immoralSelf Y y 1 0.5617 
13-May-2018_14:33:53 7312 21 female R 2 2 19 moral moralOther U u 1 0.4145 
13-May-2018_14:33:54 7312 21 female R 2 2 20 moral moralOther U u 1 0.4546 
13-May-2018_14:33:56 7312 21 female R 2 2 21 moral immoralOther Y y 1 0.6048 
13-May-2018_14:33:58 7312 21 female R 2 2 22 moral moralOther U u 1 0.9145 
13-May-2018_14:34:00 7312 21 female R 2 2 23 moral immoralOther Y y 1 0.5592 
13-May-2018_14:34:02 7312 21 female R 2 2 24 moral moralOther U u 1 0.5655 
13-May-2018_14:34:08 7312 21 female R 2 3 1 moral moralSelf U u 1 0.5205 
13-May-2018_14:34:10 7312 21 female R 2 3 2 moral immoralSelf Y y 1 0.3780 
13-May-2018_14:34:12 7312 21 female R 2 3 3 moral moralSelf U u 1 0.3437 
13-May-2018_14:34:14 7312 21 female R 2 3 4 moral moralOther U u 1 0.5966 
13-May-2018_14:34:16 7312 21 female R 2 3 5 moral moralOther U u 1 1.0384 
13-May-2018_14:34:18 7312 21 female R 2 3 6 moral immoralSelf Y y 1 0.6013 
13-May-2018_14:34:20 7312 21 female R 2 3 7 moral moralSelf U u 1 0.5332 
13-May-2018_14:34:21 7312 21 female R 2 3 8 moral moralSelf U u 1 0.3455 
13-May-2018_14:34:23 7312 21 female R 2 3 9 moral immoralSelf Y y 1 0.6166 
13-May-2018_14:34:24 7312 21 female R 2 3 10 moral moralOther U u 1 0.5240 
13-May-2018_14:34:26 7312 21 female R 2 3 11 moral immoralOther Y y 1 0.5763 
13-May-2018_14:34:28 7312 21 female R 2 3 12 moral moralOther U u 1 0.5081 
13-May-2018_14:34:29 7312 21 female R 2 3 13 moral moralOther U u 1 0.4183 
13-May-2018_14:34:31 7312 21 female R 2 3 14 moral immoralSelf Y y 1 0.5563 
13-May-2018_14:34:33 7312 21 female R 2 3 15 moral moralSelf U u 1 0.4242 
13-May-2018_14:34:35 7312 21 female R 2 3 16 moral immoralOther Y y 1 0.5418 
13-May-2018_14:34:36 7312 21 female R 2 3 17 moral immoralSelf Y y 1 0.5791 
13-May-2018_14:34:38 7312 21 female R 2 3 18 moral immoralSelf Y y 1 0.4831 
13-May-2018_14:34:40 7312 21 female R 2 3 19 moral moralOther U y 0 0.3147 
13-May-2018_14:34:41 7312 21 female R 2 3 20 moral immoralOther Y y 1 0.4974 
13-May-2018_14:34:43 7312 21 female R 2 3 21 moral immoralOther Y y 1 0.5220 
13-May-2018_14:34:45 7312 21 female R 2 3 22 moral moralSelf U u 1 0.5050 
13-May-2018_14:34:46 7312 21 female R 2 3 23 moral immoralOther Y y 1 0.4171 
13-May-2018_14:34:48 7312 21 female R 2 3 24 moral immoralOther Y y 1 0.4623 
13-May-2018_14:34:50 7312 21 female R 2 4 1 moral moralSelf U u 1 0.4807 
13-May-2018_14:34:51 7312 21 female R 2 4 2 moral moralOther U u 1 0.5236 
13-May-2018_14:34:53 7312 21 female R 2 4 3 moral immoralSelf Y y 1 0.4936 
13-May-2018_14:34:54 7312 21 female R 2 4 4 moral moralOther U u 1 0.3850 
13-May-2018_14:34:56 7312 21 female R 2 4 5 moral moralOther U u 1 0.3935 
13-May-2018_14:34:58 7312 21 female R 2 4 6 moral moralSelf U u 1 0.3729 
13-May-2018_14:35:00 7312 21 female R 2 4 7 moral moralOther U u 1 0.5621 
13-May-2018_14:35:02 7312 21 female R 2 4 8 moral immoralOther Y y 1 0.4592 
13-May-2018_14:35:03 7312 21 female R 2 4 9 moral moralSelf U u 1 0.3288 
13-May-2018_14:35:05 7312 21 female R 2 4 10 moral immoralSelf Y y 1 0.5844 
13-May-2018_14:35:07 7312 21 female R 2 4 11 moral immoralOther Y y 1 0.5002 
13-May-2018_14:35:09 7312 21 female R 2 4 12 moral moralOther U u 1 0.5417 
13-May-2018_14:35:11 7312 21 female R 2 4 13 moral immoralSelf Y y 1 0.4613 
13-May-2018_14:35:12 7312 21 female R 2 4 14 moral moralSelf U u 1 0.4784 
13-May-2018_14:35:14 7312 21 female R 2 4 15 moral immoralSelf Y y 1 0.5452 
13-May-2018_14:35:16 7312 21 female R 2 4 16 moral immoralOther Y y 1 0.7575 
13-May-2018_14:35:18 7312 21 female R 2 4 17 moral moralSelf U u 1 0.5878 
13-May-2018_14:35:20 7312 21 female R 2 4 18 moral immoralSelf Y y 1 0.5530 
13-May-2018_14:35:22 7312 21 female R 2 4 19 moral moralOther U u 1 0.5700 
13-May-2018_14:35:23 7312 21 female R 2 4 20 moral immoralOther Y y 1 0.4087 
13-May-2018_14:35:25 7312 21 female R 2 4 21 moral immoralSelf Y y 1 0.5123 
13-May-2018_14:35:27 7312 21 female R 2 4 22 moral moralSelf U u 1 0.5057 
13-May-2018_14:35:29 7312 21 female R 2 4 23 moral immoralOther Y y 1 0.4366 
13-May-2018_14:35:30 7312 21 female R 2 4 24 moral immoralOther Y y 1 0.4748 
13-May-2018_14:35:34 7312 21 female R 2 5 1 moral immoralOther Y y 1 0.7154 
13-May-2018_14:35:36 7312 21 female R 2 5 2 moral immoralSelf Y y 1 0.5066 
13-May-2018_14:35:38 7312 21 female R 2 5 3 moral immoralSelf Y y 1 0.5094 
13-May-2018_14:35:39 7312 21 female R 2 5 4 moral moralSelf U u 1 0.3119 
13-May-2018_14:35:41 7312 21 female R 2 5 5 moral immoralOther Y y 1 0.3867 
13-May-2018_14:35:43 7312 21 female R 2 5 6 moral moralSelf U u 1 0.4546 
13-May-2018_14:35:44 7312 21 female R 2 5 7 moral immoralOther Y y 1 0.4119 
13-May-2018_14:35:46 7312 21 female R 2 5 8 moral moralSelf U u 1 0.3441 
13-May-2018_14:35:48 7312 21 female R 2 5 9 moral moralSelf U u 1 0.4567 
13-May-2018_14:35:50 7312 21 female R 2 5 10 moral immoralSelf Y y 1 0.3773 
13-May-2018_14:35:51 7312 21 female R 2 5 11 moral immoralOther Y y 1 0.4738 
13-May-2018_14:35:53 7312 21 female R 2 5 12 moral moralOther U u 1 0.5388 
13-May-2018_14:35:55 7312 21 female R 2 5 13 moral immoralOther Y y 1 0.4485 
13-May-2018_14:35:57 7312 21 female R 2 5 14 moral moralOther U u 1 0.3677 
13-May-2018_14:35:58 7312 21 female R 2 5 15 moral moralOther U u 1 0.4999 
13-May-2018_14:36:00 7312 21 female R 2 5 16 moral immoralSelf Y y 1 0.4520 
13-May-2018_14:36:02 7312 21 female R 2 5 17 moral moralOther U u 1 0.4695 
13-May-2018_14:36:03 7312 21 female R 2 5 18 moral immoralSelf Y y 1 0.4183 
13-May-2018_14:36:05 7312 21 female R 2 5 19 moral moralOther U u 1 0.5214 
13-May-2018_14:36:07 7312 21 female R 2 5 20 moral moralSelf U u 1 0.6955 
13-May-2018_14:36:09 7312 21 female R 2 5 21 moral immoralOther Y y 1 0.5036 
13-May-2018_14:36:11 7312 21 female R 2 5 22 moral moralSelf U u 1 0.5560 
13-May-2018_14:36:13 7312 21 female R 2 5 23 moral moralOther U u 1 0.5951 
13-May-2018_14:36:15 7312 21 female R 2 5 24 moral immoralSelf Y y 1 0.6370 
Date Sub Age Sex Hand Block Bin Trial Task Shape corrResp Resp ACC RT
13-May-2018_14:38:38 7312 21 female R 3 1 1 self immoralOther J j 1 0.9584 
13-May-2018_14:38:39 7312 21 female R 3 1 2 self moralSelf H h 1 0.4386 
13-May-2018_14:38:42 7312 21 female R 3 1 3 self immoralSelf H h 1 0.9440 
13-May-2018_14:38:44 7312 21 female R 3 1 4 self moralSelf H h 1 0.4862 
13-May-2018_14:38:46 7312 21 female R 3 1 5 self immoralSelf H h 1 1.0741 
13-May-2018_14:38:47 7312 21 female R 3 1 6 self moralSelf H h 1 0.4507 
13-May-2018_14:38:49 7312 21 female R 3 1 7 self immoralOther J j 1 0.6173 
13-May-2018_14:38:52 7312 21 female R 3 1 8 self moralOther J h 0 0.9166 
13-May-2018_14:38:54 7312 21 female R 3 1 9 self immoralOther J j 1 0.7605 
13-May-2018_14:38:56 7312 21 female R 3 1 10 self moralOther J j 1 0.6260 
13-May-2018_14:38:58 7312 21 female R 3 1 11 self immoralOther J j 1 0.7038 
13-May-2018_14:39:00 7312 21 female R 3 1 12 self moralOther J j 1 0.5400 
13-May-2018_14:39:01 7312 21 female R 3 1 13 self moralSelf H h 1 0.6587 
13-May-2018_14:39:03 7312 21 female R 3 1 14 self immoralOther J j 1 0.5957 
13-May-2018_14:39:05 7312 21 female R 3 1 15 self immoralSelf H h 1 0.8960 
13-May-2018_14:39:07 7312 21 female R 3 1 16 self moralOther J j 1 0.5638 
13-May-2018_14:39:09 7312 21 female R 3 1 17 self immoralOther J j 1 0.6717 
13-May-2018_14:39:11 7312 21 female R 3 1 18 self moralOther J j 1 0.5598 
13-May-2018_14:39:13 7312 21 female R 3 1 19 self moralSelf H h 1 0.6586 
13-May-2018_14:39:15 7312 21 female R 3 1 20 self immoralSelf H h 1 0.7642 
13-May-2018_14:39:17 7312 21 female R 3 1 21 self moralSelf H h 1 0.5125 
13-May-2018_14:39:19 7312 21 female R 3 1 22 self immoralSelf H h 1 0.5526 
13-May-2018_14:39:21 7312 21 female R 3 1 23 self moralOther J j 1 0.4448 
13-May-2018_14:39:23 7312 21 female R 3 1 24 self immoralSelf H h 1 0.6976 
13-May-2018_14:39:24 7312 21 female R 3 2 1 self moralOther J j 1 0.5194 
13-May-2018_14:39:26 7312 21 female R 3 2 2 self moralSelf H h 1 0.4676 
13-May-2018_14:39:28 7312 21 female R 3 2 3 self immoralOther J j 1 0.6832 
13-May-2018_14:39:29 7312 21 female R 3 2 4 self moralSelf H h 1 0.5582 
13-May-2018_14:39:31 7312 21 female R 3 2 5 self immoralOther J j 1 0.4528 
13-May-2018_14:39:33 7312 21 female R 3 2 6 self immoralOther J j 1 0.4938 
13-May-2018_14:39:35 7312 21 female R 3 2 7 self moralOther J j 1 0.4223 
13-May-2018_14:39:36 7312 21 female R 3 2 8 self moralSelf H h 1 0.3066 
13-May-2018_14:39:38 7312 21 female R 3 2 9 self immoralSelf H h 1 0.5882 
13-May-2018_14:39:40 7312 21 female R 3 2 10 self moralSelf H h 1 0.4085 
13-May-2018_14:39:42 7312 21 female R 3 2 11 self moralSelf H h 1 0.4212 
13-May-2018_14:39:44 7312 21 female R 3 2 12 self immoralSelf H h 1 0.4812 
13-May-2018_14:39:45 7312 21 female R 3 2 13 self moralOther J h 0 0.4581 
13-May-2018_14:39:47 7312 21 female R 3 2 14 self immoralSelf H h 1 0.6007 
13-May-2018_14:39:49 7312 21 female R 3 2 15 self immoralSelf H h 1 0.4323 
13-May-2018_14:39:51 7312 21 female R 3 2 16 self immoralOther J j 1 0.3095 
13-May-2018_14:39:52 7312 21 female R 3 2 17 self moralOther J j 1 0.5243 
13-May-2018_14:39:54 7312 21 female R 3 2 18 self moralOther J j 1 0.5045 
13-May-2018_14:39:56 7312 21 female R 3 2 19 self immoralSelf H h 1 0.5935 
13-May-2018_14:39:58 7312 21 female R 3 2 20 self moralOther J j 1 0.5325 
13-May-2018_14:39:59 7312 21 female R 3 2 21 self moralSelf H h 1 0.4417 
13-May-2018_14:40:01 7312 21 female R 3 2 22 self immoralSelf H h 1 0.4794 
13-May-2018_14:40:03 7312 21 female R 3 2 23 self immoralOther J j 1 0.5331 
13-May-2018_14:40:05 7312 21 female R 3 2 24 self immoralOther J j 1 0.5295 
13-May-2018_14:40:11 7312 21 female R 3 3 1 self moralSelf H h 1 0.4562 
13-May-2018_14:40:13 7312 21 female R 3 3 2 self moralOther J j 1 0.6347 
13-May-2018_14:40:14 7312 21 female R 3 3 3 self immoralSelf H h 1 0.5233 
13-May-2018_14:40:16 7312 21 female R 3 3 4 self immoralSelf H h 1 0.4833 
13-May-2018_14:40:18 7312 21 female R 3 3 5 self immoralSelf H h 1 0.4847 
13-May-2018_14:40:20 7312 21 female R 3 3 6 self immoralSelf H h 1 0.3931 
13-May-2018_14:40:21 7312 21 female R 3 3 7 self immoralSelf H h 1 0.4492 
13-May-2018_14:40:23 7312 21 female R 3 3 8 self immoralOther J j 1 0.5420 
13-May-2018_14:40:25 7312 21 female R 3 3 9 self immoralOther J j 1 0.5303 
13-May-2018_14:40:26 7312 21 female R 3 3 10 self moralSelf H h 1 0.3934 
13-May-2018_14:40:28 7312 21 female R 3 3 11 self moralSelf H h 1 0.5497 
13-May-2018_14:40:30 7312 21 female R 3 3 12 self moralSelf H h 1 0.4213 
13-May-2018_14:40:32 7312 21 female R 3 3 13 self moralOther J j 1 0.5814 
13-May-2018_14:40:34 7312 21 female R 3 3 14 self immoralOther J j 1 0.6130 
13-May-2018_14:40:36 7312 21 female R 3 3 15 self moralSelf H h 1 0.6333 
13-May-2018_14:40:38 7312 21 female R 3 3 16 self moralOther J j 1 0.5938 
13-May-2018_14:40:40 7312 21 female R 3 3 17 self moralOther J j 1 0.5468 
13-May-2018_14:40:41 7312 21 female R 3 3 18 self moralOther J j 1 0.5483 
13-May-2018_14:40:43 7312 21 female R 3 3 19 self immoralOther J j 1 0.5888 
13-May-2018_14:40:45 7312 21 female R 3 3 20 self immoralOther J j 1 0.5352 
13-May-2018_14:40:46 7312 21 female R 3 3 21 self immoralOther J j 1 0.4817 
13-May-2018_14:40:48 7312 21 female R 3 3 22 self moralOther J j 1 0.7744 
13-May-2018_14:40:50 7312 21 female R 3 3 23 self moralSelf H h 1 0.5077 
13-May-2018_14:40:52 7312 21 female R 3 3 24 self immoralSelf H h 1 0.4706 
13-May-2018_14:40:54 7312 21 female R 3 4 1 self moralOther J j 1 0.5262 
13-May-2018_14:40:55 7312 21 female R 3 4 2 self moralOther J j 1 0.5611 
13-May-2018_14:40:57 7312 21 female R 3 4 3 self immoralOther J j 1 0.5838 
13-May-2018_14:40:59 7312 21 female R 3 4 4 self immoralOther J j 1 0.4778 
13-May-2018_14:41:01 7312 21 female R 3 4 5 self immoralOther J j 1 0.4187 
13-May-2018_14:41:02 7312 21 female R 3 4 6 self moralSelf H h 1 0.5331 
13-May-2018_14:41:05 7312 21 female R 3 4 7 self immoralSelf H h 1 0.8922 
13-May-2018_14:41:06 7312 21 female R 3 4 8 self moralSelf H h 1 0.5173 
13-May-2018_14:41:08 7312 21 female R 3 4 9 self immoralSelf H h 1 0.4920 
13-May-2018_14:41:10 7312 21 female R 3 4 10 self immoralOther J j 1 0.5668 
13-May-2018_14:41:12 7312 21 female R 3 4 11 self immoralSelf H h 1 0.5805 
13-May-2018_14:41:14 7312 21 female R 3 4 12 self moralSelf H h 1 0.4263 
13-May-2018_14:41:16 7312 21 female R 3 4 13 self moralOther J j 1 0.5732 
13-May-2018_14:41:18 7312 21 female R 3 4 14 self moralOther J j 1 0.5333 
13-May-2018_14:41:19 7312 21 female R 3 4 15 self moralOther J j 1 0.3950 
13-May-2018_14:41:21 7312 21 female R 3 4 16 self immoralSelf H h 1 0.4816 
13-May-2018_14:41:22 7312 21 female R 3 4 17 self moralSelf H h 1 0.4564 
13-May-2018_14:41:24 7312 21 female R 3 4 18 self immoralSelf H h 1 0.5618 
13-May-2018_14:41:26 7312 21 female R 3 4 19 self moralSelf H h 1 0.5276 
13-May-2018_14:41:28 7312 21 female R 3 4 20 self moralOther J j 1 0.7464 
13-May-2018_14:41:30 7312 21 female R 3 4 21 self immoralOther J j 1 0.4707 
13-May-2018_14:41:32 7312 21 female R 3 4 22 self immoralOther J j 1 0.4966 
13-May-2018_14:41:34 7312 21 female R 3 4 23 self immoralSelf H h 1 0.5753 
13-May-2018_14:41:35 7312 21 female R 3 4 24 self moralSelf H h 1 0.4267 
13-May-2018_14:41:39 7312 21 female R 3 5 1 self moralOther J j 1 0.5181 
13-May-2018_14:41:41 7312 21 female R 3 5 2 self immoralOther J j 1 0.4613 
13-May-2018_14:41:43 7312 21 female R 3 5 3 self moralSelf H h 1 0.5192 
13-May-2018_14:41:44 7312 21 female R 3 5 4 self immoralSelf H h 1 0.5597 
13-May-2018_14:41:46 7312 21 female R 3 5 5 self immoralSelf H h 1 0.4421 
13-May-2018_14:41:48 7312 21 female R 3 5 6 self moralOther J j 1 0.5001 
13-May-2018_14:41:50 7312 21 female R 3 5 7 self moralOther J j 1 0.7415 
13-May-2018_14:41:52 7312 21 female R 3 5 8 self immoralOther J j 1 0.5648 
13-May-2018_14:41:54 7312 21 female R 3 5 9 self immoralOther J j 1 0.5182 
13-May-2018_14:41:56 7312 21 female R 3 5 10 self moralSelf H h 1 0.7306 
13-May-2018_14:41:58 7312 21 female R 3 5 11 self moralOther J j 1 1.0797 
13-May-2018_14:42:00 7312 21 female R 3 5 12 self moralSelf H h 1 0.5288 
13-May-2018_14:42:02 7312 21 female R 3 5 13 self immoralOther J j 1 0.5035 
13-May-2018_14:42:04 7312 21 female R 3 5 14 self moralSelf H h 1 0.4918 
13-May-2018_14:42:06 7312 21 female R 3 5 15 self moralSelf H h 1 0.4636 
13-May-2018_14:42:08 7312 21 female R 3 5 16 self immoralSelf H h 1 0.5875 
13-May-2018_14:42:09 7312 21 female R 3 5 17 self immoralSelf H h 1 0.3682 
13-May-2018_14:42:11 7312 21 female R 3 5 18 self immoralSelf H h 1 0.4158 
13-May-2018_14:42:13 7312 21 female R 3 5 19 self moralSelf H h 1 0.5228 
13-May-2018_14:42:15 7312 21 female R 3 5 20 self immoralOther J j 1 0.5792 
13-May-2018_14:42:17 7312 21 female R 3 5 21 self moralOther J j 1 0.7008 
13-May-2018_14:42:19 7312 21 female R 3 5 22 self moralOther J j 1 0.5084 
13-May-2018_14:42:21 7312 21 female R 3 5 23 self immoralSelf H h 1 0.4901 
13-May-2018_14:42:22 7312 21 female R 3 5 24 self immoralOther J j 1 0.5890 
Date Sub Age Sex Hand Block Bin Trial Task Shape corrResp Resp ACC RT
13-May-2018_14:44:43 7312 21 female R 4 1 1 moral moralOther U u 1 0.7441 
13-May-2018_14:44:45 7312 21 female R 4 1 2 moral immoralSelf Y y 1 0.5687 
13-May-2018_14:44:47 7312 21 female R 4 1 3 moral immoralOther Y y 1 0.5382 
13-May-2018_14:44:49 7312 21 female R 4 1 4 moral moralSelf U u 1 0.5741 
13-May-2018_14:44:50 7312 21 female R 4 1 5 moral immoralSelf Y y 1 0.4942 
13-May-2018_14:44:52 7312 21 female R 4 1 6 moral moralSelf U u 1 0.5516 
13-May-2018_14:44:54 7312 21 female R 4 1 7 moral moralSelf U u 1 0.5682 
13-May-2018_14:44:56 7312 21 female R 4 1 8 moral immoralSelf Y y 1 0.7527 
13-May-2018_14:44:58 7312 21 female R 4 1 9 moral immoralOther Y y 1 0.5946 
13-May-2018_14:45:00 7312 21 female R 4 1 10 moral moralSelf U u 1 0.5797 
13-May-2018_14:45:02 7312 21 female R 4 1 11 moral immoralOther Y y 1 0.7609 
13-May-2018_14:45:04 7312 21 female R 4 1 12 moral immoralSelf Y y 1 0.5911 
13-May-2018_14:45:06 7312 21 female R 4 1 13 moral moralOther U u 1 0.5691 
13-May-2018_14:45:08 7312 21 female R 4 1 14 moral immoralOther Y y 1 0.5212 
13-May-2018_14:45:10 7312 21 female R 4 1 15 moral moralOther U u 1 0.6272 
13-May-2018_14:45:11 7312 21 female R 4 1 16 moral moralOther U u 1 0.4857 
13-May-2018_14:45:13 7312 21 female R 4 1 17 moral moralOther U u 1 0.6673 
13-May-2018_14:45:15 7312 21 female R 4 1 18 moral immoralOther Y y 1 0.4800 
13-May-2018_14:45:17 7312 21 female R 4 1 19 moral immoralSelf Y y 1 0.5032 
13-May-2018_14:45:18 7312 21 female R 4 1 20 moral moralSelf U u 1 0.5268 
13-May-2018_14:45:20 7312 21 female R 4 1 21 moral immoralOther Y y 1 0.5071 
13-May-2018_14:45:22 7312 21 female R 4 1 22 moral immoralSelf Y y 1 0.5768 
13-May-2018_14:45:24 7312 21 female R 4 1 23 moral moralSelf U u 1 0.6056 
13-May-2018_14:45:26 7312 21 female R 4 1 24 moral moralOther U u 1 0.6189 
13-May-2018_14:45:27 7312 21 female R 4 2 1 moral moralOther U u 1 0.4895 
13-May-2018_14:45:29 7312 21 female R 4 2 2 moral moralOther U u 1 0.4458 
13-May-2018_14:45:31 7312 21 female R 4 2 3 moral immoralSelf Y y 1 0.5377 
13-May-2018_14:45:33 7312 21 female R 4 2 4 moral moralSelf U u 1 0.6177 
13-May-2018_14:45:35 7312 21 female R 4 2 5 moral moralOther U u 1 0.5750 
13-May-2018_14:45:37 7312 21 female R 4 2 6 moral immoralSelf Y y 1 0.5538 
13-May-2018_14:45:38 7312 21 female R 4 2 7 moral immoralOther Y u 0 0.6005 
13-May-2018_14:45:40 7312 21 female R 4 2 8 moral moralOther U u 1 0.6514 
13-May-2018_14:45:42 7312 21 female R 4 2 9 moral moralOther U u 1 0.4378 
13-May-2018_14:45:44 7312 21 female R 4 2 10 moral immoralSelf Y y 1 0.7141 
13-May-2018_14:45:46 7312 21 female R 4 2 11 moral immoralOther Y y 1 0.4511 
13-May-2018_14:45:47 7312 21 female R 4 2 12 moral immoralOther Y y 1 0.7416 
13-May-2018_14:45:49 7312 21 female R 4 2 13 moral moralSelf U u 1 0.5422 
13-May-2018_14:45:51 7312 21 female R 4 2 14 moral moralSelf U u 1 0.8815 
13-May-2018_14:45:54 7312 21 female R 4 2 15 moral immoralSelf Y y 1 0.9852 
13-May-2018_14:45:55 7312 21 female R 4 2 16 moral immoralOther Y y 1 0.5748 
13-May-2018_14:45:57 7312 21 female R 4 2 17 moral moralSelf U u 1 0.6399 
13-May-2018_14:45:59 7312 21 female R 4 2 18 moral moralSelf U u 1 0.5015 
13-May-2018_14:46:01 7312 21 female R 4 2 19 moral moralSelf U u 1 0.5463 
13-May-2018_14:46:03 7312 21 female R 4 2 20 moral moralOther U u 1 0.8006 
13-May-2018_14:46:05 7312 21 female R 4 2 21 moral immoralSelf Y y 1 0.5403 
13-May-2018_14:46:07 7312 21 female R 4 2 22 moral immoralSelf Y y 1 0.4092 
13-May-2018_14:46:08 7312 21 female R 4 2 23 moral immoralOther Y y 1 0.4459 
13-May-2018_14:46:10 7312 21 female R 4 2 24 moral immoralOther Y y 1 0.4818 
13-May-2018_14:46:15 7312 21 female R 4 3 1 moral moralSelf U u 1 0.7172 
13-May-2018_14:46:17 7312 21 female R 4 3 2 moral moralSelf U u 1 0.7691 
13-May-2018_14:46:18 7312 21 female R 4 3 3 moral moralSelf U u 1 0.3536 
13-May-2018_14:46:20 7312 21 female R 4 3 4 moral moralOther U y 0 0.3998 
13-May-2018_14:46:22 7312 21 female R 4 3 5 moral immoralSelf Y y 1 0.5068 
13-May-2018_14:46:24 7312 21 female R 4 3 6 moral immoralOther Y y 1 0.5143 
13-May-2018_14:46:26 7312 21 female R 4 3 7 moral immoralOther Y y 1 0.4259 
13-May-2018_14:46:27 7312 21 female R 4 3 8 moral moralOther U u 1 0.5526 
13-May-2018_14:46:29 7312 21 female R 4 3 9 moral moralSelf U u 1 0.6420 
13-May-2018_14:46:31 7312 21 female R 4 3 10 moral immoralSelf Y y 1 0.5443 
13-May-2018_14:46:33 7312 21 female R 4 3 11 moral moralSelf U u 1 0.7904 
13-May-2018_14:46:34 7312 21 female R 4 3 12 moral immoralOther Y y 1 0.5105 
13-May-2018_14:46:36 7312 21 female R 4 3 13 moral moralSelf U u 1 0.4452 
13-May-2018_14:46:38 7312 21 female R 4 3 14 moral moralOther U u 1 0.5134 
13-May-2018_14:46:39 7312 21 female R 4 3 15 moral moralOther U u 1 0.4910 
13-May-2018_14:46:41 7312 21 female R 4 3 16 moral moralOther U u 1 0.4218 
13-May-2018_14:46:43 7312 21 female R 4 3 17 moral immoralSelf Y y 1 0.4347 
13-May-2018_14:46:44 7312 21 female R 4 3 18 moral immoralOther Y y 1 0.4747 
13-May-2018_14:46:46 7312 21 female R 4 3 19 moral immoralSelf Y y 1 0.5594 
13-May-2018_14:46:48 7312 21 female R 4 3 20 moral immoralOther Y y 1 0.4560 
13-May-2018_14:46:49 7312 21 female R 4 3 21 moral immoralSelf Y y 1 0.4593 
13-May-2018_14:46:51 7312 21 female R 4 3 22 moral immoralSelf Y y 1 0.6556 
13-May-2018_14:46:53 7312 21 female R 4 3 23 moral moralOther U u 1 0.5588 
13-May-2018_14:46:54 7312 21 female R 4 3 24 moral immoralOther Y y 1 0.5621 
13-May-2018_14:46:56 7312 21 female R 4 4 1 moral immoralSelf Y y 1 0.6685 
13-May-2018_14:46:58 7312 21 female R 4 4 2 moral moralSelf U u 1 0.8032 
13-May-2018_14:47:00 7312 21 female R 4 4 3 moral immoralSelf Y y 1 0.4687 
13-May-2018_14:47:02 7312 21 female R 4 4 4 moral immoralSelf Y y 1 0.4542 
13-May-2018_14:47:04 7312 21 female R 4 4 5 moral moralOther U u 1 0.5630 
13-May-2018_14:47:06 7312 21 female R 4 4 6 moral immoralOther Y y 1 0.6077 
13-May-2018_14:47:08 7312 21 female R 4 4 7 moral immoralSelf Y y 1 0.5640 
13-May-2018_14:47:09 7312 21 female R 4 4 8 moral moralOther U u 1 0.7519 
13-May-2018_14:47:11 7312 21 female R 4 4 9 moral immoralOther Y y 1 0.6131 
13-May-2018_14:47:13 7312 21 female R 4 4 10 moral immoralOther Y y 1 0.6349 
13-May-2018_14:47:15 7312 21 female R 4 4 11 moral moralSelf U u 1 0.6961 
13-May-2018_14:47:17 7312 21 female R 4 4 12 moral moralSelf U u 1 0.6487 
13-May-2018_14:47:19 7312 21 female R 4 4 13 moral moralOther U u 1 0.6101 
13-May-2018_14:47:21 7312 21 female R 4 4 14 moral immoralOther Y y 1 0.6036 
13-May-2018_14:47:23 7312 21 female R 4 4 15 moral immoralSelf Y y 1 0.5091 
13-May-2018_14:47:25 7312 21 female R 4 4 16 moral moralSelf U u 1 0.7129 
13-May-2018_14:47:27 7312 21 female R 4 4 17 moral immoralOther Y y 1 0.5695 
13-May-2018_14:47:28 7312 21 female R 4 4 18 moral moralOther U u 1 0.4806 
13-May-2018_14:47:30 7312 21 female R 4 4 19 moral moralSelf U u 1 0.7072 
13-May-2018_14:47:32 7312 21 female R 4 4 20 moral immoralSelf Y u 0 0.6172 
13-May-2018_14:47:34 7312 21 female R 4 4 21 moral moralSelf U u 1 0.6187 
13-May-2018_14:47:36 7312 21 female R 4 4 22 moral moralOther U u 1 0.5986 
13-May-2018_14:47:38 7312 21 female R 4 4 23 moral moralOther U u 1 0.5662 
13-May-2018_14:47:40 7312 21 female R 4 4 24 moral immoralOther Y y 1 0.7903 
13-May-2018_14:47:43 7312 21 female R 4 5 1 moral immoralOther Y y 1 0.5608 
13-May-2018_14:47:45 7312 21 female R 4 5 2 moral immoralSelf Y y 1 0.5123 
13-May-2018_14:47:47 7312 21 female R 4 5 3 moral moralOther U u 1 0.4583 
13-May-2018_14:47:48 7312 21 female R 4 5 4 moral immoralSelf Y y 1 0.4109 
13-May-2018_14:47:50 7312 21 female R 4 5 5 moral moralSelf U u 1 0.6496 
13-May-2018_14:47:52 7312 21 female R 4 5 6 moral moralSelf U y 0 0.3456 
13-May-2018_14:47:54 7312 21 female R 4 5 7 moral moralOther U u 1 0.5983 
13-May-2018_14:47:56 7312 21 female R 4 5 8 moral immoralSelf Y y 1 0.4351 
13-May-2018_14:47:58 7312 21 female R 4 5 9 moral moralOther U u 1 0.6177 
13-May-2018_14:48:00 7312 21 female R 4 5 10 moral immoralOther Y y 1 0.6593 
13-May-2018_14:48:01 7312 21 female R 4 5 11 moral immoralOther Y y 1 0.6330 
13-May-2018_14:48:04 7312 21 female R 4 5 12 moral moralOther U u 1 0.7775 
13-May-2018_14:48:05 7312 21 female R 4 5 13 moral moralSelf U u 1 0.6383 
13-May-2018_14:48:07 7312 21 female R 4 5 14 moral immoralSelf Y y 1 0.5819 
13-May-2018_14:48:09 7312 21 female R 4 5 15 moral moralSelf U u 1 0.5632 
13-May-2018_14:48:11 7312 21 female R 4 5 16 moral moralOther U u 1 0.6076 
13-May-2018_14:48:13 7312 21 female R 4 5 17 moral moralOther U u 1 0.4584 
13-May-2018_14:48:14 7312 21 female R 4 5 18 moral immoralOther Y y 1 0.5361 
13-May-2018_14:48:16 7312 21 female R 4 5 19 moral moralSelf U u 1 0.5862 
13-May-2018_14:48:18 7312 21 female R 4 5 20 moral immoralSelf Y y 1 0.5941 
13-May-2018_14:48:20 7312 21 female R 4 5 21 moral immoralOther Y u 0 0.7000 
13-May-2018_14:48:22 7312 21 female R 4 5 22 moral moralSelf U u 1 0.7910 
13-May-2018_14:48:24 7312 21 female R 4 5 23 moral immoralSelf Y y 1 0.5289 
13-May-2018_14:48:26 7312 21 female R 4 5 24 moral immoralOther Y y 1 0.5436 
Date Sub Age Sex Hand Block Bin Trial Task Shape corrResp Resp ACC RT
13-May-2018_14:50:37 7312 21 female R 5 1 1 moral moralOther U u 1 0.5733 
13-May-2018_14:50:39 7312 21 female R 5 1 2 moral moralOther U u 1 0.4797 
13-May-2018_14:50:41 7312 21 female R 5 1 3 moral moralSelf U u 1 0.4747 
13-May-2018_14:50:42 7312 21 female R 5 1 4 moral moralSelf U u 1 0.5180 
13-May-2018_14:50:44 7312 21 female R 5 1 5 moral moralSelf U u 1 0.3401 
13-May-2018_14:50:46 7312 21 female R 5 1 6 moral immoralOther Y y 1 0.4729 
13-May-2018_14:50:47 7312 21 female R 5 1 7 moral immoralSelf Y y 1 0.4058 
13-May-2018_14:50:49 7312 21 female R 5 1 8 moral immoralSelf Y y 1 0.5926 
13-May-2018_14:50:51 7312 21 female R 5 1 9 moral immoralSelf Y y 1 0.3856 
13-May-2018_14:50:53 7312 21 female R 5 1 10 moral immoralOther Y y 1 0.5781 
13-May-2018_14:50:54 7312 21 female R 5 1 11 moral immoralOther Y y 1 0.3863 
13-May-2018_14:50:56 7312 21 female R 5 1 12 moral moralSelf U u 1 0.5153 
13-May-2018_14:50:58 7312 21 female R 5 1 13 moral immoralOther Y y 1 0.5426 
13-May-2018_14:51:00 7312 21 female R 5 1 14 moral moralSelf U u 1 0.5539 
13-May-2018_14:51:02 7312 21 female R 5 1 15 moral moralOther U u 1 0.5183 
13-May-2018_14:51:04 7312 21 female R 5 1 16 moral immoralSelf Y y 1 0.5819 
13-May-2018_14:51:05 7312 21 female R 5 1 17 moral moralOther U u 1 0.5589 
13-May-2018_14:51:07 7312 21 female R 5 1 18 moral immoralOther Y y 1 0.4954 
13-May-2018_14:51:09 7312 21 female R 5 1 19 moral moralOther U u 1 0.6874 
13-May-2018_14:51:11 7312 21 female R 5 1 20 moral immoralOther Y y 1 0.6245 
13-May-2018_14:51:13 7312 21 female R 5 1 21 moral moralSelf U u 1 0.5535 
13-May-2018_14:51:15 7312 21 female R 5 1 22 moral immoralSelf Y y 1 0.5254 
13-May-2018_14:51:17 7312 21 female R 5 1 23 moral immoralSelf Y y 1 0.5315 
13-May-2018_14:51:18 7312 21 female R 5 1 24 moral moralOther U u 1 0.6201 
13-May-2018_14:51:20 7312 21 female R 5 2 1 moral immoralOther Y y 1 0.5962 
13-May-2018_14:51:22 7312 21 female R 5 2 2 moral immoralOther Y y 1 0.6950 
13-May-2018_14:51:24 7312 21 female R 5 2 3 moral moralOther U u 1 0.5949 
13-May-2018_14:51:26 7312 21 female R 5 2 4 moral immoralOther Y y 1 0.6685 
13-May-2018_14:51:28 7312 21 female R 5 2 5 moral moralOther U u 1 0.5532 
13-May-2018_14:51:30 7312 21 female R 5 2 6 moral moralSelf U u 1 0.7434 
13-May-2018_14:51:32 7312 21 female R 5 2 7 moral immoralSelf Y y 1 0.6122 
13-May-2018_14:51:34 7312 21 female R 5 2 8 moral immoralSelf Y y 1 0.6085 
13-May-2018_14:51:36 7312 21 female R 5 2 9 moral immoralSelf Y y 1 0.5191 
13-May-2018_14:51:38 7312 21 female R 5 2 10 moral moralSelf U u 1 0.5913 
13-May-2018_14:51:40 7312 21 female R 5 2 11 moral moralSelf U u 1 0.8681 
13-May-2018_14:51:42 7312 21 female R 5 2 12 moral immoralOther Y y 1 0.5726 
13-May-2018_14:51:44 7312 21 female R 5 2 13 moral moralOther U u 1 0.5021 
13-May-2018_14:51:46 7312 21 female R 5 2 14 moral immoralSelf Y y 1 0.5600 
13-May-2018_14:51:48 7312 21 female R 5 2 15 moral moralOther U u 1 0.5841 
13-May-2018_14:51:50 7312 21 female R 5 2 16 moral moralSelf U u 1 0.7108 
13-May-2018_14:51:51 7312 21 female R 5 2 17 moral immoralSelf Y y 1 0.5414 
13-May-2018_14:51:53 7312 21 female R 5 2 18 moral immoralSelf Y y 1 0.8244 
13-May-2018_14:51:55 7312 21 female R 5 2 19 moral moralSelf U u 1 0.5632 
13-May-2018_14:51:57 7312 21 female R 5 2 20 moral immoralOther Y y 1 0.6706 
13-May-2018_14:51:59 7312 21 female R 5 2 21 moral moralOther U u 1 0.6245 
13-May-2018_14:52:00 7312 21 female R 5 2 22 moral immoralOther Y y 1 0.4981 
13-May-2018_14:52:02 7312 21 female R 5 2 23 moral moralSelf U u 1 0.6195 
13-May-2018_14:52:04 7312 21 female R 5 2 24 moral moralOther U u 1 0.5899 
13-May-2018_14:52:08 7312 21 female R 5 3 1 moral immoralSelf Y y 1 0.5552 
13-May-2018_14:52:09 7312 21 female R 5 3 2 moral immoralSelf Y y 1 0.3432 
13-May-2018_14:52:11 7312 21 female R 5 3 3 moral moralOther U u 1 0.5370 
13-May-2018_14:52:13 7312 21 female R 5 3 4 moral moralSelf U u 1 0.4938 
13-May-2018_14:52:15 7312 21 female R 5 3 5 moral immoralOther Y u 0 0.6021 
13-May-2018_14:52:17 7312 21 female R 5 3 6 moral immoralSelf Y y 1 0.5331 
13-May-2018_14:52:18 7312 21 female R 5 3 7 moral moralSelf U u 1 0.4893 
13-May-2018_14:52:20 7312 21 female R 5 3 8 moral moralOther U u 1 0.6527 
13-May-2018_14:52:22 7312 21 female R 5 3 9 moral immoralOther Y y 1 0.6622 
13-May-2018_14:52:24 7312 21 female R 5 3 10 moral moralOther U u 1 0.5761 
13-May-2018_14:52:26 7312 21 female R 5 3 11 moral immoralOther Y y 1 0.7405 
13-May-2018_14:52:29 7312 21 female R 5 3 12 moral immoralSelf Y NA -1 1.0841 
13-May-2018_14:52:31 7312 21 female R 5 3 13 moral moralSelf U u 1 0.5651 
13-May-2018_14:52:33 7312 21 female R 5 3 14 moral moralSelf U u 1 0.8254 
13-May-2018_14:52:35 7312 21 female R 5 3 15 moral moralSelf U u 1 0.4752 
13-May-2018_14:52:36 7312 21 female R 5 3 16 moral immoralOther Y y 1 0.4779 
13-May-2018_14:52:38 7312 21 female R 5 3 17 moral moralSelf U y 0 0.4925 
13-May-2018_14:52:40 7312 21 female R 5 3 18 moral immoralOther Y y 1 0.6087 
13-May-2018_14:52:42 7312 21 female R 5 3 19 moral immoralOther Y y 1 0.5900 
13-May-2018_14:52:44 7312 21 female R 5 3 20 moral moralOther U u 1 0.7468 
13-May-2018_14:52:46 7312 21 female R 5 3 21 moral immoralSelf Y y 1 0.5304 
13-May-2018_14:52:47 7312 21 female R 5 3 22 moral immoralSelf Y y 1 0.5460 
13-May-2018_14:52:49 7312 21 female R 5 3 23 moral moralOther U u 1 0.6773 
13-May-2018_14:52:51 7312 21 female R 5 3 24 moral moralOther U u 1 0.6120 
13-May-2018_14:52:53 7312 21 female R 5 4 1 moral moralOther U u 1 0.7137 
13-May-2018_14:52:55 7312 21 female R 5 4 2 moral moralSelf U y 0 0.4752 
13-May-2018_14:52:57 7312 21 female R 5 4 3 moral moralOther U u 1 0.5605 
13-May-2018_14:52:58 7312 21 female R 5 4 4 moral moralSelf U u 1 0.4529 
13-May-2018_14:53:00 7312 21 female R 5 4 5 moral immoralOther Y y 1 0.7028 
13-May-2018_14:53:02 7312 21 female R 5 4 6 moral moralSelf U u 1 0.5805 
13-May-2018_14:53:04 7312 21 female R 5 4 7 moral moralOther U u 1 0.5763 
13-May-2018_14:53:06 7312 21 female R 5 4 8 moral immoralOther Y y 1 0.5924 
13-May-2018_14:53:07 7312 21 female R 5 4 9 moral moralOther U u 1 0.5736 
13-May-2018_14:53:09 7312 21 female R 5 4 10 moral moralSelf U u 1 0.6692 
13-May-2018_14:53:11 7312 21 female R 5 4 11 moral moralSelf U u 1 0.5333 
13-May-2018_14:53:13 7312 21 female R 5 4 12 moral immoralSelf Y u 0 0.6576 
13-May-2018_14:53:14 7312 21 female R 5 4 13 moral moralSelf U u 1 0.5419 
13-May-2018_14:53:16 7312 21 female R 5 4 14 moral immoralSelf Y y 1 0.6178 
13-May-2018_14:53:18 7312 21 female R 5 4 15 moral immoralSelf Y y 1 0.3392 
13-May-2018_14:53:19 7312 21 female R 5 4 16 moral immoralOther Y y 1 0.4390 
13-May-2018_14:53:21 7312 21 female R 5 4 17 moral moralOther U u 1 0.5883 
13-May-2018_14:53:23 7312 21 female R 5 4 18 moral immoralSelf Y y 1 0.4976 
13-May-2018_14:53:25 7312 21 female R 5 4 19 moral immoralOther Y y 1 0.7842 
13-May-2018_14:53:26 7312 21 female R 5 4 20 moral immoralSelf Y y 1 0.4210 
13-May-2018_14:53:28 7312 21 female R 5 4 21 moral immoralOther Y y 1 0.5053 
13-May-2018_14:53:30 7312 21 female R 5 4 22 moral moralOther U u 1 0.7769 
13-May-2018_14:53:32 7312 21 female R 5 4 23 moral immoralOther Y y 1 0.5864 
13-May-2018_14:53:34 7312 21 female R 5 4 24 moral immoralSelf Y y 1 0.6872 
13-May-2018_14:53:38 7312 21 female R 5 5 1 moral moralSelf U u 1 0.7701 
13-May-2018_14:53:39 7312 21 female R 5 5 2 moral moralSelf U u 1 0.4431 
13-May-2018_14:53:41 7312 21 female R 5 5 3 moral moralOther U u 1 0.6361 
13-May-2018_14:53:43 7312 21 female R 5 5 4 moral immoralSelf Y y 1 0.6344 
13-May-2018_14:53:45 7312 21 female R 5 5 5 moral moralOther U u 1 0.6056 
13-May-2018_14:53:47 7312 21 female R 5 5 6 moral moralSelf U u 1 0.6129 
13-May-2018_14:53:49 7312 21 female R 5 5 7 moral moralOther U u 1 0.6059 
13-May-2018_14:53:50 7312 21 female R 5 5 8 moral moralSelf U u 1 0.4878 
13-May-2018_14:53:52 7312 21 female R 5 5 9 moral immoralSelf Y y 1 0.6078 
13-May-2018_14:53:54 7312 21 female R 5 5 10 moral immoralOther Y u 0 0.4757 
13-May-2018_14:53:56 7312 21 female R 5 5 11 moral immoralOther Y y 1 0.4993 
13-May-2018_14:53:58 7312 21 female R 5 5 12 moral moralOther U u 1 0.5215 
13-May-2018_14:54:00 7312 21 female R 5 5 13 moral immoralOther Y y 1 0.6133 
13-May-2018_14:54:02 7312 21 female R 5 5 14 moral immoralOther Y y 1 0.8788 
13-May-2018_14:54:04 7312 21 female R 5 5 15 moral immoralSelf Y y 1 0.3312 
13-May-2018_14:54:05 7312 21 female R 5 5 16 moral immoralOther Y y 1 0.4375 
13-May-2018_14:54:07 7312 21 female R 5 5 17 moral immoralSelf Y y 1 0.5976 
13-May-2018_14:54:09 7312 21 female R 5 5 18 moral immoralSelf Y y 1 0.4669 
13-May-2018_14:54:11 7312 21 female R 5 5 19 moral moralOther U u 1 0.6807 
13-May-2018_14:54:13 7312 21 female R 5 5 20 moral immoralOther Y y 1 0.6345 
13-May-2018_14:54:14 7312 21 female R 5 5 21 moral moralSelf U u 1 0.4633 
13-May-2018_14:54:16 7312 21 female R 5 5 22 moral moralOther U u 1 0.8107 
13-May-2018_14:54:18 7312 21 female R 5 5 23 moral moralSelf U u 1 0.5524 
13-May-2018_14:54:20 7312 21 female R 5 5 24 moral immoralSelf Y y 1 0.5290 
Date Sub Age Sex Hand Block Bin Trial Task Shape corrResp Resp ACC RT
13-May-2018_14:56:32 7312 21 female R 6 1 1 self immoralSelf H j 0 0.5990 
13-May-2018_14:56:34 7312 21 female R 6 1 2 self moralSelf H h 1 0.4467 
13-May-2018_14:56:35 7312 21 female R 6 1 3 self immoralOther J j 1 0.6313 
13-May-2018_14:56:37 7312 21 female R 6 1 4 self moralOther J j 1 0.6492 
13-May-2018_14:56:39 7312 21 female R 6 1 5 self moralSelf H h 1 0.3825 
13-May-2018_14:56:41 7312 21 female R 6 1 6 self moralSelf H h 1 0.5044 
13-May-2018_14:56:42 7312 21 female R 6 1 7 self moralSelf H h 1 0.2937 
13-May-2018_14:56:44 7312 21 female R 6 1 8 self immoralSelf H h 1 0.4523 
13-May-2018_14:56:46 7312 21 female R 6 1 9 self moralOther J j 1 0.6016 
13-May-2018_14:56:48 7312 21 female R 6 1 10 self moralSelf H h 1 0.4487 
13-May-2018_14:56:50 7312 21 female R 6 1 11 self immoralOther J j 1 0.6154 
13-May-2018_14:56:52 7312 21 female R 6 1 12 self moralOther J h 0 0.5368 
13-May-2018_14:56:54 7312 21 female R 6 1 13 self immoralSelf H j 0 0.6889 
13-May-2018_14:56:55 7312 21 female R 6 1 14 self immoralOther J j 1 0.6241 
13-May-2018_14:56:57 7312 21 female R 6 1 15 self moralOther J j 1 0.6910 
13-May-2018_14:56:59 7312 21 female R 6 1 16 self moralOther J j 1 0.5886 
13-May-2018_14:57:01 7312 21 female R 6 1 17 self immoralSelf H h 1 0.5453 
13-May-2018_14:57:03 7312 21 female R 6 1 18 self immoralOther J j 1 0.5048 
13-May-2018_14:57:04 7312 21 female R 6 1 19 self immoralOther J j 1 0.5967 
13-May-2018_14:57:06 7312 21 female R 6 1 20 self immoralSelf H h 1 0.7765 
13-May-2018_14:57:08 7312 21 female R 6 1 21 self immoralSelf H h 1 0.4947 
13-May-2018_14:57:10 7312 21 female R 6 1 22 self moralOther J j 1 0.5870 
13-May-2018_14:57:12 7312 21 female R 6 1 23 self moralSelf H h 1 0.4723 
13-May-2018_14:57:14 7312 21 female R 6 1 24 self immoralOther J j 1 0.7119 
13-May-2018_14:57:16 7312 21 female R 6 2 1 self immoralSelf H h 1 0.5247 
13-May-2018_14:57:17 7312 21 female R 6 2 2 self moralSelf H h 1 0.4843 
13-May-2018_14:57:20 7312 21 female R 6 2 3 self moralOther J j 1 0.7550 
13-May-2018_14:57:21 7312 21 female R 6 2 4 self immoralOther J j 1 0.6473 
13-May-2018_14:57:23 7312 21 female R 6 2 5 self immoralOther J j 1 0.4954 
13-May-2018_14:57:25 7312 21 female R 6 2 6 self moralSelf H h 1 0.4963 
13-May-2018_14:57:27 7312 21 female R 6 2 7 self moralSelf H h 1 0.4804 
13-May-2018_14:57:28 7312 21 female R 6 2 8 self immoralOther J j 1 0.5591 
13-May-2018_14:57:30 7312 21 female R 6 2 9 self immoralOther J j 1 0.4942 
13-May-2018_14:57:32 7312 21 female R 6 2 10 self immoralSelf H h 1 0.5629 
13-May-2018_14:57:34 7312 21 female R 6 2 11 self moralOther J j 1 0.6680 
13-May-2018_14:57:36 7312 21 female R 6 2 12 self moralSelf H h 1 0.4600 
13-May-2018_14:57:38 7312 21 female R 6 2 13 self moralOther J j 1 0.6804 
13-May-2018_14:57:40 7312 21 female R 6 2 14 self immoralOther J j 1 0.7684 
13-May-2018_14:57:41 7312 21 female R 6 2 15 self immoralOther J j 1 0.4885 
13-May-2018_14:57:43 7312 21 female R 6 2 16 self immoralSelf H h 1 0.7507 
13-May-2018_14:57:45 7312 21 female R 6 2 17 self moralOther J j 1 0.5588 
13-May-2018_14:57:47 7312 21 female R 6 2 18 self immoralSelf H h 1 0.5922 
13-May-2018_14:57:49 7312 21 female R 6 2 19 self moralSelf H h 1 0.4785 
13-May-2018_14:57:50 7312 21 female R 6 2 20 self immoralSelf H h 1 0.5934 
13-May-2018_14:57:52 7312 21 female R 6 2 21 self moralOther J j 1 0.6019 
13-May-2018_14:57:54 7312 21 female R 6 2 22 self immoralSelf H h 1 0.4669 
13-May-2018_14:57:56 7312 21 female R 6 2 23 self moralSelf H h 1 0.4368 
13-May-2018_14:57:58 7312 21 female R 6 2 24 self moralOther J j 1 0.6633 
13-May-2018_14:58:03 7312 21 female R 6 3 1 self immoralOther J j 1 0.6099 
13-May-2018_14:58:05 7312 21 female R 6 3 2 self immoralSelf H h 1 0.5168 
13-May-2018_14:58:07 7312 21 female R 6 3 3 self moralOther J j 1 0.4688 
13-May-2018_14:58:08 7312 21 female R 6 3 4 self moralSelf H h 1 0.3790 
13-May-2018_14:58:10 7312 21 female R 6 3 5 self immoralSelf H h 1 0.5014 
13-May-2018_14:58:12 7312 21 female R 6 3 6 self immoralSelf H h 1 0.3439 
13-May-2018_14:58:14 7312 21 female R 6 3 7 self moralSelf H h 1 0.4861 
13-May-2018_14:58:16 7312 21 female R 6 3 8 self moralOther J j 1 0.6160 
13-May-2018_14:58:17 7312 21 female R 6 3 9 self moralOther J j 1 0.5134 
13-May-2018_14:58:19 7312 21 female R 6 3 10 self immoralSelf H h 1 0.4590 
13-May-2018_14:58:21 7312 21 female R 6 3 11 self immoralSelf H h 1 0.4468 
13-May-2018_14:58:23 7312 21 female R 6 3 12 self immoralSelf H h 1 0.5396 
13-May-2018_14:58:24 7312 21 female R 6 3 13 self moralOther J j 1 0.5736 
13-May-2018_14:58:26 7312 21 female R 6 3 14 self moralSelf H h 1 0.4922 
13-May-2018_14:58:27 7312 21 female R 6 3 15 self immoralOther J j 1 0.4344 
13-May-2018_14:58:29 7312 21 female R 6 3 16 self moralSelf H h 1 0.3912 
13-May-2018_14:58:31 7312 21 female R 6 3 17 self immoralOther J j 1 0.5677 
13-May-2018_14:58:32 7312 21 female R 6 3 18 self moralSelf H h 1 0.4943 
13-May-2018_14:58:34 7312 21 female R 6 3 19 self moralOther J j 1 0.8473 
13-May-2018_14:58:36 7312 21 female R 6 3 20 self moralOther J j 1 0.4869 
13-May-2018_14:58:39 7312 21 female R 6 3 21 self moralSelf H h 1 0.6503 
13-May-2018_14:58:40 7312 21 female R 6 3 22 self immoralOther J j 1 0.5564 
13-May-2018_14:58:42 7312 21 female R 6 3 23 self immoralOther J j 1 0.6157 
13-May-2018_14:58:44 7312 21 female R 6 3 24 self immoralOther J j 1 0.4731 
13-May-2018_14:58:46 7312 21 female R 6 4 1 self immoralSelf H h 1 0.5005 
13-May-2018_14:58:47 7312 21 female R 6 4 2 self moralOther J j 1 0.5316 
13-May-2018_14:58:49 7312 21 female R 6 4 3 self immoralOther J j 1 0.5627 
13-May-2018_14:58:51 7312 21 female R 6 4 4 self moralSelf H h 1 0.4268 
13-May-2018_14:58:53 7312 21 female R 6 4 5 self immoralOther J j 1 0.6424 
13-May-2018_14:58:55 7312 21 female R 6 4 6 self moralSelf H h 1 0.4820 
13-May-2018_14:58:56 7312 21 female R 6 4 7 self moralSelf H h 1 0.5250 
13-May-2018_14:58:58 7312 21 female R 6 4 8 self immoralSelf H h 1 0.6149 
13-May-2018_14:59:00 7312 21 female R 6 4 9 self moralSelf H h 1 0.4615 
13-May-2018_14:59:02 7312 21 female R 6 4 10 self immoralOther J j 1 0.7491 
13-May-2018_14:59:04 7312 21 female R 6 4 11 self moralOther J j 1 0.6782 
13-May-2018_14:59:06 7312 21 female R 6 4 12 self moralOther J j 1 0.6458 
13-May-2018_14:59:08 7312 21 female R 6 4 13 self immoralSelf H h 1 0.6900 
13-May-2018_14:59:10 7312 21 female R 6 4 14 self immoralOther J j 1 1.0337 
13-May-2018_14:59:12 7312 21 female R 6 4 15 self immoralSelf H h 1 0.4196 
13-May-2018_14:59:14 7312 21 female R 6 4 16 self moralSelf H h 1 0.6461 
13-May-2018_14:59:15 7312 21 female R 6 4 17 self moralSelf H h 1 0.4433 
13-May-2018_14:59:17 7312 21 female R 6 4 18 self immoralOther J j 1 0.5874 
13-May-2018_14:59:19 7312 21 female R 6 4 19 self immoralOther J j 1 0.5361 
13-May-2018_14:59:21 7312 21 female R 6 4 20 self immoralSelf H h 1 0.7762 
13-May-2018_14:59:23 7312 21 female R 6 4 21 self moralOther J j 1 0.6925 
13-May-2018_14:59:25 7312 21 female R 6 4 22 self moralOther J j 1 0.6328 
13-May-2018_14:59:27 7312 21 female R 6 4 23 self immoralSelf H h 1 0.8881 
13-May-2018_14:59:29 7312 21 female R 6 4 24 self moralOther J j 1 0.6311 
13-May-2018_14:59:32 7312 21 female R 6 5 1 self immoralSelf H h 1 0.7127 
13-May-2018_14:59:34 7312 21 female R 6 5 2 self moralOther J j 1 0.7396 
13-May-2018_14:59:36 7312 21 female R 6 5 3 self moralSelf H h 1 0.4968 
13-May-2018_14:59:38 7312 21 female R 6 5 4 self immoralSelf H h 1 0.5468 
13-May-2018_14:59:39 7312 21 female R 6 5 5 self immoralSelf H h 1 0.4631 
13-May-2018_14:59:41 7312 21 female R 6 5 6 self immoralSelf H h 1 0.4848 
13-May-2018_14:59:43 7312 21 female R 6 5 7 self immoralOther J j 1 0.3927 
13-May-2018_14:59:45 7312 21 female R 6 5 8 self moralSelf H h 1 0.4096 
13-May-2018_14:59:46 7312 21 female R 6 5 9 self immoralOther J j 1 0.5255 
13-May-2018_14:59:48 7312 21 female R 6 5 10 self immoralSelf H h 1 0.6060 
13-May-2018_14:59:50 7312 21 female R 6 5 11 self moralSelf H h 1 0.5166 
13-May-2018_14:59:52 7312 21 female R 6 5 12 self immoralOther J j 1 0.8452 
13-May-2018_14:59:54 7312 21 female R 6 5 13 self moralSelf H h 1 0.5620 
13-May-2018_14:59:56 7312 21 female R 6 5 14 self moralSelf H h 1 0.7833 
13-May-2018_14:59:58 7312 21 female R 6 5 15 self moralOther J h 0 0.8106 
13-May-2018_15:00:00 7312 21 female R 6 5 16 self immoralOther J j 1 0.5486 
13-May-2018_15:00:02 7312 21 female R 6 5 17 self immoralOther J j 1 0.5802 
13-May-2018_15:00:03 7312 21 female R 6 5 18 self moralOther J j 1 0.5554 
13-May-2018_15:00:05 7312 21 female R 6 5 19 self immoralSelf H h 1 0.6496 
13-May-2018_15:00:07 7312 21 female R 6 5 20 self moralOther J j 1 0.5587 
13-May-2018_15:00:09 7312 21 female R 6 5 21 self immoralOther J j 1 0.5781 
13-May-2018_15:00:11 7312 21 female R 6 5 22 self moralOther J NA -1 1.0841 
13-May-2018_15:00:13 7312 21 female R 6 5 23 self moralSelf H h 1 0.4503 
13-May-2018_15:00:15 7312 21 female R 6 5 24 self moralOther J j 1 0.5163 
