Date Prac Sub Age Sex Hand Block Bin Trial Shape Label Match CorrResp Resp ACC RT
05-Jun-2018_13:45:52 Exp 7340 21 female R 1 1 1 moralOther moralOther match m n 0 0.9388 
05-Jun-2018_13:45:54 Exp 7340 21 female R 1 1 2 moralOther moralSelf mismatch n m 0 0.4266 
05-Jun-2018_13:45:56 Exp 7340 21 female R 1 1 3 moralSelf moralOther mismatch n m 0 0.3918 
05-Jun-2018_13:45:58 Exp 7340 21 female R 1 1 4 immoralSelf immoralSelf match m n 0 0.5524 
05-Jun-2018_13:46:00 Exp 7340 21 female R 1 1 5 moralOther immoralSelf mismatch n n 1 0.7082 
05-Jun-2018_13:46:03 Exp 7340 21 female R 1 1 6 immoralSelf moralOther mismatch n m 0 0.9751 
05-Jun-2018_13:46:05 Exp 7340 21 female R 1 1 7 moralSelf moralOther mismatch n m 0 0.5555 
05-Jun-2018_13:46:07 Exp 7340 21 female R 1 1 8 immoralOther immoralOther match m n 0 0.5193 
05-Jun-2018_13:46:10 Exp 7340 21 female R 1 1 9 immoralOther immoralOther match m n 0 0.6545 
05-Jun-2018_13:46:12 Exp 7340 21 female R 1 1 10 immoralOther moralSelf mismatch n n 1 0.8522 
05-Jun-2018_13:46:14 Exp 7340 21 female R 1 1 11 moralSelf moralSelf match m m 1 0.4980 
05-Jun-2018_13:46:16 Exp 7340 21 female R 1 1 12 moralSelf moralSelf match m m 1 0.3687 
05-Jun-2018_13:46:19 Exp 7340 21 female R 1 1 13 immoralOther moralOther mismatch n n 1 0.7207 
05-Jun-2018_13:46:21 Exp 7340 21 female R 1 1 14 immoralOther moralOther mismatch n n 1 0.7199 
05-Jun-2018_13:46:23 Exp 7340 21 female R 1 1 15 moralSelf moralSelf match m m 1 0.4551 
05-Jun-2018_13:46:25 Exp 7340 21 female R 1 1 16 moralSelf moralOther mismatch n n 1 0.5887 
05-Jun-2018_13:46:28 Exp 7340 21 female R 1 1 17 immoralSelf immoralOther mismatch n NA -1 1.0841 
05-Jun-2018_13:46:30 Exp 7340 21 female R 1 1 18 immoralOther immoralOther match m n 0 0.7118 
05-Jun-2018_13:46:33 Exp 7340 21 female R 1 1 19 immoralSelf immoralSelf match m m 1 0.9868 
05-Jun-2018_13:46:35 Exp 7340 21 female R 1 1 20 immoralSelf immoralOther mismatch n n 1 0.8833 
05-Jun-2018_13:46:38 Exp 7340 21 female R 1 1 21 moralOther moralSelf mismatch n n 1 0.9257 
05-Jun-2018_13:46:40 Exp 7340 21 female R 1 1 22 immoralSelf immoralSelf match m m 1 0.7729 
05-Jun-2018_13:46:43 Exp 7340 21 female R 1 1 23 moralOther moralOther match m m 1 0.9250 
05-Jun-2018_13:46:45 Exp 7340 21 female R 1 1 24 moralOther moralOther match m m 1 0.5689 
05-Jun-2018_13:46:48 Exp 7340 21 female R 1 2 1 moralSelf immoralOther mismatch n n 1 0.7243 
05-Jun-2018_13:46:50 Exp 7340 21 female R 1 2 2 immoralOther immoralOther match m NA -1 1.0841 
05-Jun-2018_13:46:52 Exp 7340 21 female R 1 2 3 moralSelf moralSelf match m m 1 0.4779 
05-Jun-2018_13:46:54 Exp 7340 21 female R 1 2 4 immoralOther immoralOther match m m 1 0.5082 
05-Jun-2018_13:46:57 Exp 7340 21 female R 1 2 5 immoralOther moralOther mismatch n m 0 0.3910 
05-Jun-2018_13:46:59 Exp 7340 21 female R 1 2 6 moralOther moralOther match m m 1 0.9595 
05-Jun-2018_13:47:02 Exp 7340 21 female R 1 2 7 immoralOther immoralSelf mismatch n n 1 0.9715 
05-Jun-2018_13:47:04 Exp 7340 21 female R 1 2 8 immoralSelf moralSelf mismatch n n 1 1.0195 
05-Jun-2018_13:47:07 Exp 7340 21 female R 1 2 9 immoralSelf immoralSelf match m m 1 0.7886 
05-Jun-2018_13:47:09 Exp 7340 21 female R 1 2 10 immoralSelf immoralSelf match m m 1 0.4772 
05-Jun-2018_13:47:11 Exp 7340 21 female R 1 2 11 moralSelf moralSelf match m m 1 0.5634 
05-Jun-2018_13:47:13 Exp 7340 21 female R 1 2 12 immoralSelf moralSelf mismatch n m 0 0.3955 
05-Jun-2018_13:47:16 Exp 7340 21 female R 1 2 13 immoralSelf immoralSelf match m m 1 0.7799 
05-Jun-2018_13:47:18 Exp 7340 21 female R 1 2 14 moralOther moralOther match m m 1 0.8164 
05-Jun-2018_13:47:20 Exp 7340 21 female R 1 2 15 moralSelf immoralSelf mismatch n m 0 0.9053 
05-Jun-2018_13:47:23 Exp 7340 21 female R 1 2 16 immoralSelf immoralOther mismatch n m 0 0.8123 
05-Jun-2018_13:47:26 Exp 7340 21 female R 1 2 17 moralOther immoralOther mismatch n NA -1 1.0841 
05-Jun-2018_13:47:28 Exp 7340 21 female R 1 2 18 moralOther moralOther match m m 1 0.8158 
05-Jun-2018_13:47:30 Exp 7340 21 female R 1 2 19 moralSelf moralSelf match m m 1 0.4569 
05-Jun-2018_13:47:33 Exp 7340 21 female R 1 2 20 moralOther immoralOther mismatch n n 1 1.0028 
05-Jun-2018_13:47:35 Exp 7340 21 female R 1 2 21 immoralOther immoralOther match m n 0 0.4796 
05-Jun-2018_13:47:37 Exp 7340 21 female R 1 2 22 immoralOther moralSelf mismatch n m 0 0.6101 
05-Jun-2018_13:47:40 Exp 7340 21 female R 1 2 23 moralOther moralSelf mismatch n NA -1 1.0841 
05-Jun-2018_13:47:42 Exp 7340 21 female R 1 2 24 moralSelf moralOther mismatch n m 0 0.4776 
05-Jun-2018_13:47:45 Exp 7340 21 female R 1 3 1 moralSelf immoralOther mismatch n n 1 0.9397 
05-Jun-2018_13:47:47 Exp 7340 21 female R 1 3 2 moralOther immoralOther mismatch n m 0 0.9794 
05-Jun-2018_13:47:50 Exp 7340 21 female R 1 3 3 moralOther moralOther match m n 0 0.8077 
05-Jun-2018_13:47:52 Exp 7340 21 female R 1 3 4 immoralSelf immoralOther mismatch n NA -1 1.0841 
05-Jun-2018_13:47:55 Exp 7340 21 female R 1 3 5 moralOther moralOther match m m 1 0.8150 
05-Jun-2018_13:47:57 Exp 7340 21 female R 1 3 6 immoralSelf immoralSelf match m m 1 0.7841 
05-Jun-2018_13:48:00 Exp 7340 21 female R 1 3 7 immoralOther immoralOther match m m 1 0.7884 
05-Jun-2018_13:48:02 Exp 7340 21 female R 1 3 8 immoralOther immoralOther match m m 1 0.6450 
05-Jun-2018_13:48:04 Exp 7340 21 female R 1 3 9 immoralSelf immoralOther mismatch n n 1 0.7547 
05-Jun-2018_13:48:07 Exp 7340 21 female R 1 3 10 immoralSelf immoralSelf match m n 0 0.9025 
05-Jun-2018_13:48:09 Exp 7340 21 female R 1 3 11 moralSelf moralSelf match m m 1 0.4693 
05-Jun-2018_13:48:11 Exp 7340 21 female R 1 3 12 moralSelf moralOther mismatch n m 0 0.7475 
05-Jun-2018_13:48:14 Exp 7340 21 female R 1 3 13 moralOther moralOther match m m 1 0.6431 
05-Jun-2018_13:48:16 Exp 7340 21 female R 1 3 14 moralOther immoralOther mismatch n n 1 0.7166 
05-Jun-2018_13:48:19 Exp 7340 21 female R 1 3 15 immoralSelf moralSelf mismatch n NA -1 1.0841 
05-Jun-2018_13:48:21 Exp 7340 21 female R 1 3 16 immoralOther immoralSelf mismatch n m 0 0.8222 
05-Jun-2018_13:48:23 Exp 7340 21 female R 1 3 17 immoralSelf immoralSelf match m n 0 0.6035 
05-Jun-2018_13:48:26 Exp 7340 21 female R 1 3 18 moralOther immoralOther mismatch n n 1 1.0643 
05-Jun-2018_13:48:28 Exp 7340 21 female R 1 3 19 moralSelf moralOther mismatch n m 0 0.5383 
05-Jun-2018_13:48:31 Exp 7340 21 female R 1 3 20 immoralOther moralOther mismatch n n 1 0.8820 
05-Jun-2018_13:48:33 Exp 7340 21 female R 1 3 21 immoralOther immoralOther match m m 1 0.7643 
05-Jun-2018_13:48:35 Exp 7340 21 female R 1 3 22 moralSelf moralSelf match m m 1 0.5404 
05-Jun-2018_13:48:38 Exp 7340 21 female R 1 3 23 immoralOther immoralSelf mismatch n n 1 0.6761 
05-Jun-2018_13:48:40 Exp 7340 21 female R 1 3 24 moralSelf moralSelf match m m 1 0.4903 
05-Jun-2018_13:49:06 Exp 7340 21 female R 1 4 1 moralSelf moralSelf match m m 1 0.6005 
05-Jun-2018_13:49:08 Exp 7340 21 female R 1 4 2 immoralOther immoralOther match m m 1 0.7573 
05-Jun-2018_13:49:11 Exp 7340 21 female R 1 4 3 immoralSelf immoralSelf match m m 1 0.6732 
05-Jun-2018_13:49:13 Exp 7340 21 female R 1 4 4 immoralSelf moralOther mismatch n m 0 0.7354 
05-Jun-2018_13:49:15 Exp 7340 21 female R 1 4 5 moralOther moralOther match m m 1 0.6029 
05-Jun-2018_13:49:17 Exp 7340 21 female R 1 4 6 moralOther moralSelf mismatch n m 0 0.3916 
05-Jun-2018_13:49:20 Exp 7340 21 female R 1 4 7 immoralSelf moralSelf mismatch n n 1 0.7601 
05-Jun-2018_13:49:22 Exp 7340 21 female R 1 4 8 immoralOther moralSelf mismatch n n 1 0.5720 
05-Jun-2018_13:49:24 Exp 7340 21 female R 1 4 9 immoralOther immoralOther match m m 1 0.7241 
05-Jun-2018_13:49:27 Exp 7340 21 female R 1 4 10 immoralSelf immoralSelf match m n 0 0.8112 
05-Jun-2018_13:49:29 Exp 7340 21 female R 1 4 11 immoralSelf moralOther mismatch n n 1 0.7323 
05-Jun-2018_13:49:31 Exp 7340 21 female R 1 4 12 immoralOther immoralSelf mismatch n m 0 0.6557 
05-Jun-2018_13:49:34 Exp 7340 21 female R 1 4 13 moralOther moralOther match m m 1 0.8054 
05-Jun-2018_13:49:36 Exp 7340 21 female R 1 4 14 immoralSelf immoralSelf match m n 0 0.6822 
05-Jun-2018_13:49:38 Exp 7340 21 female R 1 4 15 moralSelf immoralSelf mismatch n n 1 0.7807 
05-Jun-2018_13:49:41 Exp 7340 21 female R 1 4 16 moralOther moralOther match m m 1 0.7610 
05-Jun-2018_13:49:43 Exp 7340 21 female R 1 4 17 moralOther immoralSelf mismatch n m 0 0.6449 
05-Jun-2018_13:49:46 Exp 7340 21 female R 1 4 18 moralSelf immoralSelf mismatch n n 1 0.7866 
05-Jun-2018_13:49:48 Exp 7340 21 female R 1 4 19 moralOther immoralSelf mismatch n n 1 0.6912 
05-Jun-2018_13:49:50 Exp 7340 21 female R 1 4 20 immoralOther immoralOther match m m 1 0.8339 
05-Jun-2018_13:49:53 Exp 7340 21 female R 1 4 21 moralSelf moralSelf match m m 1 0.5714 
05-Jun-2018_13:49:55 Exp 7340 21 female R 1 4 22 moralSelf moralSelf match m m 1 0.5475 
05-Jun-2018_13:49:57 Exp 7340 21 female R 1 4 23 moralSelf immoralOther mismatch n n 1 0.6911 
05-Jun-2018_13:49:59 Exp 7340 21 female R 1 4 24 immoralOther immoralSelf mismatch n m 0 0.6935 
05-Jun-2018_13:50:02 Exp 7340 21 female R 1 5 1 moralOther moralOther match m m 1 1.0442 
05-Jun-2018_13:50:05 Exp 7340 21 female R 1 5 2 immoralSelf immoralSelf match m m 1 0.9140 
05-Jun-2018_13:50:07 Exp 7340 21 female R 1 5 3 immoralSelf immoralOther mismatch n n 1 0.7330 
05-Jun-2018_13:50:09 Exp 7340 21 female R 1 5 4 moralSelf moralSelf match m m 1 0.6483 
05-Jun-2018_13:50:12 Exp 7340 21 female R 1 5 5 immoralSelf immoralSelf match m m 1 0.7420 
05-Jun-2018_13:50:14 Exp 7340 21 female R 1 5 6 immoralSelf immoralSelf match m n 0 0.9336 
05-Jun-2018_13:50:16 Exp 7340 21 female R 1 5 7 immoralOther immoralOther match m n 0 0.5932 
05-Jun-2018_13:50:19 Exp 7340 21 female R 1 5 8 moralOther immoralSelf mismatch n n 1 0.7616 
05-Jun-2018_13:50:21 Exp 7340 21 female R 1 5 9 moralOther moralOther match m m 1 0.5495 
05-Jun-2018_13:50:23 Exp 7340 21 female R 1 5 10 immoralOther immoralSelf mismatch n m 0 0.7374 
05-Jun-2018_13:50:26 Exp 7340 21 female R 1 5 11 immoralSelf moralSelf mismatch n n 1 0.9888 
05-Jun-2018_13:50:28 Exp 7340 21 female R 1 5 12 moralSelf immoralSelf mismatch n n 1 0.6694 
05-Jun-2018_13:50:30 Exp 7340 21 female R 1 5 13 immoralOther immoralOther match m n 0 0.5636 
05-Jun-2018_13:50:33 Exp 7340 21 female R 1 5 14 moralOther moralSelf mismatch n n 1 0.8356 
05-Jun-2018_13:50:35 Exp 7340 21 female R 1 5 15 moralSelf moralOther mismatch n n 1 0.8771 
05-Jun-2018_13:50:38 Exp 7340 21 female R 1 5 16 immoralOther immoralOther match m m 1 0.7075 
05-Jun-2018_13:50:40 Exp 7340 21 female R 1 5 17 moralOther moralSelf mismatch n NA -1 1.0841 
05-Jun-2018_13:50:43 Exp 7340 21 female R 1 5 18 moralSelf immoralOther mismatch n n 1 0.6968 
05-Jun-2018_13:50:46 Exp 7340 21 female R 1 5 19 immoralSelf immoralOther mismatch n NA -1 1.0841 
05-Jun-2018_13:50:48 Exp 7340 21 female R 1 5 20 moralSelf moralSelf match m m 1 0.5779 
05-Jun-2018_13:50:50 Exp 7340 21 female R 1 5 21 immoralOther immoralSelf mismatch n n 1 0.8063 
05-Jun-2018_13:50:52 Exp 7340 21 female R 1 5 22 moralSelf moralSelf match m m 1 0.5390 
05-Jun-2018_13:50:55 Exp 7340 21 female R 1 5 23 moralOther moralOther match m m 1 0.9546 
05-Jun-2018_13:50:57 Exp 7340 21 female R 1 5 24 immoralOther immoralSelf mismatch n n 1 0.5425 
05-Jun-2018_13:51:03 Exp 7340 21 female R 2 1 1 immoralOther immoralOther match m NA -1 1.0841 
05-Jun-2018_13:51:05 Exp 7340 21 female R 2 1 2 moralOther immoralOther mismatch n n 1 0.7617 
05-Jun-2018_13:51:07 Exp 7340 21 female R 2 1 3 moralSelf moralSelf match m m 1 0.4898 
05-Jun-2018_13:51:10 Exp 7340 21 female R 2 1 4 moralOther immoralSelf mismatch n n 1 0.7802 
05-Jun-2018_13:51:12 Exp 7340 21 female R 2 1 5 moralOther moralOther match m m 1 0.6966 
05-Jun-2018_13:51:15 Exp 7340 21 female R 2 1 6 immoralSelf immoralSelf match m n 0 0.7592 
05-Jun-2018_13:51:17 Exp 7340 21 female R 2 1 7 immoralOther immoralSelf mismatch n n 1 0.7470 
05-Jun-2018_13:51:19 Exp 7340 21 female R 2 1 8 immoralSelf immoralSelf match m n 0 0.7067 
05-Jun-2018_13:51:22 Exp 7340 21 female R 2 1 9 immoralSelf moralOther mismatch n n 1 0.6695 
05-Jun-2018_13:51:24 Exp 7340 21 female R 2 1 10 moralSelf moralSelf match m m 1 0.4999 
05-Jun-2018_13:51:26 Exp 7340 21 female R 2 1 11 immoralSelf moralOther mismatch n n 1 0.7146 
05-Jun-2018_13:51:28 Exp 7340 21 female R 2 1 12 immoralOther immoralOther match m n 0 0.8295 
05-Jun-2018_13:51:31 Exp 7340 21 female R 2 1 13 moralSelf immoralSelf mismatch n n 1 0.7707 
05-Jun-2018_13:51:33 Exp 7340 21 female R 2 1 14 immoralSelf immoralSelf match m m 1 0.6829 
05-Jun-2018_13:51:36 Exp 7340 21 female R 2 1 15 moralOther immoralSelf mismatch n n 1 0.7733 
05-Jun-2018_13:51:38 Exp 7340 21 female R 2 1 16 moralSelf immoralSelf mismatch n NA -1 1.0841 
05-Jun-2018_13:51:41 Exp 7340 21 female R 2 1 17 immoralOther moralOther mismatch n m 0 0.8799 
05-Jun-2018_13:51:43 Exp 7340 21 female R 2 1 18 moralSelf moralSelf match m m 1 0.5702 
05-Jun-2018_13:51:45 Exp 7340 21 female R 2 1 19 moralSelf immoralOther mismatch n n 1 0.5544 
05-Jun-2018_13:51:48 Exp 7340 21 female R 2 1 20 moralOther moralOther match m m 1 0.6942 
05-Jun-2018_13:51:50 Exp 7340 21 female R 2 1 21 immoralSelf moralOther mismatch n n 1 0.6609 
05-Jun-2018_13:51:52 Exp 7340 21 female R 2 1 22 immoralOther immoralOther match m m 1 0.7909 
05-Jun-2018_13:51:55 Exp 7340 21 female R 2 1 23 immoralOther immoralSelf mismatch n n 1 0.7754 
05-Jun-2018_13:51:57 Exp 7340 21 female R 2 1 24 moralOther moralOther match m m 1 0.6758 
05-Jun-2018_13:51:59 Exp 7340 21 female R 2 2 1 moralOther moralOther match m m 1 0.4819 
05-Jun-2018_13:52:01 Exp 7340 21 female R 2 2 2 moralOther immoralSelf mismatch n n 1 0.5564 
05-Jun-2018_13:52:03 Exp 7340 21 female R 2 2 3 moralSelf moralSelf match m m 1 0.5043 
05-Jun-2018_13:52:06 Exp 7340 21 female R 2 2 4 immoralSelf immoralSelf match m m 1 0.7473 
05-Jun-2018_13:52:08 Exp 7340 21 female R 2 2 5 immoralSelf immoralSelf match m n 0 0.5708 
05-Jun-2018_13:52:10 Exp 7340 21 female R 2 2 6 immoralOther immoralSelf mismatch n n 1 0.6749 
05-Jun-2018_13:52:13 Exp 7340 21 female R 2 2 7 moralOther immoralSelf mismatch n n 1 0.6811 
05-Jun-2018_13:52:15 Exp 7340 21 female R 2 2 8 moralSelf immoralSelf mismatch n n 1 0.7556 
05-Jun-2018_13:52:17 Exp 7340 21 female R 2 2 9 immoralOther moralSelf mismatch n m 0 0.7274 
05-Jun-2018_13:52:20 Exp 7340 21 female R 2 2 10 moralOther moralOther match m m 1 1.0588 
05-Jun-2018_13:52:22 Exp 7340 21 female R 2 2 11 immoralSelf moralSelf mismatch n n 1 0.7409 
05-Jun-2018_13:52:25 Exp 7340 21 female R 2 2 12 moralSelf immoralSelf mismatch n n 1 0.7325 
05-Jun-2018_13:52:27 Exp 7340 21 female R 2 2 13 immoralOther immoralSelf mismatch n n 1 0.6158 
05-Jun-2018_13:52:29 Exp 7340 21 female R 2 2 14 moralSelf moralSelf match m m 1 0.6809 
05-Jun-2018_13:52:32 Exp 7340 21 female R 2 2 15 moralOther moralSelf mismatch n n 1 0.8514 
05-Jun-2018_13:52:34 Exp 7340 21 female R 2 2 16 moralSelf moralSelf match m m 1 0.5131 
05-Jun-2018_13:52:37 Exp 7340 21 female R 2 2 17 immoralOther immoralOther match m m 1 0.8680 
05-Jun-2018_13:52:39 Exp 7340 21 female R 2 2 18 moralSelf immoralOther mismatch n n 1 0.6263 
05-Jun-2018_13:52:41 Exp 7340 21 female R 2 2 19 immoralSelf immoralSelf match m n 0 0.6314 
05-Jun-2018_13:52:43 Exp 7340 21 female R 2 2 20 moralOther moralOther match m m 1 0.6207 
05-Jun-2018_13:52:45 Exp 7340 21 female R 2 2 21 immoralOther immoralOther match m n 0 0.4660 
05-Jun-2018_13:52:48 Exp 7340 21 female R 2 2 22 immoralSelf moralSelf mismatch n m 0 0.7079 
05-Jun-2018_13:52:50 Exp 7340 21 female R 2 2 23 immoralOther immoralOther match m m 1 0.7109 
05-Jun-2018_13:52:53 Exp 7340 21 female R 2 2 24 immoralSelf immoralOther mismatch n NA -1 1.0841 
05-Jun-2018_13:52:55 Exp 7340 21 female R 2 3 1 immoralOther immoralOther match m n 0 0.7643 
05-Jun-2018_13:52:58 Exp 7340 21 female R 2 3 2 moralOther immoralSelf mismatch n m 0 0.7404 
05-Jun-2018_13:53:00 Exp 7340 21 female R 2 3 3 immoralSelf immoralSelf match m m 1 0.6361 
05-Jun-2018_13:53:02 Exp 7340 21 female R 2 3 4 immoralOther immoralSelf mismatch n n 1 0.9656 
05-Jun-2018_13:53:05 Exp 7340 21 female R 2 3 5 moralOther immoralOther mismatch n n 1 0.8856 
05-Jun-2018_13:53:07 Exp 7340 21 female R 2 3 6 moralOther moralOther match m m 1 0.6161 
05-Jun-2018_13:53:10 Exp 7340 21 female R 2 3 7 immoralOther immoralOther match m m 1 0.8171 
05-Jun-2018_13:53:12 Exp 7340 21 female R 2 3 8 moralSelf moralOther mismatch n n 1 0.6821 
05-Jun-2018_13:53:14 Exp 7340 21 female R 2 3 9 immoralSelf immoralOther mismatch n n 1 0.8527 
05-Jun-2018_13:53:17 Exp 7340 21 female R 2 3 10 immoralSelf moralSelf mismatch n n 1 0.8903 
05-Jun-2018_13:53:19 Exp 7340 21 female R 2 3 11 moralSelf moralOther mismatch n m 0 0.6689 
05-Jun-2018_13:53:22 Exp 7340 21 female R 2 3 12 moralSelf moralSelf match m m 1 0.6030 
05-Jun-2018_13:53:24 Exp 7340 21 female R 2 3 13 moralSelf immoralSelf mismatch n n 1 0.6158 
05-Jun-2018_13:53:26 Exp 7340 21 female R 2 3 14 immoralOther moralSelf mismatch n n 1 0.8968 
05-Jun-2018_13:53:29 Exp 7340 21 female R 2 3 15 moralSelf moralSelf match m m 1 0.6956 
05-Jun-2018_13:53:31 Exp 7340 21 female R 2 3 16 immoralSelf immoralSelf match m n 0 0.9182 
05-Jun-2018_13:53:34 Exp 7340 21 female R 2 3 17 immoralOther immoralOther match m NA -1 1.0841 
05-Jun-2018_13:53:37 Exp 7340 21 female R 2 3 18 immoralSelf immoralOther mismatch n m 0 1.0079 
05-Jun-2018_13:53:39 Exp 7340 21 female R 2 3 19 immoralOther moralOther mismatch n n 1 0.9167 
05-Jun-2018_13:53:42 Exp 7340 21 female R 2 3 20 moralOther moralOther match m m 1 0.8518 
05-Jun-2018_13:53:44 Exp 7340 21 female R 2 3 21 immoralSelf immoralSelf match m m 1 0.8897 
05-Jun-2018_13:53:46 Exp 7340 21 female R 2 3 22 moralOther moralOther match m m 1 0.7241 
05-Jun-2018_13:53:49 Exp 7340 21 female R 2 3 23 moralOther immoralOther mismatch n n 1 0.6831 
05-Jun-2018_13:53:51 Exp 7340 21 female R 2 3 24 moralSelf moralSelf match m m 1 0.5417 
05-Jun-2018_13:54:16 Exp 7340 21 female R 2 4 1 moralSelf moralSelf match m m 1 0.7318 
05-Jun-2018_13:54:19 Exp 7340 21 female R 2 4 2 moralOther immoralSelf mismatch n NA -1 1.0841 
05-Jun-2018_13:54:21 Exp 7340 21 female R 2 4 3 immoralSelf immoralSelf match m m 1 0.6417 
05-Jun-2018_13:54:24 Exp 7340 21 female R 2 4 4 moralOther immoralOther mismatch n n 1 0.8272 
05-Jun-2018_13:54:26 Exp 7340 21 female R 2 4 5 immoralOther immoralSelf mismatch n n 1 1.0645 
05-Jun-2018_13:54:29 Exp 7340 21 female R 2 4 6 moralSelf immoralOther mismatch n m 0 0.7865 
05-Jun-2018_13:54:31 Exp 7340 21 female R 2 4 7 immoralOther immoralOther match m n 0 0.5870 
05-Jun-2018_13:54:33 Exp 7340 21 female R 2 4 8 moralOther moralOther match m n 0 0.7556 
05-Jun-2018_13:54:36 Exp 7340 21 female R 2 4 9 immoralOther moralSelf mismatch n n 1 0.8314 
05-Jun-2018_13:54:38 Exp 7340 21 female R 2 4 10 moralOther immoralSelf mismatch n n 1 1.0367 
05-Jun-2018_13:54:41 Exp 7340 21 female R 2 4 11 moralSelf moralSelf match m m 1 0.5422 
05-Jun-2018_13:54:43 Exp 7340 21 female R 2 4 12 immoralOther immoralOther match m m 1 0.9578 
05-Jun-2018_13:54:46 Exp 7340 21 female R 2 4 13 immoralSelf moralOther mismatch n n 1 0.8497 
05-Jun-2018_13:54:48 Exp 7340 21 female R 2 4 14 immoralSelf immoralSelf match m m 1 0.8555 
05-Jun-2018_13:54:51 Exp 7340 21 female R 2 4 15 moralSelf immoralSelf mismatch n n 1 0.7172 
05-Jun-2018_13:54:53 Exp 7340 21 female R 2 4 16 moralOther moralOther match m m 1 0.7483 
05-Jun-2018_13:54:55 Exp 7340 21 female R 2 4 17 moralOther moralOther match m m 1 0.6121 
05-Jun-2018_13:54:58 Exp 7340 21 female R 2 4 18 immoralSelf immoralSelf match m m 1 0.9170 
05-Jun-2018_13:55:00 Exp 7340 21 female R 2 4 19 immoralSelf moralOther mismatch n n 1 0.5482 
05-Jun-2018_13:55:02 Exp 7340 21 female R 2 4 20 moralSelf moralSelf match m m 1 0.5238 
05-Jun-2018_13:55:04 Exp 7340 21 female R 2 4 21 immoralSelf immoralOther mismatch n n 1 0.7070 
05-Jun-2018_13:55:07 Exp 7340 21 female R 2 4 22 immoralOther moralOther mismatch n n 1 0.7659 
05-Jun-2018_13:55:09 Exp 7340 21 female R 2 4 23 immoralOther immoralOther match m n 0 0.7260 
05-Jun-2018_13:55:11 Exp 7340 21 female R 2 4 24 moralSelf immoralSelf mismatch n m 0 0.6291 
05-Jun-2018_13:55:14 Exp 7340 21 female R 2 5 1 moralSelf moralOther mismatch n n 1 0.7064 
05-Jun-2018_13:55:16 Exp 7340 21 female R 2 5 2 moralOther moralOther match m NA -1 1.0841 
05-Jun-2018_13:55:19 Exp 7340 21 female R 2 5 3 immoralOther immoralOther match m m 1 0.8237 
05-Jun-2018_13:55:21 Exp 7340 21 female R 2 5 4 moralOther immoralOther mismatch n n 1 0.6690 
05-Jun-2018_13:55:23 Exp 7340 21 female R 2 5 5 moralOther moralOther match m m 1 0.5873 
05-Jun-2018_13:55:26 Exp 7340 21 female R 2 5 6 immoralSelf immoralSelf match m m 1 0.7319 
05-Jun-2018_13:55:29 Exp 7340 21 female R 2 5 7 moralOther moralSelf mismatch n NA -1 1.0841 
05-Jun-2018_13:55:31 Exp 7340 21 female R 2 5 8 immoralSelf immoralOther mismatch n n 1 1.0577 
05-Jun-2018_13:55:34 Exp 7340 21 female R 2 5 9 immoralSelf immoralSelf match m m 1 0.7237 
05-Jun-2018_13:55:36 Exp 7340 21 female R 2 5 10 moralSelf moralSelf match m n 0 0.7468 
05-Jun-2018_13:55:38 Exp 7340 21 female R 2 5 11 immoralSelf immoralSelf match m m 1 0.7625 
05-Jun-2018_13:55:41 Exp 7340 21 female R 2 5 12 moralOther moralOther match m m 1 0.7226 
05-Jun-2018_13:55:43 Exp 7340 21 female R 2 5 13 moralSelf moralOther mismatch n n 1 0.6818 
05-Jun-2018_13:55:45 Exp 7340 21 female R 2 5 14 immoralOther moralSelf mismatch n n 1 0.7002 
05-Jun-2018_13:55:48 Exp 7340 21 female R 2 5 15 immoralOther moralSelf mismatch n n 1 0.8988 
05-Jun-2018_13:55:50 Exp 7340 21 female R 2 5 16 immoralOther moralOther mismatch n n 1 0.6576 
05-Jun-2018_13:55:52 Exp 7340 21 female R 2 5 17 moralSelf moralSelf match m m 1 0.6195 
05-Jun-2018_13:55:55 Exp 7340 21 female R 2 5 18 moralSelf moralOther mismatch n n 1 0.7965 
05-Jun-2018_13:55:57 Exp 7340 21 female R 2 5 19 immoralSelf moralSelf mismatch n n 1 0.7732 
05-Jun-2018_13:56:00 Exp 7340 21 female R 2 5 20 immoralSelf moralSelf mismatch n n 1 0.7813 
05-Jun-2018_13:56:02 Exp 7340 21 female R 2 5 21 moralSelf moralSelf match m m 1 0.6815 
05-Jun-2018_13:56:05 Exp 7340 21 female R 2 5 22 moralOther immoralOther mismatch n n 1 0.9960 
05-Jun-2018_13:56:07 Exp 7340 21 female R 2 5 23 immoralOther immoralOther match m m 1 0.7406 
05-Jun-2018_13:56:10 Exp 7340 21 female R 2 5 24 immoralOther immoralOther match m m 1 0.9883 
05-Jun-2018_13:56:15 Exp 7340 21 female R 3 1 1 immoralSelf immoralSelf match m n 0 0.9254 
05-Jun-2018_13:56:17 Exp 7340 21 female R 3 1 2 immoralOther immoralOther match m n 0 0.5645 
05-Jun-2018_13:56:19 Exp 7340 21 female R 3 1 3 immoralOther immoralOther match m m 1 0.3726 
05-Jun-2018_13:56:22 Exp 7340 21 female R 3 1 4 immoralOther immoralSelf mismatch n n 1 0.8048 
05-Jun-2018_13:56:24 Exp 7340 21 female R 3 1 5 moralOther moralOther match m m 1 0.6896 
05-Jun-2018_13:56:27 Exp 7340 21 female R 3 1 6 immoralOther moralOther mismatch n n 1 0.7960 
05-Jun-2018_13:56:29 Exp 7340 21 female R 3 1 7 immoralSelf moralSelf mismatch n n 1 0.9566 
05-Jun-2018_13:56:32 Exp 7340 21 female R 3 1 8 moralOther immoralSelf mismatch n NA -1 1.0841 
05-Jun-2018_13:56:34 Exp 7340 21 female R 3 1 9 moralOther moralSelf mismatch n m 0 0.9469 
05-Jun-2018_13:56:37 Exp 7340 21 female R 3 1 10 immoralSelf moralOther mismatch n n 1 0.8985 
05-Jun-2018_13:56:39 Exp 7340 21 female R 3 1 11 moralSelf immoralOther mismatch n n 1 0.8332 
05-Jun-2018_13:56:42 Exp 7340 21 female R 3 1 12 immoralSelf immoralSelf match m n 0 0.6827 
05-Jun-2018_13:56:44 Exp 7340 21 female R 3 1 13 immoralOther moralOther mismatch n n 1 0.6932 
05-Jun-2018_13:56:46 Exp 7340 21 female R 3 1 14 moralSelf moralSelf match m m 1 0.5558 
05-Jun-2018_13:56:48 Exp 7340 21 female R 3 1 15 moralSelf moralSelf match m m 1 0.5278 
05-Jun-2018_13:56:51 Exp 7340 21 female R 3 1 16 moralOther moralOther match m m 1 0.9071 
05-Jun-2018_13:56:53 Exp 7340 21 female R 3 1 17 moralSelf immoralOther mismatch n n 1 0.7580 
05-Jun-2018_13:56:56 Exp 7340 21 female R 3 1 18 moralOther immoralSelf mismatch n n 1 0.8259 
05-Jun-2018_13:56:58 Exp 7340 21 female R 3 1 19 immoralSelf immoralSelf match m m 1 0.4792 
05-Jun-2018_13:57:00 Exp 7340 21 female R 3 1 20 moralSelf moralSelf match m m 1 0.8533 
05-Jun-2018_13:57:03 Exp 7340 21 female R 3 1 21 immoralSelf moralOther mismatch n m 0 0.7791 
05-Jun-2018_13:57:05 Exp 7340 21 female R 3 1 22 moralOther moralOther match m m 1 0.7994 
05-Jun-2018_13:57:08 Exp 7340 21 female R 3 1 23 immoralOther immoralOther match m m 1 0.9561 
05-Jun-2018_13:57:10 Exp 7340 21 female R 3 1 24 moralSelf moralOther mismatch n n 1 1.0001 
05-Jun-2018_13:57:13 Exp 7340 21 female R 3 2 1 immoralSelf immoralSelf match m m 1 1.0369 
05-Jun-2018_13:57:16 Exp 7340 21 female R 3 2 2 immoralOther immoralSelf mismatch n n 1 0.8785 
05-Jun-2018_13:57:18 Exp 7340 21 female R 3 2 3 moralSelf moralSelf match m m 1 0.5006 
05-Jun-2018_13:57:20 Exp 7340 21 female R 3 2 4 immoralSelf immoralSelf match m m 1 0.7793 
05-Jun-2018_13:57:22 Exp 7340 21 female R 3 2 5 moralSelf moralSelf match m m 1 0.5678 
05-Jun-2018_13:57:25 Exp 7340 21 female R 3 2 6 immoralOther moralSelf mismatch n n 1 0.7838 
05-Jun-2018_13:57:27 Exp 7340 21 female R 3 2 7 immoralSelf immoralSelf match m m 1 0.5561 
05-Jun-2018_13:57:30 Exp 7340 21 female R 3 2 8 moralSelf immoralOther mismatch n n 1 0.9599 
05-Jun-2018_13:57:32 Exp 7340 21 female R 3 2 9 moralOther immoralOther mismatch n n 1 0.9719 
05-Jun-2018_13:57:34 Exp 7340 21 female R 3 2 10 immoralSelf moralOther mismatch n m 0 0.5320 
05-Jun-2018_13:57:37 Exp 7340 21 female R 3 2 11 moralOther moralOther match m m 1 0.8155 
05-Jun-2018_13:57:40 Exp 7340 21 female R 3 2 12 moralOther moralOther match m NA -1 1.0841 
05-Jun-2018_13:57:42 Exp 7340 21 female R 3 2 13 moralOther immoralOther mismatch n n 1 0.9868 
05-Jun-2018_13:57:44 Exp 7340 21 female R 3 2 14 immoralSelf immoralOther mismatch n n 1 0.5794 
05-Jun-2018_13:57:47 Exp 7340 21 female R 3 2 15 moralSelf moralSelf match m m 1 0.6078 
05-Jun-2018_13:57:49 Exp 7340 21 female R 3 2 16 moralSelf immoralOther mismatch n n 1 0.6045 
05-Jun-2018_13:57:51 Exp 7340 21 female R 3 2 17 immoralOther immoralOther match m m 1 0.7693 
05-Jun-2018_13:57:54 Exp 7340 21 female R 3 2 18 immoralSelf moralOther mismatch n n 1 0.7534 
05-Jun-2018_13:57:56 Exp 7340 21 female R 3 2 19 moralOther moralOther match m m 1 0.6372 
05-Jun-2018_13:57:58 Exp 7340 21 female R 3 2 20 moralOther immoralOther mismatch n n 1 0.6068 
05-Jun-2018_13:58:00 Exp 7340 21 female R 3 2 21 immoralOther moralOther mismatch n n 1 0.6035 
05-Jun-2018_13:58:03 Exp 7340 21 female R 3 2 22 immoralOther immoralOther match m n 0 0.6006 
05-Jun-2018_13:58:05 Exp 7340 21 female R 3 2 23 immoralOther immoralOther match m m 1 0.5813 
05-Jun-2018_13:58:07 Exp 7340 21 female R 3 2 24 moralSelf moralOther mismatch n n 1 0.5614 
05-Jun-2018_13:58:09 Exp 7340 21 female R 3 3 1 moralSelf moralSelf match m m 1 0.6854 
05-Jun-2018_13:58:12 Exp 7340 21 female R 3 3 2 immoralSelf immoralSelf match m m 1 0.6159 
05-Jun-2018_13:58:14 Exp 7340 21 female R 3 3 3 immoralOther immoralOther match m m 1 0.7448 
05-Jun-2018_13:58:16 Exp 7340 21 female R 3 3 4 immoralSelf moralSelf mismatch n n 1 0.7845 
05-Jun-2018_13:58:19 Exp 7340 21 female R 3 3 5 moralSelf moralSelf match m m 1 0.6928 
05-Jun-2018_13:58:21 Exp 7340 21 female R 3 3 6 moralOther immoralSelf mismatch n n 1 0.7396 
05-Jun-2018_13:58:23 Exp 7340 21 female R 3 3 7 moralOther immoralOther mismatch n n 1 0.7551 
05-Jun-2018_13:58:26 Exp 7340 21 female R 3 3 8 immoralOther moralOther mismatch n NA -1 1.0841 
05-Jun-2018_13:58:29 Exp 7340 21 female R 3 3 9 moralOther moralOther match m n 0 0.8494 
05-Jun-2018_13:58:31 Exp 7340 21 female R 3 3 10 immoralSelf moralOther mismatch n n 1 0.6392 
05-Jun-2018_13:58:33 Exp 7340 21 female R 3 3 11 immoralOther immoralOther match m m 1 0.9607 
05-Jun-2018_13:58:36 Exp 7340 21 female R 3 3 12 moralSelf immoralOther mismatch n n 1 0.6765 
05-Jun-2018_13:58:38 Exp 7340 21 female R 3 3 13 immoralOther immoralOther match m m 1 0.7147 
05-Jun-2018_13:58:41 Exp 7340 21 female R 3 3 14 moralOther moralSelf mismatch n n 1 0.7539 
05-Jun-2018_13:58:43 Exp 7340 21 female R 3 3 15 immoralSelf immoralSelf match m m 1 0.7898 
05-Jun-2018_13:58:45 Exp 7340 21 female R 3 3 16 moralSelf moralOther mismatch n m 0 0.6064 
05-Jun-2018_13:58:48 Exp 7340 21 female R 3 3 17 immoralSelf immoralSelf match m m 1 0.7152 
05-Jun-2018_13:58:50 Exp 7340 21 female R 3 3 18 moralOther moralOther match m m 1 0.8984 
05-Jun-2018_13:58:53 Exp 7340 21 female R 3 3 19 immoralOther moralOther mismatch n n 1 0.9130 
05-Jun-2018_13:58:55 Exp 7340 21 female R 3 3 20 moralSelf moralSelf match m m 1 0.5239 
05-Jun-2018_13:58:57 Exp 7340 21 female R 3 3 21 immoralSelf moralOther mismatch n n 1 0.9151 
05-Jun-2018_13:58:59 Exp 7340 21 female R 3 3 22 moralOther moralOther match m m 1 0.5143 
05-Jun-2018_13:59:02 Exp 7340 21 female R 3 3 23 immoralOther moralOther mismatch n m 0 0.7252 
05-Jun-2018_13:59:04 Exp 7340 21 female R 3 3 24 moralSelf immoralOther mismatch n n 1 0.8043 
05-Jun-2018_13:59:17 Exp 7340 21 female R 3 4 1 moralSelf moralSelf match m m 1 0.6726 
05-Jun-2018_13:59:20 Exp 7340 21 female R 3 4 2 moralOther immoralSelf mismatch n n 1 0.8068 
05-Jun-2018_13:59:22 Exp 7340 21 female R 3 4 3 immoralOther moralSelf mismatch n n 1 0.7157 
05-Jun-2018_13:59:24 Exp 7340 21 female R 3 4 4 moralSelf moralSelf match m m 1 0.4188 
05-Jun-2018_13:59:26 Exp 7340 21 female R 3 4 5 moralOther moralSelf mismatch n n 1 0.6118 
05-Jun-2018_13:59:29 Exp 7340 21 female R 3 4 6 moralSelf moralSelf match m m 1 0.7807 
05-Jun-2018_13:59:31 Exp 7340 21 female R 3 4 7 moralOther immoralSelf mismatch n n 1 0.6811 
05-Jun-2018_13:59:34 Exp 7340 21 female R 3 4 8 moralOther moralOther match m m 1 0.7934 
05-Jun-2018_13:59:36 Exp 7340 21 female R 3 4 9 immoralSelf immoralSelf match m m 1 0.7481 
05-Jun-2018_13:59:39 Exp 7340 21 female R 3 4 10 immoralSelf moralOther mismatch n n 1 0.7399 
05-Jun-2018_13:59:41 Exp 7340 21 female R 3 4 11 immoralOther moralOther mismatch n m 0 0.7333 
05-Jun-2018_13:59:44 Exp 7340 21 female R 3 4 12 immoralSelf moralSelf mismatch n n 1 0.9528 
05-Jun-2018_13:59:46 Exp 7340 21 female R 3 4 13 moralSelf immoralSelf mismatch n n 1 0.8366 
05-Jun-2018_13:59:49 Exp 7340 21 female R 3 4 14 moralOther moralOther match m m 1 0.8160 
05-Jun-2018_13:59:52 Exp 7340 21 female R 3 4 15 immoralSelf immoralOther mismatch n n 1 0.7372 
05-Jun-2018_13:59:54 Exp 7340 21 female R 3 4 16 moralSelf immoralSelf mismatch n n 1 0.8844 
05-Jun-2018_13:59:57 Exp 7340 21 female R 3 4 17 immoralSelf immoralSelf match m m 1 0.8229 
05-Jun-2018_13:59:59 Exp 7340 21 female R 3 4 18 immoralOther immoralOther match m NA -1 1.0841 
05-Jun-2018_14:00:01 Exp 7340 21 female R 3 4 19 moralSelf immoralSelf mismatch n n 1 0.5719 
05-Jun-2018_14:00:04 Exp 7340 21 female R 3 4 20 immoralOther immoralSelf mismatch n n 1 0.7959 
05-Jun-2018_14:00:06 Exp 7340 21 female R 3 4 21 immoralSelf immoralSelf match m n 0 0.8124 
05-Jun-2018_14:00:09 Exp 7340 21 female R 3 4 22 immoralOther immoralOther match m m 1 0.7415 
05-Jun-2018_14:00:11 Exp 7340 21 female R 3 4 23 moralOther moralOther match m m 1 0.7491 
05-Jun-2018_14:00:13 Exp 7340 21 female R 3 4 24 immoralOther immoralOther match m m 1 0.7088 
05-Jun-2018_14:00:16 Exp 7340 21 female R 3 5 1 immoralOther immoralOther match m m 1 0.5757 
05-Jun-2018_14:00:18 Exp 7340 21 female R 3 5 2 moralOther moralOther match m m 1 0.5880 
05-Jun-2018_14:00:20 Exp 7340 21 female R 3 5 3 moralOther moralSelf mismatch n n 1 0.7406 
05-Jun-2018_14:00:23 Exp 7340 21 female R 3 5 4 immoralOther moralOther mismatch n n 1 0.8442 
05-Jun-2018_14:00:25 Exp 7340 21 female R 3 5 5 immoralOther moralSelf mismatch n n 1 0.6420 
05-Jun-2018_14:00:27 Exp 7340 21 female R 3 5 6 moralOther immoralSelf mismatch n n 1 0.7155 
05-Jun-2018_14:00:30 Exp 7340 21 female R 3 5 7 moralOther moralSelf mismatch n n 1 0.6106 
05-Jun-2018_14:00:32 Exp 7340 21 female R 3 5 8 moralSelf immoralOther mismatch n n 1 0.6597 
05-Jun-2018_14:00:34 Exp 7340 21 female R 3 5 9 moralOther moralOther match m m 1 0.6536 
05-Jun-2018_14:00:37 Exp 7340 21 female R 3 5 10 immoralSelf immoralSelf match m m 1 0.7553 
05-Jun-2018_14:00:39 Exp 7340 21 female R 3 5 11 moralSelf immoralOther mismatch n n 1 0.7512 
05-Jun-2018_14:00:42 Exp 7340 21 female R 3 5 12 immoralOther immoralOther match m m 1 0.9551 
05-Jun-2018_14:00:44 Exp 7340 21 female R 3 5 13 immoralSelf moralSelf mismatch n n 1 0.7430 
05-Jun-2018_14:00:46 Exp 7340 21 female R 3 5 14 immoralOther moralSelf mismatch n n 1 0.8467 
05-Jun-2018_14:00:49 Exp 7340 21 female R 3 5 15 moralOther moralOther match m m 1 0.5404 
05-Jun-2018_14:00:51 Exp 7340 21 female R 3 5 16 moralSelf immoralOther mismatch n n 1 0.7000 
05-Jun-2018_14:00:53 Exp 7340 21 female R 3 5 17 moralSelf moralSelf match m m 1 0.6428 
05-Jun-2018_14:00:56 Exp 7340 21 female R 3 5 18 immoralOther immoralOther match m m 1 0.7321 
05-Jun-2018_14:00:58 Exp 7340 21 female R 3 5 19 immoralSelf moralOther mismatch n n 1 0.7568 
05-Jun-2018_14:01:00 Exp 7340 21 female R 3 5 20 immoralSelf immoralSelf match m m 1 0.6007 
05-Jun-2018_14:01:02 Exp 7340 21 female R 3 5 21 immoralSelf immoralSelf match m n 0 0.5894 
05-Jun-2018_14:01:05 Exp 7340 21 female R 3 5 22 moralSelf moralSelf match m m 1 1.0060 
05-Jun-2018_14:01:07 Exp 7340 21 female R 3 5 23 immoralSelf moralOther mismatch n n 1 0.6988 
05-Jun-2018_14:01:10 Exp 7340 21 female R 3 5 24 moralSelf moralSelf match m m 1 0.5695 
Date Prac Sub Age Sex Hand Block Bin Trial Shape Label Match CorrResp Resp ACC RT
05-Jun-2018_14:06:05 Exp 7340 21 female R 1 1 1 immoralSelf immoralSelf match m m 1 1.0605 
05-Jun-2018_14:06:07 Exp 7340 21 female R 1 1 2 moralSelf moralOther mismatch n m 0 0.7586 
05-Jun-2018_14:06:09 Exp 7340 21 female R 1 1 3 moralSelf moralSelf match m m 1 0.5064 
05-Jun-2018_14:06:12 Exp 7340 21 female R 1 1 4 immoralOther immoralSelf mismatch n NA -1 1.0841 
05-Jun-2018_14:06:15 Exp 7340 21 female R 1 1 5 moralOther moralOther match m m 1 0.9838 
05-Jun-2018_14:06:17 Exp 7340 21 female R 1 1 6 immoralSelf moralOther mismatch n NA -1 1.0841 
05-Jun-2018_14:06:19 Exp 7340 21 female R 1 1 7 immoralSelf moralOther mismatch n m 0 0.5266 
05-Jun-2018_14:06:22 Exp 7340 21 female R 1 1 8 moralSelf moralSelf match m m 1 0.5859 
05-Jun-2018_14:06:24 Exp 7340 21 female R 1 1 9 immoralOther immoralOther match m n 0 0.9065 
05-Jun-2018_14:06:27 Exp 7340 21 female R 1 1 10 moralOther moralSelf mismatch n m 0 0.9255 
05-Jun-2018_14:06:29 Exp 7340 21 female R 1 1 11 moralOther moralOther match m m 1 0.6286 
05-Jun-2018_14:06:31 Exp 7340 21 female R 1 1 12 moralSelf immoralSelf mismatch n n 1 0.7779 
05-Jun-2018_14:06:34 Exp 7340 21 female R 1 1 13 immoralSelf immoralOther mismatch n n 1 0.9022 
05-Jun-2018_14:06:36 Exp 7340 21 female R 1 1 14 immoralOther immoralOther match m m 1 0.8689 
05-Jun-2018_14:06:39 Exp 7340 21 female R 1 1 15 immoralSelf immoralSelf match m m 1 0.6831 
05-Jun-2018_14:06:41 Exp 7340 21 female R 1 1 16 moralSelf immoralSelf mismatch n n 1 0.6775 
05-Jun-2018_14:06:44 Exp 7340 21 female R 1 1 17 immoralSelf immoralSelf match m m 1 1.0517 
05-Jun-2018_14:06:46 Exp 7340 21 female R 1 1 18 moralOther moralOther match m NA -1 1.0841 
05-Jun-2018_14:06:49 Exp 7340 21 female R 1 1 19 immoralOther immoralOther match m NA -1 1.0841 
05-Jun-2018_14:06:52 Exp 7340 21 female R 1 1 20 moralSelf moralSelf match m m 1 0.8625 
05-Jun-2018_14:06:54 Exp 7340 21 female R 1 1 21 moralOther moralSelf mismatch n m 0 0.7205 
05-Jun-2018_14:06:56 Exp 7340 21 female R 1 1 22 immoralOther moralSelf mismatch n n 1 0.7036 
05-Jun-2018_14:06:59 Exp 7340 21 female R 1 1 23 moralOther immoralOther mismatch n m 0 0.7545 
05-Jun-2018_14:07:01 Exp 7340 21 female R 1 1 24 immoralOther immoralSelf mismatch n m 0 0.8145 
05-Jun-2018_14:07:04 Exp 7340 21 female R 1 2 1 immoralOther moralSelf mismatch n n 1 0.9274 
05-Jun-2018_14:07:06 Exp 7340 21 female R 1 2 2 moralOther moralOther match m m 1 0.6108 
05-Jun-2018_14:07:08 Exp 7340 21 female R 1 2 3 immoralOther immoralOther match m m 1 0.7799 
05-Jun-2018_14:07:11 Exp 7340 21 female R 1 2 4 moralSelf moralSelf match m m 1 0.6482 
05-Jun-2018_14:07:13 Exp 7340 21 female R 1 2 5 immoralSelf immoralSelf match m m 1 0.8779 
05-Jun-2018_14:07:15 Exp 7340 21 female R 1 2 6 moralOther moralOther match m m 1 0.5882 
05-Jun-2018_14:07:18 Exp 7340 21 female R 1 2 7 moralOther moralOther match m m 1 0.6687 
05-Jun-2018_14:07:20 Exp 7340 21 female R 1 2 8 moralSelf moralSelf match m m 1 0.6589 
05-Jun-2018_14:07:22 Exp 7340 21 female R 1 2 9 immoralSelf moralSelf mismatch n n 1 0.7009 
05-Jun-2018_14:07:25 Exp 7340 21 female R 1 2 10 moralSelf immoralSelf mismatch n n 1 1.0356 
05-Jun-2018_14:07:27 Exp 7340 21 female R 1 2 11 moralSelf immoralSelf mismatch n m 0 0.7652 
05-Jun-2018_14:07:30 Exp 7340 21 female R 1 2 12 immoralSelf moralSelf mismatch n NA -1 1.0841 
05-Jun-2018_14:07:32 Exp 7340 21 female R 1 2 13 moralOther immoralOther mismatch n n 1 0.7276 
05-Jun-2018_14:07:35 Exp 7340 21 female R 1 2 14 moralSelf immoralSelf mismatch n n 1 0.8350 
05-Jun-2018_14:07:38 Exp 7340 21 female R 1 2 15 immoralOther immoralSelf mismatch n n 1 0.9806 
05-Jun-2018_14:07:40 Exp 7340 21 female R 1 2 16 moralOther moralSelf mismatch n n 1 0.8409 
05-Jun-2018_14:07:42 Exp 7340 21 female R 1 2 17 moralSelf moralSelf match m m 1 0.7224 
05-Jun-2018_14:07:45 Exp 7340 21 female R 1 2 18 immoralSelf immoralSelf match m m 1 0.9456 
05-Jun-2018_14:07:47 Exp 7340 21 female R 1 2 19 immoralOther immoralOther match m m 1 0.6892 
05-Jun-2018_14:07:50 Exp 7340 21 female R 1 2 20 moralOther immoralOther mismatch n n 1 0.6757 
05-Jun-2018_14:07:52 Exp 7340 21 female R 1 2 21 immoralOther moralOther mismatch n n 1 0.9779 
05-Jun-2018_14:07:55 Exp 7340 21 female R 1 2 22 immoralOther immoralOther match m m 1 0.9582 
05-Jun-2018_14:07:57 Exp 7340 21 female R 1 2 23 immoralSelf immoralSelf match m m 1 0.7781 
05-Jun-2018_14:08:00 Exp 7340 21 female R 1 2 24 immoralSelf moralOther mismatch n m 0 0.7669 
Date Prac Sub Age Sex Hand Block Bin Trial Shape Label Match CorrResp Resp ACC RT
05-Jun-2018_14:12:17 Exp 7340 21 female R 1 1 1 immoralSelf immoralSelf match m m 1 0.6767 
05-Jun-2018_14:12:19 Exp 7340 21 female R 1 1 2 moralOther immoralOther mismatch n n 1 0.7471 
05-Jun-2018_14:12:21 Exp 7340 21 female R 1 1 3 moralOther moralSelf mismatch n m 0 0.5627 
05-Jun-2018_14:12:24 Exp 7340 21 female R 1 1 4 immoralSelf immoralSelf match m m 1 0.6507 
05-Jun-2018_14:12:26 Exp 7340 21 female R 1 1 5 moralOther moralOther match m NA -1 1.0841 
05-Jun-2018_14:12:29 Exp 7340 21 female R 1 1 6 moralSelf immoralSelf mismatch n n 1 0.8589 
05-Jun-2018_14:12:31 Exp 7340 21 female R 1 1 7 immoralSelf immoralSelf match m m 1 0.8929 
05-Jun-2018_14:12:34 Exp 7340 21 female R 1 1 8 moralSelf immoralOther mismatch n m 0 0.8596 
05-Jun-2018_14:12:36 Exp 7340 21 female R 1 1 9 moralSelf immoralSelf mismatch n n 1 0.7576 
05-Jun-2018_14:12:38 Exp 7340 21 female R 1 1 10 immoralOther immoralOther match m n 0 0.4094 
05-Jun-2018_14:12:41 Exp 7340 21 female R 1 1 11 immoralOther moralSelf mismatch n n 1 0.8745 
05-Jun-2018_14:12:43 Exp 7340 21 female R 1 1 12 immoralOther moralSelf mismatch n n 1 0.9128 
05-Jun-2018_14:12:46 Exp 7340 21 female R 1 1 13 moralSelf moralSelf match m m 1 0.6357 
05-Jun-2018_14:12:48 Exp 7340 21 female R 1 1 14 immoralSelf moralSelf mismatch n n 1 0.8051 
05-Jun-2018_14:12:50 Exp 7340 21 female R 1 1 15 moralSelf moralSelf match m m 1 0.4819 
05-Jun-2018_14:12:53 Exp 7340 21 female R 1 1 16 immoralOther immoralOther match m m 1 0.9803 
05-Jun-2018_14:12:55 Exp 7340 21 female R 1 1 17 moralOther moralOther match m m 1 0.7927 
05-Jun-2018_14:12:57 Exp 7340 21 female R 1 1 18 moralSelf moralSelf match m m 1 0.5213 
05-Jun-2018_14:13:00 Exp 7340 21 female R 1 1 19 moralOther moralOther match m m 1 0.6324 
05-Jun-2018_14:13:02 Exp 7340 21 female R 1 1 20 immoralOther immoralSelf mismatch n n 1 0.6979 
05-Jun-2018_14:13:04 Exp 7340 21 female R 1 1 21 immoralOther immoralOther match m m 1 0.5206 
05-Jun-2018_14:13:07 Exp 7340 21 female R 1 1 22 moralOther immoralSelf mismatch n m 0 0.7597 
05-Jun-2018_14:13:09 Exp 7340 21 female R 1 1 23 immoralSelf moralOther mismatch n n 1 0.7797 
05-Jun-2018_14:13:11 Exp 7340 21 female R 1 1 24 immoralSelf immoralOther mismatch n n 1 0.4960 
05-Jun-2018_14:13:13 Exp 7340 21 female R 1 2 1 immoralSelf immoralSelf match m m 1 0.6067 
05-Jun-2018_14:13:16 Exp 7340 21 female R 1 2 2 immoralOther moralOther mismatch n n 1 0.7794 
05-Jun-2018_14:13:18 Exp 7340 21 female R 1 2 3 immoralOther moralOther mismatch n n 1 0.5918 
05-Jun-2018_14:13:20 Exp 7340 21 female R 1 2 4 moralOther moralOther match m m 1 0.5523 
05-Jun-2018_14:13:23 Exp 7340 21 female R 1 2 5 immoralSelf moralSelf mismatch n n 1 0.7882 
05-Jun-2018_14:13:25 Exp 7340 21 female R 1 2 6 immoralSelf moralOther mismatch n n 1 0.6128 
05-Jun-2018_14:13:27 Exp 7340 21 female R 1 2 7 immoralOther immoralOther match m m 1 0.7098 
05-Jun-2018_14:13:29 Exp 7340 21 female R 1 2 8 moralSelf moralSelf match m m 1 0.5447 
05-Jun-2018_14:13:32 Exp 7340 21 female R 1 2 9 immoralSelf immoralSelf match m m 1 1.0564 
05-Jun-2018_14:13:34 Exp 7340 21 female R 1 2 10 immoralSelf immoralSelf match m m 1 0.4503 
05-Jun-2018_14:13:37 Exp 7340 21 female R 1 2 11 moralSelf immoralSelf mismatch n n 1 0.8240 
05-Jun-2018_14:13:39 Exp 7340 21 female R 1 2 12 moralSelf moralSelf match m m 1 0.4454 
05-Jun-2018_14:13:41 Exp 7340 21 female R 1 2 13 moralSelf moralOther mismatch n m 0 0.6590 
05-Jun-2018_14:13:43 Exp 7340 21 female R 1 2 14 moralSelf immoralSelf mismatch n n 1 0.7170 
05-Jun-2018_14:13:45 Exp 7340 21 female R 1 2 15 immoralSelf moralSelf mismatch n m 0 0.4443 
05-Jun-2018_14:13:48 Exp 7340 21 female R 1 2 16 moralOther immoralSelf mismatch n n 1 0.5620 
05-Jun-2018_14:13:50 Exp 7340 21 female R 1 2 17 moralOther immoralOther mismatch n n 1 0.7619 
05-Jun-2018_14:13:52 Exp 7340 21 female R 1 2 18 immoralOther moralSelf mismatch n n 1 0.6662 
05-Jun-2018_14:13:55 Exp 7340 21 female R 1 2 19 moralOther moralSelf mismatch n n 1 0.5402 
05-Jun-2018_14:13:57 Exp 7340 21 female R 1 2 20 immoralOther immoralOther match m m 1 0.9557 
05-Jun-2018_14:14:00 Exp 7340 21 female R 1 2 21 moralOther moralOther match m m 1 0.8901 
05-Jun-2018_14:14:02 Exp 7340 21 female R 1 2 22 immoralOther immoralOther match m m 1 0.8125 
05-Jun-2018_14:14:04 Exp 7340 21 female R 1 2 23 moralSelf moralSelf match m m 1 0.5094 
05-Jun-2018_14:14:07 Exp 7340 21 female R 1 2 24 moralOther moralOther match m m 1 0.6163 
Date Prac Sub Age Sex Hand Block Bin Trial Shape Label Match CorrResp Resp ACC RT
05-Jun-2018_14:18:23 Exp 7340 21 female R 1 1 1 moralOther moralOther match m n 0 0.8410 
05-Jun-2018_14:18:26 Exp 7340 21 female R 1 1 2 moralSelf immoralOther mismatch n n 1 0.6347 
05-Jun-2018_14:18:28 Exp 7340 21 female R 1 1 3 moralOther moralSelf mismatch n m 0 0.4441 
05-Jun-2018_14:18:30 Exp 7340 21 female R 1 1 4 moralOther immoralSelf mismatch n n 1 0.7176 
05-Jun-2018_14:18:32 Exp 7340 21 female R 1 1 5 immoralOther moralSelf mismatch n n 1 0.6767 
05-Jun-2018_14:18:35 Exp 7340 21 female R 1 1 6 moralOther immoralSelf mismatch n n 1 1.0430 
05-Jun-2018_14:18:37 Exp 7340 21 female R 1 1 7 immoralOther immoralOther match m m 1 0.7245 
05-Jun-2018_14:18:40 Exp 7340 21 female R 1 1 8 immoralOther moralSelf mismatch n n 1 0.6357 
05-Jun-2018_14:18:42 Exp 7340 21 female R 1 1 9 immoralSelf moralSelf mismatch n n 1 0.7091 
05-Jun-2018_14:18:44 Exp 7340 21 female R 1 1 10 immoralOther immoralOther match m m 1 0.7680 
05-Jun-2018_14:18:47 Exp 7340 21 female R 1 1 11 immoralSelf immoralSelf match m m 1 0.7922 
05-Jun-2018_14:18:49 Exp 7340 21 female R 1 1 12 moralSelf moralOther mismatch n m 0 0.4807 
05-Jun-2018_14:18:51 Exp 7340 21 female R 1 1 13 immoralOther immoralOther match m n 0 0.6512 
05-Jun-2018_14:18:53 Exp 7340 21 female R 1 1 14 moralSelf immoralOther mismatch n m 0 0.7049 
05-Jun-2018_14:18:56 Exp 7340 21 female R 1 1 15 immoralSelf immoralSelf match m m 1 0.6199 
05-Jun-2018_14:18:58 Exp 7340 21 female R 1 1 16 immoralOther moralSelf mismatch n n 1 0.6129 
05-Jun-2018_14:19:00 Exp 7340 21 female R 1 1 17 immoralSelf immoralSelf match m m 1 0.6699 
05-Jun-2018_14:19:03 Exp 7340 21 female R 1 1 18 immoralSelf moralSelf mismatch n n 1 0.7561 
05-Jun-2018_14:19:05 Exp 7340 21 female R 1 1 19 immoralSelf moralSelf mismatch n m 0 0.6000 
05-Jun-2018_14:19:08 Exp 7340 21 female R 1 1 20 moralOther moralOther match m m 1 0.9968 
05-Jun-2018_14:19:10 Exp 7340 21 female R 1 1 21 moralSelf moralSelf match m m 1 0.7574 
05-Jun-2018_14:19:12 Exp 7340 21 female R 1 1 22 moralSelf moralSelf match m m 1 0.4492 
05-Jun-2018_14:19:14 Exp 7340 21 female R 1 1 23 moralSelf moralSelf match m m 1 0.4949 
05-Jun-2018_14:19:16 Exp 7340 21 female R 1 1 24 moralOther moralOther match m m 1 0.5976 
05-Jun-2018_14:19:19 Exp 7340 21 female R 1 2 1 immoralSelf moralOther mismatch n n 1 0.6591 
05-Jun-2018_14:19:21 Exp 7340 21 female R 1 2 2 immoralSelf immoralSelf match m m 1 0.4605 
05-Jun-2018_14:19:23 Exp 7340 21 female R 1 2 3 moralOther immoralOther mismatch n n 1 0.8544 
05-Jun-2018_14:19:25 Exp 7340 21 female R 1 2 4 immoralOther immoralOther match m n 0 0.4522 
05-Jun-2018_14:19:28 Exp 7340 21 female R 1 2 5 immoralOther moralSelf mismatch n n 1 0.6899 
05-Jun-2018_14:19:30 Exp 7340 21 female R 1 2 6 immoralOther immoralOther match m m 1 0.6043 
05-Jun-2018_14:19:32 Exp 7340 21 female R 1 2 7 moralOther moralOther match m m 1 0.9691 
05-Jun-2018_14:19:35 Exp 7340 21 female R 1 2 8 immoralOther immoralSelf mismatch n n 1 0.9933 
05-Jun-2018_14:19:37 Exp 7340 21 female R 1 2 9 moralOther moralOther match m m 1 0.4338 
05-Jun-2018_14:19:40 Exp 7340 21 female R 1 2 10 immoralSelf immoralSelf match m n 0 0.7554 
05-Jun-2018_14:19:42 Exp 7340 21 female R 1 2 11 moralSelf immoralOther mismatch n n 1 0.6872 
05-Jun-2018_14:19:44 Exp 7340 21 female R 1 2 12 immoralSelf moralSelf mismatch n n 1 0.8736 
05-Jun-2018_14:19:47 Exp 7340 21 female R 1 2 13 immoralSelf immoralSelf match m m 1 0.7119 
05-Jun-2018_14:19:49 Exp 7340 21 female R 1 2 14 moralSelf immoralOther mismatch n n 1 0.6667 
05-Jun-2018_14:19:51 Exp 7340 21 female R 1 2 15 moralOther moralOther match m m 1 0.8287 
05-Jun-2018_14:19:54 Exp 7340 21 female R 1 2 16 moralSelf moralSelf match m m 1 0.7300 
05-Jun-2018_14:19:56 Exp 7340 21 female R 1 2 17 moralOther moralSelf mismatch n n 1 0.7335 
05-Jun-2018_14:19:58 Exp 7340 21 female R 1 2 18 moralSelf moralSelf match m m 1 0.6328 
05-Jun-2018_14:20:01 Exp 7340 21 female R 1 2 19 moralSelf immoralSelf mismatch n n 1 0.5623 
05-Jun-2018_14:20:03 Exp 7340 21 female R 1 2 20 moralOther immoralSelf mismatch n n 1 0.7944 
05-Jun-2018_14:20:06 Exp 7340 21 female R 1 2 21 immoralSelf moralSelf mismatch n n 1 0.9870 
05-Jun-2018_14:20:08 Exp 7340 21 female R 1 2 22 immoralOther immoralSelf mismatch n n 1 0.7716 
05-Jun-2018_14:20:10 Exp 7340 21 female R 1 2 23 moralSelf moralSelf match m m 1 0.5716 
05-Jun-2018_14:20:13 Exp 7340 21 female R 1 2 24 immoralOther immoralOther match m m 1 0.9078 
Date Prac Sub Age Sex Hand Block Bin Trial Shape Label Match CorrResp Resp ACC RT
05-Jun-2018_14:24:32 Exp 7340 21 female R 1 1 1 immoralOther moralOther mismatch n n 1 0.8153 
05-Jun-2018_14:24:34 Exp 7340 21 female R 1 1 2 immoralOther immoralOther match m m 1 0.3765 
05-Jun-2018_14:24:36 Exp 7340 21 female R 1 1 3 moralOther moralOther match m m 1 0.4848 
05-Jun-2018_14:24:38 Exp 7340 21 female R 1 1 4 moralOther moralOther match m m 1 0.4952 
05-Jun-2018_14:24:40 Exp 7340 21 female R 1 1 5 moralOther moralOther match m m 1 0.3740 
05-Jun-2018_14:24:43 Exp 7340 21 female R 1 1 6 immoralSelf moralSelf mismatch n n 1 0.7062 
05-Jun-2018_14:24:45 Exp 7340 21 female R 1 1 7 moralSelf moralSelf match m m 1 0.3332 
05-Jun-2018_14:24:47 Exp 7340 21 female R 1 1 8 immoralOther immoralOther match m n 0 0.4966 
05-Jun-2018_14:24:49 Exp 7340 21 female R 1 1 9 moralOther immoralOther mismatch n n 1 0.9272 
05-Jun-2018_14:24:52 Exp 7340 21 female R 1 1 10 moralOther moralSelf mismatch n NA -1 1.0841 
05-Jun-2018_14:24:55 Exp 7340 21 female R 1 1 11 immoralOther immoralSelf mismatch n n 1 0.9411 
05-Jun-2018_14:24:57 Exp 7340 21 female R 1 1 12 immoralSelf moralSelf mismatch n n 1 0.8127 
05-Jun-2018_14:25:00 Exp 7340 21 female R 1 1 13 moralSelf immoralSelf mismatch n n 1 0.6980 
05-Jun-2018_14:25:02 Exp 7340 21 female R 1 1 14 moralSelf moralSelf match m m 1 0.4887 
05-Jun-2018_14:25:04 Exp 7340 21 female R 1 1 15 moralSelf moralOther mismatch n n 1 0.6752 
05-Jun-2018_14:25:06 Exp 7340 21 female R 1 1 16 immoralOther immoralOther match m m 1 0.8013 
05-Jun-2018_14:25:09 Exp 7340 21 female R 1 1 17 immoralSelf immoralSelf match m m 1 0.9581 
05-Jun-2018_14:25:11 Exp 7340 21 female R 1 1 18 immoralSelf immoralSelf match m m 1 0.4981 
05-Jun-2018_14:25:13 Exp 7340 21 female R 1 1 19 moralOther immoralOther mismatch n n 1 0.6807 
05-Jun-2018_14:25:16 Exp 7340 21 female R 1 1 20 immoralSelf moralOther mismatch n n 1 0.9631 
05-Jun-2018_14:25:18 Exp 7340 21 female R 1 1 21 immoralSelf immoralSelf match m m 1 0.5231 
05-Jun-2018_14:25:21 Exp 7340 21 female R 1 1 22 moralSelf moralOther mismatch n n 1 0.8745 
05-Jun-2018_14:25:23 Exp 7340 21 female R 1 1 23 moralSelf moralSelf match m m 1 0.5526 
05-Jun-2018_14:25:25 Exp 7340 21 female R 1 1 24 immoralOther moralOther mismatch n n 1 0.6845 
05-Jun-2018_14:25:28 Exp 7340 21 female R 1 2 1 immoralOther immoralSelf mismatch n m 0 0.9109 
05-Jun-2018_14:25:30 Exp 7340 21 female R 1 2 2 moralSelf immoralSelf mismatch n n 1 0.8098 
05-Jun-2018_14:25:33 Exp 7340 21 female R 1 2 3 immoralSelf moralSelf mismatch n n 1 0.8349 
05-Jun-2018_14:25:35 Exp 7340 21 female R 1 2 4 moralOther moralOther match m m 1 0.7485 
05-Jun-2018_14:25:37 Exp 7340 21 female R 1 2 5 immoralSelf immoralSelf match m m 1 0.7880 
05-Jun-2018_14:25:40 Exp 7340 21 female R 1 2 6 moralSelf moralSelf match m m 1 0.5807 
05-Jun-2018_14:25:42 Exp 7340 21 female R 1 2 7 moralSelf immoralOther mismatch n n 1 0.7529 
05-Jun-2018_14:25:45 Exp 7340 21 female R 1 2 8 immoralOther moralSelf mismatch n n 1 0.8208 
05-Jun-2018_14:25:47 Exp 7340 21 female R 1 2 9 immoralSelf immoralSelf match m n 0 0.8900 
05-Jun-2018_14:25:49 Exp 7340 21 female R 1 2 10 moralSelf immoralSelf mismatch n n 1 0.6766 
05-Jun-2018_14:25:52 Exp 7340 21 female R 1 2 11 immoralOther moralOther mismatch n n 1 0.7627 
05-Jun-2018_14:25:54 Exp 7340 21 female R 1 2 12 moralSelf moralSelf match m m 1 0.4828 
05-Jun-2018_14:25:56 Exp 7340 21 female R 1 2 13 moralOther immoralSelf mismatch n n 1 0.6853 
05-Jun-2018_14:25:59 Exp 7340 21 female R 1 2 14 immoralOther immoralOther match m m 1 0.7118 
05-Jun-2018_14:26:01 Exp 7340 21 female R 1 2 15 moralOther immoralOther mismatch n n 1 0.7707 
05-Jun-2018_14:26:04 Exp 7340 21 female R 1 2 16 immoralOther immoralOther match m m 1 0.9867 
05-Jun-2018_14:26:06 Exp 7340 21 female R 1 2 17 moralOther moralOther match m n 0 0.8193 
05-Jun-2018_14:26:09 Exp 7340 21 female R 1 2 18 immoralSelf immoralOther mismatch n n 1 0.9644 
05-Jun-2018_14:26:11 Exp 7340 21 female R 1 2 19 immoralSelf immoralSelf match m m 1 0.6285 
05-Jun-2018_14:26:13 Exp 7340 21 female R 1 2 20 moralOther immoralSelf mismatch n n 1 0.6738 
05-Jun-2018_14:26:16 Exp 7340 21 female R 1 2 21 immoralSelf moralSelf mismatch n n 1 0.8080 
05-Jun-2018_14:26:18 Exp 7340 21 female R 1 2 22 immoralOther immoralOther match m m 1 0.6608 
05-Jun-2018_14:26:20 Exp 7340 21 female R 1 2 23 moralOther moralOther match m m 1 0.8947 
05-Jun-2018_14:26:23 Exp 7340 21 female R 1 2 24 moralSelf moralSelf match m m 1 0.5736 
Date Prac Sub Age Sex Hand Block Bin Trial Shape Label Match CorrResp Resp ACC RT
05-Jun-2018_14:32:11 Exp 7340 21 female R 1 1 1 immoralOther moralOther mismatch n n 1 0.6890 
05-Jun-2018_14:32:13 Exp 7340 21 female R 1 1 2 immoralOther immoralSelf mismatch n n 1 0.8116 
05-Jun-2018_14:32:16 Exp 7340 21 female R 1 1 3 immoralSelf immoralSelf match m m 1 0.8046 
05-Jun-2018_14:32:18 Exp 7340 21 female R 1 1 4 immoralOther immoralOther match m m 1 0.6654 
05-Jun-2018_14:32:20 Exp 7340 21 female R 1 1 5 moralOther immoralSelf mismatch n n 1 0.6355 
05-Jun-2018_14:32:23 Exp 7340 21 female R 1 1 6 immoralSelf immoralSelf match m m 1 0.9090 
05-Jun-2018_14:32:25 Exp 7340 21 female R 1 1 7 moralSelf moralSelf match m m 1 0.5999 
05-Jun-2018_14:32:27 Exp 7340 21 female R 1 1 8 moralOther moralOther match m m 1 0.5566 
05-Jun-2018_14:32:30 Exp 7340 21 female R 1 1 9 immoralSelf immoralOther mismatch n n 1 0.7205 
05-Jun-2018_14:32:32 Exp 7340 21 female R 1 1 10 moralOther moralOther match m n 0 0.7116 
05-Jun-2018_14:32:34 Exp 7340 21 female R 1 1 11 immoralSelf immoralOther mismatch n n 1 0.7546 
05-Jun-2018_14:32:37 Exp 7340 21 female R 1 1 12 moralOther immoralOther mismatch n n 1 0.8304 
05-Jun-2018_14:32:39 Exp 7340 21 female R 1 1 13 moralSelf immoralSelf mismatch n n 1 0.8598 
05-Jun-2018_14:32:42 Exp 7340 21 female R 1 1 14 moralOther immoralOther mismatch n n 1 0.6217 
05-Jun-2018_14:32:44 Exp 7340 21 female R 1 1 15 moralSelf moralSelf match m m 1 0.5069 
05-Jun-2018_14:32:46 Exp 7340 21 female R 1 1 16 immoralSelf immoralOther mismatch n n 1 0.7420 
05-Jun-2018_14:32:49 Exp 7340 21 female R 1 1 17 immoralSelf immoralSelf match m m 1 0.7495 
05-Jun-2018_14:32:51 Exp 7340 21 female R 1 1 18 moralSelf moralOther mismatch n m 0 0.5092 
05-Jun-2018_14:32:53 Exp 7340 21 female R 1 1 19 immoralOther moralOther mismatch n n 1 0.8560 
05-Jun-2018_14:32:55 Exp 7340 21 female R 1 1 20 moralSelf moralSelf match m m 1 0.5860 
05-Jun-2018_14:32:58 Exp 7340 21 female R 1 1 21 immoralOther immoralOther match m m 1 0.8219 
05-Jun-2018_14:33:01 Exp 7340 21 female R 1 1 22 immoralOther immoralOther match m m 1 1.0512 
05-Jun-2018_14:33:03 Exp 7340 21 female R 1 1 23 moralSelf immoralOther mismatch n n 1 0.7529 
05-Jun-2018_14:33:06 Exp 7340 21 female R 1 1 24 moralOther moralOther match m m 1 0.8209 
05-Jun-2018_14:33:08 Exp 7340 21 female R 1 2 1 immoralOther immoralOther match m m 1 0.7780 
05-Jun-2018_14:33:10 Exp 7340 21 female R 1 2 2 moralOther moralOther match m m 1 0.7744 
05-Jun-2018_14:33:13 Exp 7340 21 female R 1 2 3 immoralOther immoralOther match m m 1 0.5308 
05-Jun-2018_14:33:15 Exp 7340 21 female R 1 2 4 moralSelf moralSelf match m m 1 0.5021 
05-Jun-2018_14:33:17 Exp 7340 21 female R 1 2 5 moralSelf moralSelf match m m 1 0.4769 
05-Jun-2018_14:33:19 Exp 7340 21 female R 1 2 6 immoralSelf moralSelf mismatch n n 1 0.6270 
05-Jun-2018_14:33:22 Exp 7340 21 female R 1 2 7 immoralSelf immoralOther mismatch n n 1 0.8883 
05-Jun-2018_14:33:24 Exp 7340 21 female R 1 2 8 immoralOther moralOther mismatch n n 1 0.8267 
05-Jun-2018_14:33:27 Exp 7340 21 female R 1 2 9 moralSelf immoralSelf mismatch n NA -1 1.0841 
05-Jun-2018_14:33:29 Exp 7340 21 female R 1 2 10 immoralOther immoralOther match m m 1 0.6585 
05-Jun-2018_14:33:31 Exp 7340 21 female R 1 2 11 moralOther moralOther match m m 1 0.6925 
05-Jun-2018_14:33:34 Exp 7340 21 female R 1 2 12 moralOther immoralOther mismatch n n 1 0.5632 
05-Jun-2018_14:33:36 Exp 7340 21 female R 1 2 13 moralSelf moralOther mismatch n m 0 0.5953 
05-Jun-2018_14:33:38 Exp 7340 21 female R 1 2 14 immoralSelf immoralOther mismatch n n 1 0.7238 
05-Jun-2018_14:33:41 Exp 7340 21 female R 1 2 15 moralOther immoralSelf mismatch n n 1 0.7231 
05-Jun-2018_14:33:43 Exp 7340 21 female R 1 2 16 moralOther moralSelf mismatch n n 1 0.6261 
05-Jun-2018_14:33:45 Exp 7340 21 female R 1 2 17 immoralOther moralSelf mismatch n n 1 0.5754 
05-Jun-2018_14:33:48 Exp 7340 21 female R 1 2 18 immoralSelf immoralSelf match m m 1 0.9317 
05-Jun-2018_14:33:50 Exp 7340 21 female R 1 2 19 moralSelf moralOther mismatch n n 1 0.7751 
05-Jun-2018_14:33:52 Exp 7340 21 female R 1 2 20 immoralSelf immoralSelf match m n 0 0.7394 
05-Jun-2018_14:33:55 Exp 7340 21 female R 1 2 21 moralOther moralOther match m m 1 0.8271 
05-Jun-2018_14:33:57 Exp 7340 21 female R 1 2 22 immoralSelf immoralSelf match m m 1 0.6563 
05-Jun-2018_14:34:00 Exp 7340 21 female R 1 2 23 moralSelf moralSelf match m m 1 0.7129 
05-Jun-2018_14:34:02 Exp 7340 21 female R 1 2 24 immoralOther moralSelf mismatch n n 1 0.5959 
