Date Sub Age Sex Hand Block Bin Trial Task Shape corrResp Resp ACC RT
19-May-2018_15:41:50 7324 19 female R 1 1 1 self moralOther J j 1 0.8849 
19-May-2018_15:41:52 7324 19 female R 1 1 2 self moralOther J j 1 0.6446 
19-May-2018_15:41:54 7324 19 female R 1 1 3 self moralSelf H h 1 0.6117 
19-May-2018_15:41:56 7324 19 female R 1 1 4 self immoralOther J j 1 0.7379 
19-May-2018_15:41:58 7324 19 female R 1 1 5 self moralSelf H h 1 0.5845 
19-May-2018_15:41:59 7324 19 female R 1 1 6 self immoralSelf H h 1 0.4665 
19-May-2018_15:42:00 7324 19 female R 1 1 7 self immoralOther J j 1 0.5193 
19-May-2018_15:42:02 7324 19 female R 1 1 8 self immoralOther J j 1 0.4458 
19-May-2018_15:42:04 7324 19 female R 1 1 9 self immoralSelf H h 1 0.5702 
19-May-2018_15:42:06 7324 19 female R 1 1 10 self immoralOther J j 1 0.4841 
19-May-2018_15:42:08 7324 19 female R 1 1 11 self immoralOther J j 1 0.5849 
19-May-2018_15:42:10 7324 19 female R 1 1 12 self immoralSelf H h 1 0.4862 
19-May-2018_15:42:12 7324 19 female R 1 1 13 self moralOther J j 1 0.8114 
19-May-2018_15:42:13 7324 19 female R 1 1 14 self immoralSelf H j 0 0.5394 
19-May-2018_15:42:15 7324 19 female R 1 1 15 self moralOther J j 1 0.9617 
19-May-2018_15:42:17 7324 19 female R 1 1 16 self immoralSelf H h 1 0.5029 
19-May-2018_15:42:19 7324 19 female R 1 1 17 self moralSelf H h 1 0.6093 
19-May-2018_15:42:21 7324 19 female R 1 1 18 self moralSelf H h 1 0.4260 
19-May-2018_15:42:22 7324 19 female R 1 1 19 self moralOther J h 0 0.4086 
19-May-2018_15:42:24 7324 19 female R 1 1 20 self moralOther J j 1 0.5742 
19-May-2018_15:42:25 7324 19 female R 1 1 21 self moralSelf H h 1 0.5973 
19-May-2018_15:42:27 7324 19 female R 1 1 22 self immoralOther J j 1 0.5424 
19-May-2018_15:42:29 7324 19 female R 1 1 23 self immoralSelf H h 1 0.4050 
19-May-2018_15:42:31 7324 19 female R 1 1 24 self moralSelf H h 1 0.6103 
19-May-2018_15:42:33 7324 19 female R 1 2 1 self moralSelf H h 1 0.5181 
19-May-2018_15:42:34 7324 19 female R 1 2 2 self moralSelf H h 1 0.3649 
19-May-2018_15:42:36 7324 19 female R 1 2 3 self moralSelf H h 1 0.4651 
19-May-2018_15:42:37 7324 19 female R 1 2 4 self moralOther J h 0 0.3499 
19-May-2018_15:42:39 7324 19 female R 1 2 5 self moralSelf H h 1 0.4699 
19-May-2018_15:42:41 7324 19 female R 1 2 6 self moralOther J j 1 0.4332 
19-May-2018_15:42:42 7324 19 female R 1 2 7 self moralOther J j 1 0.4658 
19-May-2018_15:42:44 7324 19 female R 1 2 8 self immoralSelf H h 1 0.5237 
19-May-2018_15:42:46 7324 19 female R 1 2 9 self immoralOther J j 1 0.6490 
19-May-2018_15:42:48 7324 19 female R 1 2 10 self immoralOther J j 1 0.7211 
19-May-2018_15:42:50 7324 19 female R 1 2 11 self moralOther J j 1 0.5278 
19-May-2018_15:42:52 7324 19 female R 1 2 12 self immoralSelf H h 1 0.4530 
19-May-2018_15:42:53 7324 19 female R 1 2 13 self immoralSelf H h 1 0.4493 
19-May-2018_15:42:55 7324 19 female R 1 2 14 self immoralSelf H h 1 0.4757 
19-May-2018_15:42:57 7324 19 female R 1 2 15 self immoralOther J h 0 0.4669 
19-May-2018_15:42:59 7324 19 female R 1 2 16 self immoralOther J NA -1 1.1561 
19-May-2018_15:43:01 7324 19 female R 1 2 17 self moralSelf H h 1 0.7282 
19-May-2018_15:43:03 7324 19 female R 1 2 18 self immoralSelf H h 1 0.6172 
19-May-2018_15:43:04 7324 19 female R 1 2 19 self moralOther J h 0 0.3226 
19-May-2018_15:43:06 7324 19 female R 1 2 20 self immoralOther J j 1 0.5937 
19-May-2018_15:43:08 7324 19 female R 1 2 21 self moralSelf H h 1 0.5971 
19-May-2018_15:43:10 7324 19 female R 1 2 22 self immoralOther J j 1 0.5850 
19-May-2018_15:43:12 7324 19 female R 1 2 23 self immoralSelf H h 1 0.3973 
19-May-2018_15:43:13 7324 19 female R 1 2 24 self moralOther J j 1 0.5658 
19-May-2018_15:43:20 7324 19 female R 1 3 1 self immoralOther J j 1 0.6395 
19-May-2018_15:43:22 7324 19 female R 1 3 2 self immoralSelf H h 1 0.6504 
19-May-2018_15:43:24 7324 19 female R 1 3 3 self immoralOther J j 1 0.6627 
19-May-2018_15:43:25 7324 19 female R 1 3 4 self immoralSelf H h 1 0.5569 
19-May-2018_15:43:27 7324 19 female R 1 3 5 self immoralOther J j 1 0.5278 
19-May-2018_15:43:29 7324 19 female R 1 3 6 self immoralSelf H h 1 0.5467 
19-May-2018_15:43:30 7324 19 female R 1 3 7 self immoralSelf H h 1 0.5523 
19-May-2018_15:43:32 7324 19 female R 1 3 8 self immoralOther J j 1 0.7233 
19-May-2018_15:43:34 7324 19 female R 1 3 9 self moralOther J j 1 0.8692 
19-May-2018_15:43:36 7324 19 female R 1 3 10 self moralSelf H h 1 0.3705 
19-May-2018_15:43:38 7324 19 female R 1 3 11 self moralOther J j 1 0.7791 
19-May-2018_15:43:40 7324 19 female R 1 3 12 self moralSelf H h 1 0.5151 
19-May-2018_15:43:42 7324 19 female R 1 3 13 self moralSelf H h 1 0.8060 
19-May-2018_15:43:44 7324 19 female R 1 3 14 self moralOther J j 1 0.4531 
19-May-2018_15:43:45 7324 19 female R 1 3 15 self immoralSelf H j 0 0.6424 
19-May-2018_15:43:48 7324 19 female R 1 3 16 self immoralSelf H h 1 0.7370 
19-May-2018_15:43:50 7324 19 female R 1 3 17 self moralSelf H h 1 0.5442 
19-May-2018_15:43:51 7324 19 female R 1 3 18 self moralOther J j 1 0.6393 
19-May-2018_15:43:53 7324 19 female R 1 3 19 self moralSelf H h 1 0.6793 
19-May-2018_15:43:55 7324 19 female R 1 3 20 self moralSelf H h 1 0.4427 
19-May-2018_15:43:57 7324 19 female R 1 3 21 self immoralOther J j 1 0.5684 
19-May-2018_15:43:59 7324 19 female R 1 3 22 self moralOther J j 1 0.6001 
19-May-2018_15:44:00 7324 19 female R 1 3 23 self immoralOther J j 1 0.3855 
19-May-2018_15:44:02 7324 19 female R 1 3 24 self moralOther J j 1 0.4966 
19-May-2018_15:44:04 7324 19 female R 1 4 1 self immoralSelf H h 1 0.3748 
19-May-2018_15:44:06 7324 19 female R 1 4 2 self moralOther J j 1 0.6441 
19-May-2018_15:44:07 7324 19 female R 1 4 3 self immoralOther J j 1 0.6277 
19-May-2018_15:44:10 7324 19 female R 1 4 4 self immoralSelf H NA -1 1.1562 
19-May-2018_15:44:11 7324 19 female R 1 4 5 self immoralOther J j 1 0.5531 
19-May-2018_15:44:13 7324 19 female R 1 4 6 self immoralSelf H h 1 0.7512 
19-May-2018_15:44:15 7324 19 female R 1 4 7 self immoralOther J j 1 0.5574 
19-May-2018_15:44:17 7324 19 female R 1 4 8 self moralOther J j 1 0.7292 
19-May-2018_15:44:19 7324 19 female R 1 4 9 self moralOther J j 1 0.5924 
19-May-2018_15:44:21 7324 19 female R 1 4 10 self moralOther J j 1 0.5703 
19-May-2018_15:44:23 7324 19 female R 1 4 11 self moralOther J j 1 0.6900 
19-May-2018_15:44:25 7324 19 female R 1 4 12 self immoralSelf H h 1 0.7667 
19-May-2018_15:44:27 7324 19 female R 1 4 13 self moralSelf H NA -1 1.1561 
19-May-2018_15:44:29 7324 19 female R 1 4 14 self moralSelf H h 1 0.5283 
19-May-2018_15:44:31 7324 19 female R 1 4 15 self moralOther J j 1 0.7773 
19-May-2018_15:44:33 7324 19 female R 1 4 16 self immoralOther J NA -1 1.1561 
19-May-2018_15:44:35 7324 19 female R 1 4 17 self moralSelf H h 1 0.5615 
19-May-2018_15:44:37 7324 19 female R 1 4 18 self moralSelf H h 1 0.6811 
19-May-2018_15:44:39 7324 19 female R 1 4 19 self immoralOther J NA -1 1.1561 
19-May-2018_15:44:42 7324 19 female R 1 4 20 self immoralSelf H h 1 0.7005 
19-May-2018_15:44:44 7324 19 female R 1 4 21 self immoralOther J j 1 1.0677 
19-May-2018_15:44:46 7324 19 female R 1 4 22 self moralSelf H h 1 0.8259 
19-May-2018_15:44:48 7324 19 female R 1 4 23 self immoralSelf H j 0 0.6532 
19-May-2018_15:44:50 7324 19 female R 1 4 24 self moralSelf H h 1 0.6138 
19-May-2018_15:44:56 7324 19 female R 1 5 1 self immoralSelf H h 1 0.5783 
19-May-2018_15:44:58 7324 19 female R 1 5 2 self immoralOther J j 1 0.5220 
19-May-2018_15:45:00 7324 19 female R 1 5 3 self moralSelf H h 1 0.5210 
19-May-2018_15:45:02 7324 19 female R 1 5 4 self immoralOther J j 1 0.7215 
19-May-2018_15:45:04 7324 19 female R 1 5 5 self immoralOther J j 1 0.8925 
19-May-2018_15:45:06 7324 19 female R 1 5 6 self moralSelf H h 1 0.4643 
19-May-2018_15:45:08 7324 19 female R 1 5 7 self immoralOther J j 1 0.5058 
19-May-2018_15:45:10 7324 19 female R 1 5 8 self immoralSelf H h 1 0.5525 
19-May-2018_15:45:11 7324 19 female R 1 5 9 self moralOther J j 1 0.6260 
19-May-2018_15:45:13 7324 19 female R 1 5 10 self immoralSelf H h 1 0.9145 
19-May-2018_15:45:15 7324 19 female R 1 5 11 self moralOther J j 1 0.6840 
19-May-2018_15:45:18 7324 19 female R 1 5 12 self moralSelf H h 1 1.1099 
19-May-2018_15:45:19 7324 19 female R 1 5 13 self moralOther J j 1 0.6187 
19-May-2018_15:45:21 7324 19 female R 1 5 14 self immoralSelf H h 1 0.5788 
19-May-2018_15:45:23 7324 19 female R 1 5 15 self moralOther J j 1 0.7643 
19-May-2018_15:45:25 7324 19 female R 1 5 16 self moralOther J j 1 0.8646 
19-May-2018_15:45:27 7324 19 female R 1 5 17 self moralSelf H h 1 0.9466 
19-May-2018_15:45:29 7324 19 female R 1 5 18 self moralOther J j 1 0.8473 
19-May-2018_15:45:31 7324 19 female R 1 5 19 self immoralOther J h 0 0.6799 
19-May-2018_15:45:34 7324 19 female R 1 5 20 self immoralSelf H NA -1 1.1561 
19-May-2018_15:45:36 7324 19 female R 1 5 21 self moralSelf H h 1 1.0730 
19-May-2018_15:45:38 7324 19 female R 1 5 22 self immoralSelf H h 1 0.8189 
19-May-2018_15:45:40 7324 19 female R 1 5 23 self immoralOther J j 1 0.6190 
19-May-2018_15:45:42 7324 19 female R 1 5 24 self moralSelf H h 1 0.8893 
Date Sub Age Sex Hand Block Bin Trial Task Shape corrResp Resp ACC RT
19-May-2018_15:48:30 7324 19 female R 2 1 1 moral immoralSelf U u 1 1.0011 
19-May-2018_15:48:32 7324 19 female R 2 1 2 moral immoralSelf U u 1 0.8450 
19-May-2018_15:48:34 7324 19 female R 2 1 3 moral moralSelf Y y 1 0.6941 
19-May-2018_15:48:36 7324 19 female R 2 1 4 moral moralOther Y y 1 0.8216 
19-May-2018_15:48:38 7324 19 female R 2 1 5 moral moralOther Y y 1 1.0367 
19-May-2018_15:48:40 7324 19 female R 2 1 6 moral immoralOther U u 1 0.6694 
19-May-2018_15:48:42 7324 19 female R 2 1 7 moral moralOther Y y 1 0.8863 
19-May-2018_15:48:44 7324 19 female R 2 1 8 moral moralOther Y y 1 0.5448 
19-May-2018_15:48:46 7324 19 female R 2 1 9 moral immoralOther U u 1 0.5407 
19-May-2018_15:48:47 7324 19 female R 2 1 10 moral moralOther Y y 1 0.7289 
19-May-2018_15:48:49 7324 19 female R 2 1 11 moral immoralSelf U u 1 0.7281 
19-May-2018_15:48:51 7324 19 female R 2 1 12 moral immoralSelf U u 1 0.4566 
19-May-2018_15:48:53 7324 19 female R 2 1 13 moral moralSelf Y y 1 0.7663 
19-May-2018_15:48:55 7324 19 female R 2 1 14 moral moralSelf Y y 1 0.4469 
19-May-2018_15:48:57 7324 19 female R 2 1 15 moral immoralSelf U u 1 0.8978 
19-May-2018_15:48:59 7324 19 female R 2 1 16 moral immoralOther U u 1 0.5891 
19-May-2018_15:49:01 7324 19 female R 2 1 17 moral immoralOther U u 1 0.4405 
19-May-2018_15:49:03 7324 19 female R 2 1 18 moral moralOther Y y 1 0.9530 
19-May-2018_15:49:05 7324 19 female R 2 1 19 moral moralSelf Y y 1 0.4444 
19-May-2018_15:49:07 7324 19 female R 2 1 20 moral immoralOther U u 1 0.7405 
19-May-2018_15:49:09 7324 19 female R 2 1 21 moral moralSelf Y y 1 0.5438 
19-May-2018_15:49:11 7324 19 female R 2 1 22 moral immoralSelf U u 1 1.0229 
19-May-2018_15:49:13 7324 19 female R 2 1 23 moral moralSelf Y y 1 0.6169 
19-May-2018_15:49:15 7324 19 female R 2 1 24 moral immoralOther U u 1 0.5539 
19-May-2018_15:49:17 7324 19 female R 2 2 1 moral immoralOther U u 1 0.6124 
19-May-2018_15:49:19 7324 19 female R 2 2 2 moral immoralSelf U u 1 0.8817 
19-May-2018_15:49:20 7324 19 female R 2 2 3 moral immoralOther U u 1 0.5937 
19-May-2018_15:49:22 7324 19 female R 2 2 4 moral immoralSelf U u 1 0.7815 
19-May-2018_15:49:24 7324 19 female R 2 2 5 moral moralSelf Y y 1 0.4084 
19-May-2018_15:49:26 7324 19 female R 2 2 6 moral immoralSelf U y 0 0.5036 
19-May-2018_15:49:27 7324 19 female R 2 2 7 moral moralSelf Y y 1 0.5790 
19-May-2018_15:49:29 7324 19 female R 2 2 8 moral moralOther Y y 1 0.6557 
19-May-2018_15:49:31 7324 19 female R 2 2 9 moral moralOther Y y 1 0.5969 
19-May-2018_15:49:33 7324 19 female R 2 2 10 moral immoralSelf U y 0 0.7659 
19-May-2018_15:49:34 7324 19 female R 2 2 11 moral moralOther Y y 1 0.5768 
19-May-2018_15:49:36 7324 19 female R 2 2 12 moral immoralOther U u 1 0.7548 
19-May-2018_15:49:38 7324 19 female R 2 2 13 moral moralSelf Y y 1 0.7130 
19-May-2018_15:49:41 7324 19 female R 2 2 14 moral immoralSelf U NA -1 1.1561 
19-May-2018_15:49:43 7324 19 female R 2 2 15 moral moralSelf Y y 1 0.6237 
19-May-2018_15:49:45 7324 19 female R 2 2 16 moral immoralSelf U u 1 0.6873 
19-May-2018_15:49:46 7324 19 female R 2 2 17 moral immoralOther U u 1 0.6121 
19-May-2018_15:49:48 7324 19 female R 2 2 18 moral immoralOther U u 1 0.5016 
19-May-2018_15:49:50 7324 19 female R 2 2 19 moral immoralOther U u 1 0.4734 
19-May-2018_15:49:51 7324 19 female R 2 2 20 moral moralOther Y y 1 0.7982 
19-May-2018_15:49:54 7324 19 female R 2 2 21 moral moralOther Y y 1 0.8125 
19-May-2018_15:49:56 7324 19 female R 2 2 22 moral moralSelf Y u 0 0.7824 
19-May-2018_15:49:57 7324 19 female R 2 2 23 moral moralSelf Y y 1 0.5231 
19-May-2018_15:50:00 7324 19 female R 2 2 24 moral moralOther Y y 1 0.9001 
19-May-2018_15:50:19 7324 19 female R 2 3 1 moral moralOther Y y 1 0.8968 
19-May-2018_15:50:21 7324 19 female R 2 3 2 moral immoralSelf U u 1 0.7146 
19-May-2018_15:50:24 7324 19 female R 2 3 3 moral immoralSelf U u 1 1.1001 
19-May-2018_15:50:25 7324 19 female R 2 3 4 moral moralSelf Y y 1 0.5449 
19-May-2018_15:50:27 7324 19 female R 2 3 5 moral moralOther Y y 1 0.6768 
19-May-2018_15:50:29 7324 19 female R 2 3 6 moral immoralOther U u 1 0.8942 
19-May-2018_15:50:31 7324 19 female R 2 3 7 moral moralSelf Y NA -1 1.1561 
19-May-2018_15:50:33 7324 19 female R 2 3 8 moral immoralSelf U u 1 0.7618 
19-May-2018_15:50:35 7324 19 female R 2 3 9 moral immoralSelf U u 1 0.4122 
19-May-2018_15:50:37 7324 19 female R 2 3 10 moral immoralOther U u 1 0.6056 
19-May-2018_15:50:39 7324 19 female R 2 3 11 moral moralSelf Y u 0 0.7031 
19-May-2018_15:50:41 7324 19 female R 2 3 12 moral moralOther Y y 1 0.6241 
19-May-2018_15:50:43 7324 19 female R 2 3 13 moral moralOther Y y 1 0.6454 
19-May-2018_15:50:46 7324 19 female R 2 3 14 moral immoralSelf U NA -1 1.1561 
19-May-2018_15:50:48 7324 19 female R 2 3 15 moral immoralOther U NA -1 1.1561 
19-May-2018_15:50:50 7324 19 female R 2 3 16 moral moralSelf Y y 1 0.8946 
19-May-2018_15:50:52 7324 19 female R 2 3 17 moral moralOther Y y 1 0.7587 
19-May-2018_15:50:54 7324 19 female R 2 3 18 moral immoralOther U u 1 0.7329 
19-May-2018_15:50:56 7324 19 female R 2 3 19 moral immoralOther U u 1 0.8619 
19-May-2018_15:50:59 7324 19 female R 2 3 20 moral moralSelf Y NA -1 1.1561 
19-May-2018_15:51:01 7324 19 female R 2 3 21 moral immoralSelf U u 1 0.9755 
19-May-2018_15:51:03 7324 19 female R 2 3 22 moral immoralOther U u 1 0.8311 
19-May-2018_15:51:05 7324 19 female R 2 3 23 moral moralSelf Y y 1 0.6128 
19-May-2018_15:51:07 7324 19 female R 2 3 24 moral moralOther Y y 1 0.6134 
19-May-2018_15:51:09 7324 19 female R 2 4 1 moral moralOther Y u 0 1.0262 
19-May-2018_15:51:10 7324 19 female R 2 4 2 moral moralSelf Y y 1 0.6074 
19-May-2018_15:51:13 7324 19 female R 2 4 3 moral moralOther Y y 1 0.8432 
19-May-2018_15:51:14 7324 19 female R 2 4 4 moral moralSelf Y y 1 0.6937 
19-May-2018_15:51:16 7324 19 female R 2 4 5 moral immoralSelf U u 1 0.8551 
19-May-2018_15:51:18 7324 19 female R 2 4 6 moral immoralSelf U u 1 1.0129 
19-May-2018_15:51:20 7324 19 female R 2 4 7 moral moralOther Y u 0 0.7155 
19-May-2018_15:51:22 7324 19 female R 2 4 8 moral moralSelf Y y 1 0.5505 
19-May-2018_15:51:25 7324 19 female R 2 4 9 moral immoralOther U u 1 1.0183 
19-May-2018_15:51:27 7324 19 female R 2 4 10 moral moralOther Y u 0 0.5822 
19-May-2018_15:51:28 7324 19 female R 2 4 11 moral immoralOther U u 1 0.5610 
19-May-2018_15:51:30 7324 19 female R 2 4 12 moral moralOther Y y 1 0.8646 
19-May-2018_15:51:32 7324 19 female R 2 4 13 moral moralSelf Y NA -1 1.1561 
19-May-2018_15:51:34 7324 19 female R 2 4 14 moral immoralOther U u 1 0.6196 
19-May-2018_15:51:37 7324 19 female R 2 4 15 moral immoralSelf U y 0 0.8201 
19-May-2018_15:51:39 7324 19 female R 2 4 16 moral immoralSelf U NA -1 1.1561 
19-May-2018_15:51:41 7324 19 female R 2 4 17 moral immoralOther U u 1 0.9013 
19-May-2018_15:51:43 7324 19 female R 2 4 18 moral moralSelf Y y 1 0.6529 
19-May-2018_15:51:45 7324 19 female R 2 4 19 moral immoralSelf U u 1 0.7222 
19-May-2018_15:51:47 7324 19 female R 2 4 20 moral moralSelf Y y 1 0.6687 
19-May-2018_15:51:48 7324 19 female R 2 4 21 moral moralOther Y y 1 0.6433 
19-May-2018_15:51:50 7324 19 female R 2 4 22 moral immoralSelf U u 1 0.6678 
19-May-2018_15:51:52 7324 19 female R 2 4 23 moral immoralOther U u 1 0.3799 
19-May-2018_15:51:54 7324 19 female R 2 4 24 moral immoralOther U u 1 0.7122 
19-May-2018_15:51:59 7324 19 female R 2 5 1 moral moralOther Y y 1 0.6338 
19-May-2018_15:52:02 7324 19 female R 2 5 2 moral immoralOther U u 1 0.6019 
19-May-2018_15:52:04 7324 19 female R 2 5 3 moral immoralOther U u 1 0.7831 
19-May-2018_15:52:05 7324 19 female R 2 5 4 moral moralSelf Y u 0 0.2556 
19-May-2018_15:52:07 7324 19 female R 2 5 5 moral immoralSelf U y 0 1.0558 
19-May-2018_15:52:10 7324 19 female R 2 5 6 moral moralOther Y NA -1 1.1561 
19-May-2018_15:52:12 7324 19 female R 2 5 7 moral moralSelf Y NA -1 1.1561 
19-May-2018_15:52:14 7324 19 female R 2 5 8 moral moralOther Y y 1 0.9035 
19-May-2018_15:52:16 7324 19 female R 2 5 9 moral moralSelf Y y 1 1.0556 
19-May-2018_15:52:18 7324 19 female R 2 5 10 moral moralSelf Y y 1 0.3790 
19-May-2018_15:52:20 7324 19 female R 2 5 11 moral moralOther Y y 1 0.5739 
19-May-2018_15:52:22 7324 19 female R 2 5 12 moral immoralSelf U u 1 0.7123 
19-May-2018_15:52:23 7324 19 female R 2 5 13 moral immoralOther U u 1 0.5684 
19-May-2018_15:52:25 7324 19 female R 2 5 14 moral immoralSelf U u 1 0.5985 
19-May-2018_15:52:27 7324 19 female R 2 5 15 moral moralSelf Y y 1 0.6373 
19-May-2018_15:52:29 7324 19 female R 2 5 16 moral immoralOther U u 1 0.7907 
19-May-2018_15:52:31 7324 19 female R 2 5 17 moral immoralOther U y 0 0.8053 
19-May-2018_15:52:33 7324 19 female R 2 5 18 moral immoralSelf U y 0 0.6996 
19-May-2018_15:52:35 7324 19 female R 2 5 19 moral moralOther Y y 1 0.7989 
19-May-2018_15:52:37 7324 19 female R 2 5 20 moral immoralOther U u 1 0.8461 
19-May-2018_15:52:40 7324 19 female R 2 5 21 moral immoralSelf U u 1 0.6749 
19-May-2018_15:52:42 7324 19 female R 2 5 22 moral immoralSelf U u 1 0.7888 
19-May-2018_15:52:43 7324 19 female R 2 5 23 moral moralSelf Y y 1 0.8859 
19-May-2018_15:52:46 7324 19 female R 2 5 24 moral moralOther Y NA -1 1.1561 
Date Sub Age Sex Hand Block Bin Trial Task Shape corrResp Resp ACC RT
19-May-2018_15:55:38 7324 19 female R 3 1 1 self immoralSelf H h 1 0.7091 
19-May-2018_15:55:40 7324 19 female R 3 1 2 self moralOther J j 1 0.7643 
19-May-2018_15:55:42 7324 19 female R 3 1 3 self immoralOther J j 1 0.5883 
19-May-2018_15:55:44 7324 19 female R 3 1 4 self immoralSelf H h 1 0.6049 
19-May-2018_15:55:45 7324 19 female R 3 1 5 self immoralOther J j 1 0.5588 
19-May-2018_15:55:47 7324 19 female R 3 1 6 self moralOther J j 1 0.4972 
19-May-2018_15:55:49 7324 19 female R 3 1 7 self moralSelf H h 1 0.4532 
19-May-2018_15:55:51 7324 19 female R 3 1 8 self moralOther J j 1 0.6259 
19-May-2018_15:55:53 7324 19 female R 3 1 9 self moralSelf H h 1 0.5511 
19-May-2018_15:55:54 7324 19 female R 3 1 10 self moralSelf H h 1 0.4373 
19-May-2018_15:55:56 7324 19 female R 3 1 11 self moralSelf H h 1 0.5301 
19-May-2018_15:55:57 7324 19 female R 3 1 12 self immoralOther J j 1 0.5739 
19-May-2018_15:55:59 7324 19 female R 3 1 13 self immoralSelf H h 1 0.4587 
19-May-2018_15:56:00 7324 19 female R 3 1 14 self moralSelf H h 1 0.3650 
19-May-2018_15:56:02 7324 19 female R 3 1 15 self immoralOther J j 1 0.6268 
19-May-2018_15:56:04 7324 19 female R 3 1 16 self immoralOther J j 1 0.4913 
19-May-2018_15:56:06 7324 19 female R 3 1 17 self moralOther J h 0 0.7521 
19-May-2018_15:56:07 7324 19 female R 3 1 18 self moralSelf H h 1 0.4218 
19-May-2018_15:56:09 7324 19 female R 3 1 19 self moralOther J j 1 0.5744 
19-May-2018_15:56:11 7324 19 female R 3 1 20 self immoralSelf H h 1 0.6276 
19-May-2018_15:56:13 7324 19 female R 3 1 21 self immoralOther J j 1 0.7797 
19-May-2018_15:56:15 7324 19 female R 3 1 22 self moralOther J NA -1 1.1561 
19-May-2018_15:56:17 7324 19 female R 3 1 23 self immoralSelf H h 1 0.9332 
19-May-2018_15:56:20 7324 19 female R 3 1 24 self immoralSelf H h 1 1.1512 
19-May-2018_15:56:22 7324 19 female R 3 2 1 self immoralOther J NA -1 1.1561 
19-May-2018_15:56:23 7324 19 female R 3 2 2 self moralSelf H h 1 0.6507 
19-May-2018_15:56:25 7324 19 female R 3 2 3 self immoralSelf H h 1 0.7152 
19-May-2018_15:56:27 7324 19 female R 3 2 4 self immoralOther J j 1 0.6264 
19-May-2018_15:56:29 7324 19 female R 3 2 5 self immoralSelf H h 1 0.6180 
19-May-2018_15:56:31 7324 19 female R 3 2 6 self moralSelf H h 1 0.5432 
19-May-2018_15:56:34 7324 19 female R 3 2 7 self immoralSelf H NA -1 1.1561 
19-May-2018_15:56:35 7324 19 female R 3 2 8 self immoralOther J j 1 0.6898 
19-May-2018_15:56:37 7324 19 female R 3 2 9 self moralOther J h 0 0.7981 
19-May-2018_15:56:39 7324 19 female R 3 2 10 self moralOther J NA -1 1.1561 
19-May-2018_15:56:42 7324 19 female R 3 2 11 self moralOther J NA -1 1.1561 
19-May-2018_15:56:44 7324 19 female R 3 2 12 self immoralOther J NA -1 1.1561 
19-May-2018_15:56:46 7324 19 female R 3 2 13 self moralOther J j 1 0.7941 
19-May-2018_15:56:48 7324 19 female R 3 2 14 self immoralSelf H h 1 0.7707 
19-May-2018_15:56:50 7324 19 female R 3 2 15 self immoralSelf H h 1 0.5806 
19-May-2018_15:56:52 7324 19 female R 3 2 16 self moralOther J j 1 0.6371 
19-May-2018_15:56:53 7324 19 female R 3 2 17 self moralSelf H h 1 0.6589 
19-May-2018_15:56:56 7324 19 female R 3 2 18 self immoralOther J NA -1 1.1561 
19-May-2018_15:56:58 7324 19 female R 3 2 19 self moralSelf H NA -1 1.1561 
19-May-2018_15:57:00 7324 19 female R 3 2 20 self moralOther J j 1 0.6775 
19-May-2018_15:57:02 7324 19 female R 3 2 21 self moralSelf H h 1 0.8474 
19-May-2018_15:57:03 7324 19 female R 3 2 22 self immoralSelf H h 1 0.2829 
19-May-2018_15:57:06 7324 19 female R 3 2 23 self moralSelf H NA -1 1.1561 
19-May-2018_15:57:08 7324 19 female R 3 2 24 self immoralOther J j 1 0.6402 
19-May-2018_15:57:23 7324 19 female R 3 3 1 self immoralOther J j 1 0.6647 
19-May-2018_15:57:25 7324 19 female R 3 3 2 self immoralOther J j 1 0.6986 
19-May-2018_15:57:27 7324 19 female R 3 3 3 self moralOther J NA -1 1.1561 
19-May-2018_15:57:29 7324 19 female R 3 3 4 self moralOther J j 1 0.7003 
19-May-2018_15:57:31 7324 19 female R 3 3 5 self moralSelf H h 1 0.4298 
19-May-2018_15:57:33 7324 19 female R 3 3 6 self moralOther J j 1 0.6991 
19-May-2018_15:57:35 7324 19 female R 3 3 7 self immoralSelf H h 1 0.3871 
19-May-2018_15:57:36 7324 19 female R 3 3 8 self immoralSelf H h 1 0.3740 
19-May-2018_15:57:38 7324 19 female R 3 3 9 self immoralSelf H h 1 0.4888 
19-May-2018_15:57:40 7324 19 female R 3 3 10 self moralOther J h 0 0.5943 
19-May-2018_15:57:41 7324 19 female R 3 3 11 self moralSelf H h 1 0.3003 
19-May-2018_15:57:43 7324 19 female R 3 3 12 self moralSelf H h 1 0.5583 
19-May-2018_15:57:44 7324 19 female R 3 3 13 self immoralSelf H h 1 0.1062 
19-May-2018_15:57:47 7324 19 female R 3 3 14 self immoralOther J h 0 0.9593 
19-May-2018_15:57:49 7324 19 female R 3 3 15 self moralSelf H h 1 0.5853 
19-May-2018_15:57:51 7324 19 female R 3 3 16 self moralSelf H h 1 1.0014 
19-May-2018_15:57:53 7324 19 female R 3 3 17 self immoralOther J NA -1 1.1561 
19-May-2018_15:57:55 7324 19 female R 3 3 18 self immoralOther J j 1 0.5841 
19-May-2018_15:57:57 7324 19 female R 3 3 19 self immoralOther J j 1 0.5282 
19-May-2018_15:57:59 7324 19 female R 3 3 20 self immoralSelf H h 1 0.9867 
19-May-2018_15:58:01 7324 19 female R 3 3 21 self moralOther J j 1 0.7583 
19-May-2018_15:58:03 7324 19 female R 3 3 22 self immoralSelf H h 1 0.6635 
19-May-2018_15:58:05 7324 19 female R 3 3 23 self moralSelf H h 1 0.5671 
19-May-2018_15:58:07 7324 19 female R 3 3 24 self moralOther J j 1 0.9230 
19-May-2018_15:58:09 7324 19 female R 3 4 1 self moralOther J j 1 0.8232 
19-May-2018_15:58:11 7324 19 female R 3 4 2 self immoralOther J j 1 0.6648 
19-May-2018_15:58:13 7324 19 female R 3 4 3 self immoralSelf H h 1 0.5086 
19-May-2018_15:58:15 7324 19 female R 3 4 4 self moralSelf H h 1 0.3538 
19-May-2018_15:58:16 7324 19 female R 3 4 5 self immoralSelf H h 1 0.2692 
19-May-2018_15:58:18 7324 19 female R 3 4 6 self moralOther J h 0 0.4593 
19-May-2018_15:58:20 7324 19 female R 3 4 7 self immoralOther J NA -1 1.1561 
19-May-2018_15:58:22 7324 19 female R 3 4 8 self moralSelf H NA -1 1.1561 
19-May-2018_15:58:24 7324 19 female R 3 4 9 self moralOther J NA -1 1.1561 
19-May-2018_15:58:26 7324 19 female R 3 4 10 self moralSelf H NA -1 1.1561 
19-May-2018_15:58:28 7324 19 female R 3 4 11 self immoralSelf H h 1 0.4547 
19-May-2018_15:58:30 7324 19 female R 3 4 12 self moralSelf H h 1 0.4923 
19-May-2018_15:58:31 7324 19 female R 3 4 13 self immoralSelf H h 1 0.3869 
19-May-2018_15:58:33 7324 19 female R 3 4 14 self moralOther J j 1 0.7569 
19-May-2018_15:58:35 7324 19 female R 3 4 15 self immoralSelf H j 0 0.7047 
19-May-2018_15:58:38 7324 19 female R 3 4 16 self immoralOther J j 1 0.8686 
19-May-2018_15:58:40 7324 19 female R 3 4 17 self moralSelf H h 1 0.7741 
19-May-2018_15:58:42 7324 19 female R 3 4 18 self immoralSelf H NA -1 1.1561 
19-May-2018_15:58:44 7324 19 female R 3 4 19 self moralOther J NA -1 1.1561 
19-May-2018_15:58:46 7324 19 female R 3 4 20 self immoralOther J j 1 0.7500 
19-May-2018_15:58:48 7324 19 female R 3 4 21 self moralSelf H h 1 0.7137 
19-May-2018_15:58:50 7324 19 female R 3 4 22 self moralOther J NA -1 1.1561 
19-May-2018_15:58:52 7324 19 female R 3 4 23 self immoralOther J NA -1 1.1561 
19-May-2018_15:58:54 7324 19 female R 3 4 24 self immoralOther J j 1 0.6018 
19-May-2018_15:59:02 7324 19 female R 3 5 1 self immoralOther J j 1 1.0974 
19-May-2018_15:59:04 7324 19 female R 3 5 2 self immoralSelf H h 1 0.9397 
19-May-2018_15:59:06 7324 19 female R 3 5 3 self moralSelf H h 1 0.6800 
19-May-2018_15:59:08 7324 19 female R 3 5 4 self moralOther J j 1 0.6886 
19-May-2018_15:59:09 7324 19 female R 3 5 5 self moralOther J j 1 0.4492 
19-May-2018_15:59:12 7324 19 female R 3 5 6 self moralSelf H NA -1 1.1561 
19-May-2018_15:59:14 7324 19 female R 3 5 7 self moralSelf H NA -1 1.1561 
19-May-2018_15:59:16 7324 19 female R 3 5 8 self moralSelf H NA -1 1.1561 
19-May-2018_15:59:18 7324 19 female R 3 5 9 self immoralOther J j 1 0.6984 
19-May-2018_15:59:20 7324 19 female R 3 5 10 self moralOther J j 1 0.6200 
19-May-2018_15:59:22 7324 19 female R 3 5 11 self immoralSelf H j 0 0.1062 
19-May-2018_15:59:23 7324 19 female R 3 5 12 self immoralSelf H j 0 0.1062 
19-May-2018_15:59:24 7324 19 female R 3 5 13 self moralOther J j 1 0.1061 
19-May-2018_15:59:25 7324 19 female R 3 5 14 self immoralOther J j 1 0.1614 
19-May-2018_15:59:27 7324 19 female R 3 5 15 self moralSelf H h 1 0.4504 
19-May-2018_15:59:29 7324 19 female R 3 5 16 self immoralOther J j 1 0.6805 
19-May-2018_15:59:30 7324 19 female R 3 5 17 self immoralOther J j 1 0.5945 
19-May-2018_15:59:33 7324 19 female R 3 5 18 self immoralSelf H NA -1 1.1561 
19-May-2018_15:59:35 7324 19 female R 3 5 19 self immoralSelf H NA -1 1.1561 
19-May-2018_15:59:38 7324 19 female R 3 5 20 self moralOther J NA -1 1.1561 
19-May-2018_15:59:40 7324 19 female R 3 5 21 self moralOther J j 1 0.9232 
19-May-2018_15:59:42 7324 19 female R 3 5 22 self immoralSelf H NA -1 1.1561 
19-May-2018_15:59:44 7324 19 female R 3 5 23 self immoralOther J j 1 0.6402 
19-May-2018_15:59:45 7324 19 female R 3 5 24 self moralSelf H h 1 0.3922 
Date Sub Age Sex Hand Block Bin Trial Task Shape corrResp Resp ACC RT
19-May-2018_16:02:26 7324 19 female R 4 1 1 moral moralOther Y y 1 0.8068 
19-May-2018_16:02:29 7324 19 female R 4 1 2 moral immoralSelf U u 1 0.8343 
19-May-2018_16:02:30 7324 19 female R 4 1 3 moral moralSelf Y y 1 0.5882 
19-May-2018_16:02:32 7324 19 female R 4 1 4 moral moralSelf Y y 1 0.4584 
19-May-2018_16:02:34 7324 19 female R 4 1 5 moral moralOther Y y 1 0.8402 
19-May-2018_16:02:36 7324 19 female R 4 1 6 moral immoralOther U NA -1 1.1561 
19-May-2018_16:02:39 7324 19 female R 4 1 7 moral immoralOther U NA -1 1.1561 
19-May-2018_16:02:41 7324 19 female R 4 1 8 moral moralOther Y y 1 1.0422 
19-May-2018_16:02:44 7324 19 female R 4 1 9 moral immoralSelf U NA -1 1.1561 
19-May-2018_16:02:46 7324 19 female R 4 1 10 moral moralOther Y y 1 1.1182 
19-May-2018_16:02:48 7324 19 female R 4 1 11 moral immoralSelf U u 1 0.7286 
19-May-2018_16:02:50 7324 19 female R 4 1 12 moral moralSelf Y y 1 0.5161 
19-May-2018_16:02:52 7324 19 female R 4 1 13 moral immoralSelf U NA -1 1.1561 
19-May-2018_16:02:54 7324 19 female R 4 1 14 moral immoralSelf U y 0 0.6988 
19-May-2018_16:02:56 7324 19 female R 4 1 15 moral moralSelf Y y 1 0.5686 
19-May-2018_16:02:58 7324 19 female R 4 1 16 moral immoralOther U u 1 0.6476 
19-May-2018_16:03:00 7324 19 female R 4 1 17 moral moralOther Y NA -1 1.1561 
19-May-2018_16:03:03 7324 19 female R 4 1 18 moral moralSelf Y NA -1 1.1561 
19-May-2018_16:03:05 7324 19 female R 4 1 19 moral moralOther Y u 0 0.9439 
19-May-2018_16:03:07 7324 19 female R 4 1 20 moral moralSelf Y y 1 0.5111 
19-May-2018_16:03:08 7324 19 female R 4 1 21 moral immoralSelf U u 1 0.7582 
19-May-2018_16:03:10 7324 19 female R 4 1 22 moral immoralOther U y 0 0.9606 
19-May-2018_16:03:12 7324 19 female R 4 1 23 moral immoralOther U u 1 0.7141 
19-May-2018_16:03:14 7324 19 female R 4 1 24 moral immoralOther U u 1 0.4680 
19-May-2018_16:03:15 7324 19 female R 4 2 1 moral moralOther Y y 1 0.4493 
19-May-2018_16:03:17 7324 19 female R 4 2 2 moral moralSelf Y y 1 0.5859 
19-May-2018_16:03:20 7324 19 female R 4 2 3 moral moralSelf Y NA -1 1.1561 
19-May-2018_16:03:21 7324 19 female R 4 2 4 moral immoralOther U u 1 0.5747 
19-May-2018_16:03:24 7324 19 female R 4 2 5 moral immoralSelf U NA -1 1.1561 
19-May-2018_16:03:26 7324 19 female R 4 2 6 moral immoralSelf U NA -1 1.1561 
19-May-2018_16:03:29 7324 19 female R 4 2 7 moral moralSelf Y y 1 1.1547 
19-May-2018_16:03:31 7324 19 female R 4 2 8 moral moralOther Y y 1 1.1289 
19-May-2018_16:03:33 7324 19 female R 4 2 9 moral moralSelf Y y 1 0.7300 
19-May-2018_16:03:36 7324 19 female R 4 2 10 moral immoralSelf U NA -1 1.1561 
19-May-2018_16:03:38 7324 19 female R 4 2 11 moral moralOther Y NA -1 1.1561 
19-May-2018_16:03:40 7324 19 female R 4 2 12 moral moralOther Y NA -1 1.1561 
19-May-2018_16:03:42 7324 19 female R 4 2 13 moral immoralOther U u 1 0.6828 
19-May-2018_16:03:44 7324 19 female R 4 2 14 moral immoralOther U u 1 0.4283 
19-May-2018_16:03:46 7324 19 female R 4 2 15 moral moralOther Y y 1 0.6105 
19-May-2018_16:03:48 7324 19 female R 4 2 16 moral immoralOther U u 1 0.6102 
19-May-2018_16:03:50 7324 19 female R 4 2 17 moral moralSelf Y NA -1 1.1561 
19-May-2018_16:03:53 7324 19 female R 4 2 18 moral immoralSelf U NA -1 1.1561 
19-May-2018_16:03:55 7324 19 female R 4 2 19 moral moralOther Y y 1 0.8386 
19-May-2018_16:03:57 7324 19 female R 4 2 20 moral immoralSelf U NA -1 1.1561 
19-May-2018_16:04:00 7324 19 female R 4 2 21 moral immoralOther U NA -1 1.1561 
19-May-2018_16:04:02 7324 19 female R 4 2 22 moral immoralOther U NA -1 1.1561 
19-May-2018_16:04:05 7324 19 female R 4 2 23 moral immoralSelf U NA -1 1.1561 
19-May-2018_16:04:07 7324 19 female R 4 2 24 moral moralSelf Y y 1 0.5915 
19-May-2018_16:04:14 7324 19 female R 4 3 1 moral moralSelf Y y 1 0.4295 
19-May-2018_16:04:16 7324 19 female R 4 3 2 moral moralSelf Y y 1 0.5152 
19-May-2018_16:04:18 7324 19 female R 4 3 3 moral immoralOther U NA -1 1.1561 
19-May-2018_16:04:20 7324 19 female R 4 3 4 moral moralOther Y NA -1 1.1561 
19-May-2018_16:04:23 7324 19 female R 4 3 5 moral immoralOther U NA -1 1.1561 
19-May-2018_16:04:25 7324 19 female R 4 3 6 moral immoralOther U NA -1 1.1561 
19-May-2018_16:04:28 7324 19 female R 4 3 7 moral moralOther Y NA -1 1.1561 
19-May-2018_16:04:30 7324 19 female R 4 3 8 moral immoralSelf U NA -1 1.1561 
19-May-2018_16:04:32 7324 19 female R 4 3 9 moral moralSelf Y y 1 0.8372 
19-May-2018_16:04:34 7324 19 female R 4 3 10 moral immoralSelf U NA -1 1.1561 
19-May-2018_16:04:36 7324 19 female R 4 3 11 moral immoralOther U u 1 0.6186 
19-May-2018_16:04:38 7324 19 female R 4 3 12 moral immoralSelf U y 0 0.9654 
19-May-2018_16:04:40 7324 19 female R 4 3 13 moral moralOther Y y 1 0.6779 
19-May-2018_16:04:42 7324 19 female R 4 3 14 moral moralOther Y u 0 0.4409 
19-May-2018_16:04:44 7324 19 female R 4 3 15 moral immoralOther U u 1 0.6494 
19-May-2018_16:04:46 7324 19 female R 4 3 16 moral moralOther Y NA -1 1.1561 
19-May-2018_16:04:48 7324 19 female R 4 3 17 moral immoralSelf U NA -1 1.1561 
19-May-2018_16:04:51 7324 19 female R 4 3 18 moral moralSelf Y NA -1 1.1561 
19-May-2018_16:04:52 7324 19 female R 4 3 19 moral moralSelf Y u 0 0.8221 
19-May-2018_16:04:55 7324 19 female R 4 3 20 moral immoralOther U NA -1 1.1561 
19-May-2018_16:04:57 7324 19 female R 4 3 21 moral immoralSelf U NA -1 1.1561 
19-May-2018_16:04:59 7324 19 female R 4 3 22 moral moralSelf Y y 1 0.5846 
19-May-2018_16:05:00 7324 19 female R 4 3 23 moral moralOther Y y 1 0.5800 
19-May-2018_16:05:02 7324 19 female R 4 3 24 moral immoralSelf U u 1 0.6765 
19-May-2018_16:05:05 7324 19 female R 4 4 1 moral moralSelf Y y 1 0.7717 
19-May-2018_16:05:07 7324 19 female R 4 4 2 moral moralOther Y NA -1 1.1561 
19-May-2018_16:05:09 7324 19 female R 4 4 3 moral moralOther Y NA -1 1.1561 
19-May-2018_16:05:11 7324 19 female R 4 4 4 moral moralOther Y NA -1 1.1561 
19-May-2018_16:05:14 7324 19 female R 4 4 5 moral immoralOther U NA -1 1.1561 
19-May-2018_16:05:16 7324 19 female R 4 4 6 moral immoralOther U NA -1 1.1561 
19-May-2018_16:05:19 7324 19 female R 4 4 7 moral immoralSelf U NA -1 1.1561 
19-May-2018_16:05:21 7324 19 female R 4 4 8 moral moralSelf Y NA -1 1.1561 
19-May-2018_16:05:23 7324 19 female R 4 4 9 moral moralOther Y NA -1 1.1561 
19-May-2018_16:05:26 7324 19 female R 4 4 10 moral immoralOther U NA -1 1.1561 
19-May-2018_16:05:28 7324 19 female R 4 4 11 moral moralOther Y y 1 0.6964 
19-May-2018_16:05:30 7324 19 female R 4 4 12 moral immoralSelf U u 1 0.9110 
19-May-2018_16:05:32 7324 19 female R 4 4 13 moral immoralSelf U NA -1 1.1561 
19-May-2018_16:05:35 7324 19 female R 4 4 14 moral immoralSelf U NA -1 1.1561 
19-May-2018_16:05:37 7324 19 female R 4 4 15 moral immoralOther U u 1 0.6764 
19-May-2018_16:05:39 7324 19 female R 4 4 16 moral moralSelf Y y 1 0.7104 
19-May-2018_16:05:41 7324 19 female R 4 4 17 moral immoralSelf U u 1 0.8088 
19-May-2018_16:05:43 7324 19 female R 4 4 18 moral immoralOther U u 1 0.8818 
19-May-2018_16:05:45 7324 19 female R 4 4 19 moral moralOther Y y 1 0.5760 
19-May-2018_16:05:47 7324 19 female R 4 4 20 moral moralSelf Y NA -1 1.1561 
19-May-2018_16:05:49 7324 19 female R 4 4 21 moral immoralOther U NA -1 1.1561 
19-May-2018_16:05:52 7324 19 female R 4 4 22 moral immoralSelf U NA -1 1.1561 
19-May-2018_16:05:54 7324 19 female R 4 4 23 moral moralSelf Y NA -1 1.1561 
19-May-2018_16:05:56 7324 19 female R 4 4 24 moral moralSelf Y y 1 0.5309 
19-May-2018_16:06:17 7324 19 female R 4 5 1 moral immoralSelf U u 1 0.7397 
19-May-2018_16:06:19 7324 19 female R 4 5 2 moral immoralOther U u 1 0.7007 
19-May-2018_16:06:21 7324 19 female R 4 5 3 moral moralSelf Y y 1 0.4621 
19-May-2018_16:06:23 7324 19 female R 4 5 4 moral moralOther Y y 1 0.4218 
19-May-2018_16:06:25 7324 19 female R 4 5 5 moral moralOther Y NA -1 1.1561 
19-May-2018_16:06:28 7324 19 female R 4 5 6 moral moralSelf Y NA -1 1.1561 
19-May-2018_16:06:30 7324 19 female R 4 5 7 moral immoralSelf U NA -1 1.1561 
19-May-2018_16:06:32 7324 19 female R 4 5 8 moral moralSelf Y NA -1 1.1561 
19-May-2018_16:06:35 7324 19 female R 4 5 9 moral moralOther Y NA -1 1.1561 
19-May-2018_16:06:36 7324 19 female R 4 5 10 moral immoralOther U u 1 0.7654 
19-May-2018_16:06:39 7324 19 female R 4 5 11 moral moralOther Y y 1 0.6869 
19-May-2018_16:06:41 7324 19 female R 4 5 12 moral immoralOther U NA -1 1.1561 
19-May-2018_16:06:43 7324 19 female R 4 5 13 moral immoralOther U NA -1 1.1561 
19-May-2018_16:06:45 7324 19 female R 4 5 14 moral immoralSelf U NA -1 1.1561 
19-May-2018_16:06:48 7324 19 female R 4 5 15 moral immoralOther U NA -1 1.1561 
19-May-2018_16:06:50 7324 19 female R 4 5 16 moral moralOther Y u 0 1.1056 
19-May-2018_16:06:51 7324 19 female R 4 5 17 moral moralSelf Y y 1 0.4846 
19-May-2018_16:06:54 7324 19 female R 4 5 18 moral immoralSelf U u 1 0.7133 
19-May-2018_16:06:56 7324 19 female R 4 5 19 moral moralOther Y NA -1 1.1561 
19-May-2018_16:06:59 7324 19 female R 4 5 20 moral moralSelf Y NA -1 1.1561 
19-May-2018_16:07:01 7324 19 female R 4 5 21 moral immoralSelf U NA -1 1.1561 
19-May-2018_16:07:03 7324 19 female R 4 5 22 moral immoralSelf U u 1 0.5329 
19-May-2018_16:07:05 7324 19 female R 4 5 23 moral moralSelf Y y 1 0.4992 
19-May-2018_16:07:06 7324 19 female R 4 5 24 moral immoralOther U y 0 0.4155 
Date Sub Age Sex Hand Block Bin Trial Task Shape corrResp Resp ACC RT
19-May-2018_16:09:39 7324 19 female R 5 1 1 moral moralOther Y y 1 0.6241 
19-May-2018_16:09:41 7324 19 female R 5 1 2 moral immoralOther U u 1 0.6450 
19-May-2018_16:09:42 7324 19 female R 5 1 3 moral immoralOther U u 1 0.6550 
19-May-2018_16:09:44 7324 19 female R 5 1 4 moral moralOther Y y 1 0.6790 
19-May-2018_16:09:46 7324 19 female R 5 1 5 moral moralSelf Y y 1 0.5722 
19-May-2018_16:09:48 7324 19 female R 5 1 6 moral immoralOther U u 1 0.4660 
19-May-2018_16:09:49 7324 19 female R 5 1 7 moral moralSelf Y y 1 0.5489 
19-May-2018_16:09:51 7324 19 female R 5 1 8 moral moralSelf Y y 1 0.6610 
19-May-2018_16:09:53 7324 19 female R 5 1 9 moral immoralSelf U u 1 1.0901 
19-May-2018_16:09:55 7324 19 female R 5 1 10 moral immoralSelf U u 1 0.6912 
19-May-2018_16:09:57 7324 19 female R 5 1 11 moral immoralOther U u 1 0.5892 
19-May-2018_16:09:59 7324 19 female R 5 1 12 moral immoralOther U u 1 0.5384 
19-May-2018_16:10:01 7324 19 female R 5 1 13 moral moralSelf Y y 1 0.7333 
19-May-2018_16:10:02 7324 19 female R 5 1 14 moral moralSelf Y y 1 0.4933 
19-May-2018_16:10:04 7324 19 female R 5 1 15 moral moralSelf Y y 1 0.4469 
19-May-2018_16:10:06 7324 19 female R 5 1 16 moral moralOther Y y 1 0.6200 
19-May-2018_16:10:08 7324 19 female R 5 1 17 moral moralOther Y y 1 0.7562 
19-May-2018_16:10:09 7324 19 female R 5 1 18 moral moralOther Y y 1 0.4352 
19-May-2018_16:10:11 7324 19 female R 5 1 19 moral immoralSelf U u 1 0.7366 
19-May-2018_16:10:13 7324 19 female R 5 1 20 moral immoralSelf U y 0 0.7846 
19-May-2018_16:10:15 7324 19 female R 5 1 21 moral immoralSelf U u 1 0.6482 
19-May-2018_16:10:17 7324 19 female R 5 1 22 moral immoralSelf U u 1 0.4347 
19-May-2018_16:10:19 7324 19 female R 5 1 23 moral immoralOther U y 0 0.7989 
19-May-2018_16:10:20 7324 19 female R 5 1 24 moral moralOther Y y 1 0.5577 
19-May-2018_16:10:23 7324 19 female R 5 2 1 moral moralOther Y y 1 1.1007 
19-May-2018_16:10:25 7324 19 female R 5 2 2 moral immoralOther U u 1 0.6886 
19-May-2018_16:10:27 7324 19 female R 5 2 3 moral moralSelf Y y 1 0.7517 
19-May-2018_16:10:29 7324 19 female R 5 2 4 moral moralOther Y u 0 0.6709 
19-May-2018_16:10:31 7324 19 female R 5 2 5 moral moralSelf Y NA -1 1.1561 
19-May-2018_16:10:33 7324 19 female R 5 2 6 moral immoralSelf U u 1 0.9892 
19-May-2018_16:10:35 7324 19 female R 5 2 7 moral moralSelf Y y 1 0.5840 
19-May-2018_16:10:37 7324 19 female R 5 2 8 moral immoralOther U u 1 0.7413 
19-May-2018_16:10:39 7324 19 female R 5 2 9 moral immoralSelf U u 1 0.7917 
19-May-2018_16:10:41 7324 19 female R 5 2 10 moral moralOther Y y 1 0.5377 
19-May-2018_16:10:43 7324 19 female R 5 2 11 moral immoralSelf U u 1 0.7481 
19-May-2018_16:10:44 7324 19 female R 5 2 12 moral moralSelf Y y 1 0.4927 
19-May-2018_16:10:46 7324 19 female R 5 2 13 moral immoralOther U u 1 0.7313 
19-May-2018_16:10:49 7324 19 female R 5 2 14 moral immoralSelf U u 1 0.9732 
19-May-2018_16:10:50 7324 19 female R 5 2 15 moral immoralOther U u 1 0.6407 
19-May-2018_16:10:52 7324 19 female R 5 2 16 moral immoralSelf U u 1 0.9038 
19-May-2018_16:10:54 7324 19 female R 5 2 17 moral moralSelf Y y 1 0.5453 
19-May-2018_16:10:56 7324 19 female R 5 2 18 moral moralOther Y y 1 0.8686 
19-May-2018_16:10:58 7324 19 female R 5 2 19 moral immoralOther U u 1 0.6061 
19-May-2018_16:10:59 7324 19 female R 5 2 20 moral moralOther Y y 1 0.6758 
19-May-2018_16:11:02 7324 19 female R 5 2 21 moral immoralSelf U NA -1 1.1561 
19-May-2018_16:11:04 7324 19 female R 5 2 22 moral immoralOther U u 1 1.0252 
19-May-2018_16:11:05 7324 19 female R 5 2 23 moral moralSelf Y y 1 0.4460 
19-May-2018_16:11:07 7324 19 female R 5 2 24 moral moralOther Y y 1 0.5307 
19-May-2018_16:11:13 7324 19 female R 5 3 1 moral immoralOther U u 1 0.5558 
19-May-2018_16:11:14 7324 19 female R 5 3 2 moral immoralOther U u 1 0.4543 
19-May-2018_16:11:17 7324 19 female R 5 3 3 moral moralOther Y y 1 1.0077 
19-May-2018_16:11:18 7324 19 female R 5 3 4 moral moralOther Y y 1 0.4361 
19-May-2018_16:11:20 7324 19 female R 5 3 5 moral moralOther Y y 1 0.4681 
19-May-2018_16:11:22 7324 19 female R 5 3 6 moral moralOther Y y 1 0.5431 
19-May-2018_16:11:24 7324 19 female R 5 3 7 moral immoralOther U u 1 0.8061 
19-May-2018_16:11:25 7324 19 female R 5 3 8 moral immoralSelf U y 0 0.8848 
19-May-2018_16:11:27 7324 19 female R 5 3 9 moral immoralOther U u 1 0.6792 
19-May-2018_16:11:29 7324 19 female R 5 3 10 moral immoralSelf U y 0 0.7029 
19-May-2018_16:11:31 7324 19 female R 5 3 11 moral moralOther Y y 1 0.5321 
19-May-2018_16:11:32 7324 19 female R 5 3 12 moral immoralOther U u 1 0.5769 
19-May-2018_16:11:35 7324 19 female R 5 3 13 moral moralSelf Y y 1 0.8819 
19-May-2018_16:11:36 7324 19 female R 5 3 14 moral moralSelf Y y 1 0.5173 
19-May-2018_16:11:38 7324 19 female R 5 3 15 moral immoralSelf U u 1 0.7070 
19-May-2018_16:11:40 7324 19 female R 5 3 16 moral moralSelf Y y 1 0.6666 
19-May-2018_16:11:42 7324 19 female R 5 3 17 moral immoralSelf U u 1 0.6282 
19-May-2018_16:11:45 7324 19 female R 5 3 18 moral immoralOther U NA -1 1.1561 
19-May-2018_16:11:47 7324 19 female R 5 3 19 moral moralSelf Y y 1 0.7073 
19-May-2018_16:11:49 7324 19 female R 5 3 20 moral moralOther Y NA -1 1.1561 
19-May-2018_16:11:51 7324 19 female R 5 3 21 moral immoralSelf U u 1 0.6825 
19-May-2018_16:11:53 7324 19 female R 5 3 22 moral moralSelf Y y 1 0.8096 
19-May-2018_16:11:55 7324 19 female R 5 3 23 moral immoralSelf U u 1 0.7579 
19-May-2018_16:11:57 7324 19 female R 5 3 24 moral moralSelf Y y 1 0.7252 
19-May-2018_16:11:59 7324 19 female R 5 4 1 moral immoralOther U u 1 0.6381 
19-May-2018_16:12:01 7324 19 female R 5 4 2 moral moralSelf Y y 1 0.8707 
19-May-2018_16:12:03 7324 19 female R 5 4 3 moral moralSelf Y y 1 0.7127 
19-May-2018_16:12:05 7324 19 female R 5 4 4 moral moralOther Y NA -1 1.1561 
19-May-2018_16:12:07 7324 19 female R 5 4 5 moral moralOther Y y 1 0.8060 
19-May-2018_16:12:09 7324 19 female R 5 4 6 moral immoralOther U u 1 0.5336 
19-May-2018_16:12:11 7324 19 female R 5 4 7 moral immoralSelf U y 0 0.9228 
19-May-2018_16:12:13 7324 19 female R 5 4 8 moral moralSelf Y y 1 0.6302 
19-May-2018_16:12:16 7324 19 female R 5 4 9 moral immoralSelf U u 1 1.0463 
19-May-2018_16:12:18 7324 19 female R 5 4 10 moral immoralOther U u 1 0.7199 
19-May-2018_16:12:20 7324 19 female R 5 4 11 moral immoralSelf U NA -1 1.1561 
19-May-2018_16:12:22 7324 19 female R 5 4 12 moral immoralSelf U u 1 0.6832 
19-May-2018_16:12:24 7324 19 female R 5 4 13 moral moralOther Y y 1 0.8283 
19-May-2018_16:12:27 7324 19 female R 5 4 14 moral moralOther Y u 0 1.1272 
19-May-2018_16:12:29 7324 19 female R 5 4 15 moral moralSelf Y y 1 0.8389 
19-May-2018_16:12:31 7324 19 female R 5 4 16 moral moralSelf Y y 1 0.6568 
19-May-2018_16:12:32 7324 19 female R 5 4 17 moral immoralOther U u 1 0.5129 
19-May-2018_16:12:35 7324 19 female R 5 4 18 moral immoralOther U NA -1 1.1561 
19-May-2018_16:12:36 7324 19 female R 5 4 19 moral immoralOther U u 1 0.6415 
19-May-2018_16:12:38 7324 19 female R 5 4 20 moral moralOther Y u 0 0.9216 
19-May-2018_16:12:41 7324 19 female R 5 4 21 moral moralOther Y NA -1 1.1561 
19-May-2018_16:12:42 7324 19 female R 5 4 22 moral moralSelf Y y 1 0.1063 
19-May-2018_16:12:44 7324 19 female R 5 4 23 moral immoralSelf U u 1 0.5520 
19-May-2018_16:12:46 7324 19 female R 5 4 24 moral immoralSelf U u 1 0.6014 
19-May-2018_16:12:51 7324 19 female R 5 5 1 moral immoralOther U NA -1 1.1561 
19-May-2018_16:12:53 7324 19 female R 5 5 2 moral immoralSelf U u 1 0.9645 
19-May-2018_16:12:55 7324 19 female R 5 5 3 moral immoralSelf U u 1 0.5034 
19-May-2018_16:12:57 7324 19 female R 5 5 4 moral moralOther Y y 1 0.9326 
19-May-2018_16:13:00 7324 19 female R 5 5 5 moral moralSelf Y y 1 0.6838 
19-May-2018_16:13:01 7324 19 female R 5 5 6 moral moralSelf Y y 1 0.4443 
19-May-2018_16:13:03 7324 19 female R 5 5 7 moral immoralSelf U u 1 0.9982 
19-May-2018_16:13:06 7324 19 female R 5 5 8 moral moralSelf Y NA -1 1.1561 
19-May-2018_16:13:07 7324 19 female R 5 5 9 moral immoralOther U u 1 0.7011 
19-May-2018_16:13:10 7324 19 female R 5 5 10 moral moralOther Y y 1 0.8503 
19-May-2018_16:13:12 7324 19 female R 5 5 11 moral moralOther Y NA -1 1.1561 
19-May-2018_16:13:14 7324 19 female R 5 5 12 moral immoralOther U u 1 0.5544 
19-May-2018_16:13:16 7324 19 female R 5 5 13 moral immoralOther U u 1 0.7663 
19-May-2018_16:13:18 7324 19 female R 5 5 14 moral moralOther Y y 1 0.8605 
19-May-2018_16:13:20 7324 19 female R 5 5 15 moral immoralOther U u 1 0.7990 
19-May-2018_16:13:22 7324 19 female R 5 5 16 moral immoralSelf U NA -1 1.1561 
19-May-2018_16:13:24 7324 19 female R 5 5 17 moral moralOther Y y 1 0.8419 
19-May-2018_16:13:26 7324 19 female R 5 5 18 moral moralSelf Y u 0 1.0679 
19-May-2018_16:13:28 7324 19 female R 5 5 19 moral moralOther Y y 1 1.0289 
19-May-2018_16:13:30 7324 19 female R 5 5 20 moral immoralSelf U u 1 0.8412 
19-May-2018_16:13:33 7324 19 female R 5 5 21 moral immoralSelf U u 1 0.7133 
19-May-2018_16:13:35 7324 19 female R 5 5 22 moral moralSelf Y NA -1 1.1561 
19-May-2018_16:13:37 7324 19 female R 5 5 23 moral immoralOther U u 1 0.7996 
19-May-2018_16:13:39 7324 19 female R 5 5 24 moral moralSelf Y y 1 0.7625 
Date Sub Age Sex Hand Block Bin Trial Task Shape corrResp Resp ACC RT
19-May-2018_16:16:07 7324 19 female R 6 1 1 self moralSelf H h 1 0.5465 
19-May-2018_16:16:09 7324 19 female R 6 1 2 self immoralSelf H h 1 0.5194 
19-May-2018_16:16:10 7324 19 female R 6 1 3 self immoralSelf H h 1 0.6489 
19-May-2018_16:16:12 7324 19 female R 6 1 4 self moralSelf H h 1 0.5251 
19-May-2018_16:16:14 7324 19 female R 6 1 5 self immoralOther J j 1 0.4523 
19-May-2018_16:16:16 7324 19 female R 6 1 6 self immoralSelf H j 0 0.7696 
19-May-2018_16:16:17 7324 19 female R 6 1 7 self moralOther J h 0 0.1062 
19-May-2018_16:16:18 7324 19 female R 6 1 8 self immoralSelf H j 0 0.1062 
19-May-2018_16:16:21 7324 19 female R 6 1 9 self moralOther J j 1 0.9311 
19-May-2018_16:16:22 7324 19 female R 6 1 10 self immoralOther J j 1 0.4328 
19-May-2018_16:16:24 7324 19 female R 6 1 11 self moralOther J j 1 0.6235 
19-May-2018_16:16:26 7324 19 female R 6 1 12 self moralSelf H h 1 0.6687 
19-May-2018_16:16:28 7324 19 female R 6 1 13 self immoralSelf H h 1 0.4298 
19-May-2018_16:16:30 7324 19 female R 6 1 14 self immoralSelf H h 1 0.4472 
19-May-2018_16:16:32 7324 19 female R 6 1 15 self moralOther J j 1 0.8308 
19-May-2018_16:16:34 7324 19 female R 6 1 16 self moralSelf H h 1 0.9626 
19-May-2018_16:16:35 7324 19 female R 6 1 17 self moralSelf H h 1 0.4042 
19-May-2018_16:16:37 7324 19 female R 6 1 18 self moralSelf H h 1 0.3797 
19-May-2018_16:16:39 7324 19 female R 6 1 19 self immoralOther J j 1 0.8395 
19-May-2018_16:16:41 7324 19 female R 6 1 20 self moralOther J j 1 1.0589 
19-May-2018_16:16:43 7324 19 female R 6 1 21 self immoralOther J j 1 0.5625 
19-May-2018_16:16:44 7324 19 female R 6 1 22 self immoralOther J j 1 0.4934 
19-May-2018_16:16:46 7324 19 female R 6 1 23 self moralOther J j 1 0.5203 
19-May-2018_16:16:48 7324 19 female R 6 1 24 self immoralOther J j 1 0.4225 
19-May-2018_16:16:49 7324 19 female R 6 2 1 self moralSelf H h 1 0.6142 
19-May-2018_16:16:52 7324 19 female R 6 2 2 self immoralSelf H NA -1 1.1561 
19-May-2018_16:16:53 7324 19 female R 6 2 3 self moralSelf H h 1 0.4515 
19-May-2018_16:16:55 7324 19 female R 6 2 4 self moralSelf H h 1 0.3410 
19-May-2018_16:16:57 7324 19 female R 6 2 5 self moralOther J j 1 0.7838 
19-May-2018_16:16:59 7324 19 female R 6 2 6 self immoralSelf H h 1 0.8479 
19-May-2018_16:17:01 7324 19 female R 6 2 7 self immoralSelf H j 0 0.9219 
19-May-2018_16:17:04 7324 19 female R 6 2 8 self immoralOther J NA -1 1.1561 
19-May-2018_16:17:06 7324 19 female R 6 2 9 self immoralOther J j 1 0.5832 
19-May-2018_16:17:08 7324 19 female R 6 2 10 self immoralSelf H h 1 0.7828 
19-May-2018_16:17:10 7324 19 female R 6 2 11 self immoralOther J j 1 0.9452 
19-May-2018_16:17:13 7324 19 female R 6 2 12 self moralOther J NA -1 1.1561 
19-May-2018_16:17:14 7324 19 female R 6 2 13 self moralOther J j 1 0.5930 
19-May-2018_16:17:16 7324 19 female R 6 2 14 self immoralOther J j 1 0.5483 
19-May-2018_16:17:17 7324 19 female R 6 2 15 self moralSelf H h 1 0.5753 
19-May-2018_16:17:19 7324 19 female R 6 2 16 self moralOther J j 1 0.7899 
19-May-2018_16:17:21 7324 19 female R 6 2 17 self moralSelf H h 1 0.5626 
19-May-2018_16:17:23 7324 19 female R 6 2 18 self immoralSelf H j 0 0.7137 
19-May-2018_16:17:25 7324 19 female R 6 2 19 self immoralSelf H j 0 0.6470 
19-May-2018_16:17:27 7324 19 female R 6 2 20 self moralSelf H h 1 0.7266 
19-May-2018_16:17:28 7324 19 female R 6 2 21 self immoralOther J j 1 0.5169 
19-May-2018_16:17:30 7324 19 female R 6 2 22 self moralOther J j 1 0.6763 
19-May-2018_16:17:32 7324 19 female R 6 2 23 self moralOther J j 1 0.5160 
19-May-2018_16:17:34 7324 19 female R 6 2 24 self immoralOther J j 1 0.4944 
19-May-2018_16:17:39 7324 19 female R 6 3 1 self immoralOther J j 1 0.5911 
19-May-2018_16:17:41 7324 19 female R 6 3 2 self immoralOther J j 1 0.6189 
19-May-2018_16:17:43 7324 19 female R 6 3 3 self moralSelf H h 1 0.8067 
19-May-2018_16:17:44 7324 19 female R 6 3 4 self moralSelf H h 1 0.4661 
19-May-2018_16:17:46 7324 19 female R 6 3 5 self moralOther J h 0 0.6484 
19-May-2018_16:17:48 7324 19 female R 6 3 6 self moralSelf H h 1 0.5604 
19-May-2018_16:17:50 7324 19 female R 6 3 7 self immoralOther J j 1 0.6861 
19-May-2018_16:17:52 7324 19 female R 6 3 8 self moralSelf H h 1 0.9807 
19-May-2018_16:17:54 7324 19 female R 6 3 9 self immoralSelf H NA -1 1.1561 
19-May-2018_16:17:56 7324 19 female R 6 3 10 self moralSelf H h 1 0.7236 
19-May-2018_16:17:58 7324 19 female R 6 3 11 self moralOther J j 1 0.9400 
19-May-2018_16:18:00 7324 19 female R 6 3 12 self moralOther J j 1 0.5815 
19-May-2018_16:18:02 7324 19 female R 6 3 13 self immoralSelf H j 0 0.6221 
19-May-2018_16:18:03 7324 19 female R 6 3 14 self immoralOther J h 0 0.1062 
19-May-2018_16:18:05 7324 19 female R 6 3 15 self moralSelf H h 1 0.8283 
19-May-2018_16:18:08 7324 19 female R 6 3 16 self immoralSelf H NA -1 1.1561 
19-May-2018_16:18:09 7324 19 female R 6 3 17 self moralOther J h 0 0.1062 
19-May-2018_16:18:11 7324 19 female R 6 3 18 self immoralSelf H h 1 0.7759 
19-May-2018_16:18:14 7324 19 female R 6 3 19 self immoralOther J NA -1 1.1561 
19-May-2018_16:18:16 7324 19 female R 6 3 20 self immoralSelf H j 0 0.7854 
19-May-2018_16:18:17 7324 19 female R 6 3 21 self immoralSelf H h 1 0.7950 
19-May-2018_16:18:19 7324 19 female R 6 3 22 self immoralOther J j 1 0.7122 
19-May-2018_16:18:21 7324 19 female R 6 3 23 self moralOther J j 1 0.9108 
19-May-2018_16:18:23 7324 19 female R 6 3 24 self moralOther J j 1 0.5020 
19-May-2018_16:18:25 7324 19 female R 6 4 1 self moralOther J j 1 0.6221 
19-May-2018_16:18:27 7324 19 female R 6 4 2 self immoralSelf H h 1 0.9097 
19-May-2018_16:18:29 7324 19 female R 6 4 3 self immoralSelf H h 1 1.0085 
19-May-2018_16:18:31 7324 19 female R 6 4 4 self moralSelf H h 1 0.5475 
19-May-2018_16:18:33 7324 19 female R 6 4 5 self immoralSelf H h 1 0.7536 
19-May-2018_16:18:35 7324 19 female R 6 4 6 self moralOther J j 1 0.7377 
19-May-2018_16:18:36 7324 19 female R 6 4 7 self moralOther J h 0 0.4710 
19-May-2018_16:18:38 7324 19 female R 6 4 8 self moralOther J j 1 0.7054 
19-May-2018_16:18:40 7324 19 female R 6 4 9 self immoralSelf H j 0 0.5206 
19-May-2018_16:18:42 7324 19 female R 6 4 10 self moralSelf H h 1 0.6119 
19-May-2018_16:18:44 7324 19 female R 6 4 11 self immoralSelf H h 1 1.0967 
19-May-2018_16:18:46 7324 19 female R 6 4 12 self moralSelf H h 1 0.4540 
19-May-2018_16:18:47 7324 19 female R 6 4 13 self immoralOther J j 1 0.5147 
19-May-2018_16:18:49 7324 19 female R 6 4 14 self moralOther J j 1 0.9143 
19-May-2018_16:18:52 7324 19 female R 6 4 15 self immoralOther J NA -1 1.1561 
19-May-2018_16:18:54 7324 19 female R 6 4 16 self moralSelf H NA -1 1.1561 
19-May-2018_16:18:56 7324 19 female R 6 4 17 self immoralOther J j 1 0.9598 
19-May-2018_16:18:59 7324 19 female R 6 4 18 self immoralSelf H NA -1 1.1561 
19-May-2018_16:19:01 7324 19 female R 6 4 19 self moralSelf H h 1 1.1340 
19-May-2018_16:19:03 7324 19 female R 6 4 20 self moralOther J j 1 0.9840 
19-May-2018_16:19:05 7324 19 female R 6 4 21 self immoralOther J j 1 0.5879 
19-May-2018_16:19:07 7324 19 female R 6 4 22 self immoralOther J j 1 0.5239 
19-May-2018_16:19:09 7324 19 female R 6 4 23 self immoralOther J j 1 0.5349 
19-May-2018_16:19:11 7324 19 female R 6 4 24 self moralSelf H h 1 0.6898 
19-May-2018_16:19:32 7324 19 female R 6 5 1 self moralOther J NA -1 1.1561 
19-May-2018_16:19:34 7324 19 female R 6 5 2 self moralOther J j 1 0.9089 
19-May-2018_16:19:36 7324 19 female R 6 5 3 self immoralSelf H h 1 0.6131 
19-May-2018_16:19:38 7324 19 female R 6 5 4 self immoralOther J j 1 0.6380 
19-May-2018_16:19:40 7324 19 female R 6 5 5 self immoralSelf H h 1 0.5102 
19-May-2018_16:19:41 7324 19 female R 6 5 6 self moralSelf H h 1 0.4919 
19-May-2018_16:19:43 7324 19 female R 6 5 7 self immoralOther J j 1 0.5150 
19-May-2018_16:19:46 7324 19 female R 6 5 8 self moralOther J NA -1 1.1561 
19-May-2018_16:19:48 7324 19 female R 6 5 9 self immoralOther J NA -1 1.1561 
19-May-2018_16:19:51 7324 19 female R 6 5 10 self moralSelf H h 1 0.7793 
19-May-2018_16:19:53 7324 19 female R 6 5 11 self immoralSelf H h 1 0.8067 
19-May-2018_16:19:55 7324 19 female R 6 5 12 self immoralSelf H h 1 0.7550 
19-May-2018_16:19:57 7324 19 female R 6 5 13 self moralSelf H h 1 0.6581 
19-May-2018_16:19:58 7324 19 female R 6 5 14 self moralSelf H h 1 0.7820 
19-May-2018_16:20:00 7324 19 female R 6 5 15 self moralSelf H h 1 0.3990 
19-May-2018_16:20:02 7324 19 female R 6 5 16 self moralOther J j 1 0.6593 
19-May-2018_16:20:04 7324 19 female R 6 5 17 self moralSelf H h 1 0.7760 
19-May-2018_16:20:06 7324 19 female R 6 5 18 self immoralOther J NA -1 1.1561 
19-May-2018_16:20:09 7324 19 female R 6 5 19 self immoralOther J NA -1 1.1561 
19-May-2018_16:20:11 7324 19 female R 6 5 20 self moralOther J NA -1 1.1561 
19-May-2018_16:20:13 7324 19 female R 6 5 21 self immoralSelf H NA -1 1.1561 
19-May-2018_16:20:16 7324 19 female R 6 5 22 self immoralSelf H NA -1 1.1561 
19-May-2018_16:20:18 7324 19 female R 6 5 23 self immoralOther J j 1 0.6703 
19-May-2018_16:20:20 7324 19 female R 6 5 24 self moralOther J NA -1 1.1561 
