Date Sub Age Sex Hand Block Bin Trial Task Shape corrResp Resp ACC RT
05-Jun-2018_15:49:53 7342 18 female R 1 1 1 self moralSelf H h 1 0.6407 
05-Jun-2018_15:49:55 7342 18 female R 1 1 2 self moralSelf H h 1 0.5063 
05-Jun-2018_15:49:57 7342 18 female R 1 1 3 self moralOther J j 1 0.6447 
05-Jun-2018_15:49:59 7342 18 female R 1 1 4 self immoralOther J j 1 0.3291 
05-Jun-2018_15:50:00 7342 18 female R 1 1 5 self moralSelf H h 1 0.5239 
05-Jun-2018_15:50:02 7342 18 female R 1 1 6 self moralOther J j 1 0.4426 
05-Jun-2018_15:50:04 7342 18 female R 1 1 7 self moralOther J j 1 0.7029 
05-Jun-2018_15:50:06 7342 18 female R 1 1 8 self immoralSelf H h 1 0.7496 
05-Jun-2018_15:50:08 7342 18 female R 1 1 9 self moralOther J j 1 0.5068 
05-Jun-2018_15:50:10 7342 18 female R 1 1 10 self moralOther J h 0 0.7300 
05-Jun-2018_15:50:11 7342 18 female R 1 1 11 self immoralOther J j 1 0.6448 
05-Jun-2018_15:50:13 7342 18 female R 1 1 12 self moralSelf H h 1 0.5804 
05-Jun-2018_15:50:15 7342 18 female R 1 1 13 self immoralSelf H h 1 0.4374 
05-Jun-2018_15:50:17 7342 18 female R 1 1 14 self immoralOther J j 1 0.4747 
05-Jun-2018_15:50:19 7342 18 female R 1 1 15 self immoralSelf H h 1 0.5063 
05-Jun-2018_15:50:20 7342 18 female R 1 1 16 self immoralSelf H h 1 0.4574 
05-Jun-2018_15:50:22 7342 18 female R 1 1 17 self immoralOther J j 1 0.6190 
05-Jun-2018_15:50:24 7342 18 female R 1 1 18 self moralSelf H j 0 0.5997 
05-Jun-2018_15:50:26 7342 18 female R 1 1 19 self immoralSelf H j 0 0.6802 
05-Jun-2018_15:50:28 7342 18 female R 1 1 20 self moralSelf H h 1 0.6789 
05-Jun-2018_15:50:29 7342 18 female R 1 1 21 self immoralOther J j 1 0.4267 
05-Jun-2018_15:50:31 7342 18 female R 1 1 22 self immoralSelf H h 1 0.4042 
05-Jun-2018_15:50:32 7342 18 female R 1 1 23 self immoralOther J h 0 0.2994 
05-Jun-2018_15:50:34 7342 18 female R 1 1 24 self moralOther J j 1 0.5846 
05-Jun-2018_15:50:36 7342 18 female R 1 2 1 self immoralSelf H h 1 0.4487 
05-Jun-2018_15:50:38 7342 18 female R 1 2 2 self moralSelf H h 1 0.9174 
05-Jun-2018_15:50:40 7342 18 female R 1 2 3 self moralOther J j 1 0.5548 
05-Jun-2018_15:50:42 7342 18 female R 1 2 4 self immoralSelf H h 1 0.7656 
05-Jun-2018_15:50:44 7342 18 female R 1 2 5 self immoralOther J j 1 0.5182 
05-Jun-2018_15:50:45 7342 18 female R 1 2 6 self immoralOther J j 1 0.3822 
05-Jun-2018_15:50:47 7342 18 female R 1 2 7 self immoralOther J j 1 0.3151 
05-Jun-2018_15:50:48 7342 18 female R 1 2 8 self moralOther J j 1 0.2662 
05-Jun-2018_15:50:50 7342 18 female R 1 2 9 self immoralSelf H h 1 0.3565 
05-Jun-2018_15:50:51 7342 18 female R 1 2 10 self immoralSelf H h 1 0.5143 
05-Jun-2018_15:50:53 7342 18 female R 1 2 11 self moralSelf H h 1 0.6508 
05-Jun-2018_15:50:55 7342 18 female R 1 2 12 self moralOther J h 0 0.3487 
05-Jun-2018_15:50:57 7342 18 female R 1 2 13 self immoralOther J j 1 0.6128 
05-Jun-2018_15:50:58 7342 18 female R 1 2 14 self moralSelf H h 1 0.5193 
05-Jun-2018_15:51:00 7342 18 female R 1 2 15 self moralOther J j 1 0.7137 
05-Jun-2018_15:51:01 7342 18 female R 1 2 16 self immoralOther J j 1 0.5236 
05-Jun-2018_15:51:03 7342 18 female R 1 2 17 self moralSelf H h 1 0.4084 
05-Jun-2018_15:51:05 7342 18 female R 1 2 18 self immoralOther J j 1 0.4207 
05-Jun-2018_15:51:07 7342 18 female R 1 2 19 self moralSelf H h 1 0.4377 
05-Jun-2018_15:51:08 7342 18 female R 1 2 20 self moralOther J j 1 0.5262 
05-Jun-2018_15:51:10 7342 18 female R 1 2 21 self immoralSelf H h 1 0.4041 
05-Jun-2018_15:51:11 7342 18 female R 1 2 22 self moralOther J j 1 0.5452 
05-Jun-2018_15:51:13 7342 18 female R 1 2 23 self moralSelf H h 1 0.4479 
05-Jun-2018_15:51:15 7342 18 female R 1 2 24 self immoralSelf H h 1 0.4725 
05-Jun-2018_15:51:31 7342 18 female R 1 3 1 self moralOther J j 1 0.4995 
05-Jun-2018_15:51:32 7342 18 female R 1 3 2 self moralOther J j 1 0.4463 
05-Jun-2018_15:51:34 7342 18 female R 1 3 3 self immoralOther J j 1 0.3311 
05-Jun-2018_15:51:36 7342 18 female R 1 3 4 self immoralSelf H h 1 0.4874 
05-Jun-2018_15:51:38 7342 18 female R 1 3 5 self immoralOther J j 1 0.5938 
05-Jun-2018_15:51:39 7342 18 female R 1 3 6 self immoralSelf H j 0 0.3304 
05-Jun-2018_15:51:41 7342 18 female R 1 3 7 self immoralSelf H h 1 0.5107 
05-Jun-2018_15:51:43 7342 18 female R 1 3 8 self immoralOther J j 1 0.5150 
05-Jun-2018_15:51:45 7342 18 female R 1 3 9 self immoralSelf H h 1 0.5861 
05-Jun-2018_15:51:47 7342 18 female R 1 3 10 self immoralOther J j 1 0.5029 
05-Jun-2018_15:51:48 7342 18 female R 1 3 11 self moralOther J j 1 0.3886 
05-Jun-2018_15:51:50 7342 18 female R 1 3 12 self immoralSelf H h 1 0.4550 
05-Jun-2018_15:51:52 7342 18 female R 1 3 13 self moralSelf H h 1 0.5624 
05-Jun-2018_15:51:53 7342 18 female R 1 3 14 self moralSelf H h 1 0.4740 
05-Jun-2018_15:51:55 7342 18 female R 1 3 15 self moralSelf H h 1 0.4078 
05-Jun-2018_15:51:57 7342 18 female R 1 3 16 self moralSelf H h 1 0.4714 
05-Jun-2018_15:51:58 7342 18 female R 1 3 17 self moralSelf H h 1 0.3274 
05-Jun-2018_15:52:00 7342 18 female R 1 3 18 self immoralSelf H h 1 0.5750 
05-Jun-2018_15:52:02 7342 18 female R 1 3 19 self moralSelf H h 1 0.3860 
05-Jun-2018_15:52:04 7342 18 female R 1 3 20 self moralOther J j 1 0.4179 
05-Jun-2018_15:52:05 7342 18 female R 1 3 21 self moralOther J j 1 0.2925 
05-Jun-2018_15:52:07 7342 18 female R 1 3 22 self moralOther J j 1 0.3061 
05-Jun-2018_15:52:08 7342 18 female R 1 3 23 self immoralOther J j 1 0.5368 
05-Jun-2018_15:52:10 7342 18 female R 1 3 24 self immoralOther J j 1 0.4136 
05-Jun-2018_15:52:12 7342 18 female R 1 4 1 self immoralSelf H h 1 0.3609 
05-Jun-2018_15:52:14 7342 18 female R 1 4 2 self immoralOther J j 1 0.4772 
05-Jun-2018_15:52:16 7342 18 female R 1 4 3 self immoralSelf H h 1 0.3469 
05-Jun-2018_15:52:17 7342 18 female R 1 4 4 self moralOther J j 1 0.5178 
05-Jun-2018_15:52:19 7342 18 female R 1 4 5 self moralSelf H j 0 0.4435 
05-Jun-2018_15:52:21 7342 18 female R 1 4 6 self immoralOther J j 1 0.4902 
05-Jun-2018_15:52:22 7342 18 female R 1 4 7 self moralOther J j 1 0.5595 
05-Jun-2018_15:52:24 7342 18 female R 1 4 8 self immoralSelf H h 1 0.5750 
05-Jun-2018_15:52:26 7342 18 female R 1 4 9 self moralOther J j 1 0.4645 
05-Jun-2018_15:52:28 7342 18 female R 1 4 10 self moralSelf H h 1 0.4058 
05-Jun-2018_15:52:30 7342 18 female R 1 4 11 self immoralOther J j 1 0.5799 
05-Jun-2018_15:52:31 7342 18 female R 1 4 12 self moralSelf H h 1 0.4074 
05-Jun-2018_15:52:33 7342 18 female R 1 4 13 self moralOther J j 1 0.5194 
05-Jun-2018_15:52:34 7342 18 female R 1 4 14 self immoralSelf H h 1 0.2089 
05-Jun-2018_15:52:35 7342 18 female R 1 4 15 self immoralSelf H j 0 0.2513 
05-Jun-2018_15:52:37 7342 18 female R 1 4 16 self moralSelf H h 1 0.4293 
05-Jun-2018_15:52:39 7342 18 female R 1 4 17 self moralSelf H h 1 0.4834 
05-Jun-2018_15:52:41 7342 18 female R 1 4 18 self immoralOther J j 1 0.5598 
05-Jun-2018_15:52:42 7342 18 female R 1 4 19 self immoralOther J j 1 0.5198 
05-Jun-2018_15:52:44 7342 18 female R 1 4 20 self moralOther J j 1 0.2667 
05-Jun-2018_15:52:45 7342 18 female R 1 4 21 self moralSelf H j 0 0.2668 
05-Jun-2018_15:52:47 7342 18 female R 1 4 22 self moralOther J j 1 0.4476 
05-Jun-2018_15:52:49 7342 18 female R 1 4 23 self immoralSelf H h 1 0.5140 
05-Jun-2018_15:52:51 7342 18 female R 1 4 24 self immoralOther J j 1 0.5093 
05-Jun-2018_15:53:10 7342 18 female R 1 5 1 self immoralOther J j 1 0.7524 
05-Jun-2018_15:53:11 7342 18 female R 1 5 2 self moralOther J j 1 0.7153 
05-Jun-2018_15:53:13 7342 18 female R 1 5 3 self immoralOther J j 1 0.5564 
05-Jun-2018_15:53:15 7342 18 female R 1 5 4 self moralOther J j 1 0.5014 
05-Jun-2018_15:53:17 7342 18 female R 1 5 5 self immoralOther J j 1 0.4186 
05-Jun-2018_15:53:18 7342 18 female R 1 5 6 self immoralOther J j 1 0.4013 
05-Jun-2018_15:53:20 7342 18 female R 1 5 7 self immoralSelf H h 1 0.2659 
05-Jun-2018_15:53:21 7342 18 female R 1 5 8 self moralOther J j 1 0.3906 
05-Jun-2018_15:53:23 7342 18 female R 1 5 9 self immoralSelf H h 1 0.3117 
05-Jun-2018_15:53:25 7342 18 female R 1 5 10 self immoralSelf H h 1 0.4985 
05-Jun-2018_15:53:26 7342 18 female R 1 5 11 self moralSelf H h 1 0.3871 
05-Jun-2018_15:53:28 7342 18 female R 1 5 12 self moralSelf H h 1 0.3025 
05-Jun-2018_15:53:29 7342 18 female R 1 5 13 self moralOther J h 0 0.2277 
05-Jun-2018_15:53:31 7342 18 female R 1 5 14 self immoralSelf H h 1 0.4070 
05-Jun-2018_15:53:32 7342 18 female R 1 5 15 self moralSelf H h 1 0.4551 
05-Jun-2018_15:53:34 7342 18 female R 1 5 16 self immoralOther J j 1 0.2872 
05-Jun-2018_15:53:36 7342 18 female R 1 5 17 self moralOther J j 1 0.2670 
05-Jun-2018_15:53:37 7342 18 female R 1 5 18 self moralSelf H j 0 0.2572 
05-Jun-2018_15:53:39 7342 18 female R 1 5 19 self moralOther J j 1 0.4723 
05-Jun-2018_15:53:41 7342 18 female R 1 5 20 self immoralSelf H h 1 0.6460 
05-Jun-2018_15:53:42 7342 18 female R 1 5 21 self immoralOther J h 0 0.3383 
05-Jun-2018_15:53:44 7342 18 female R 1 5 22 self moralSelf H h 1 0.4654 
05-Jun-2018_15:53:45 7342 18 female R 1 5 23 self immoralSelf H h 1 0.4546 
05-Jun-2018_15:53:47 7342 18 female R 1 5 24 self moralSelf H h 1 0.5912 
Date Sub Age Sex Hand Block Bin Trial Task Shape corrResp Resp ACC RT
05-Jun-2018_15:56:40 7342 18 female R 2 1 1 moral moralOther U u 1 0.4723 
05-Jun-2018_15:56:41 7342 18 female R 2 1 2 moral immoralSelf Y y 1 0.5034 
05-Jun-2018_15:56:43 7342 18 female R 2 1 3 moral immoralSelf Y y 1 0.3275 
05-Jun-2018_15:56:45 7342 18 female R 2 1 4 moral immoralOther Y y 1 0.5840 
05-Jun-2018_15:56:46 7342 18 female R 2 1 5 moral immoralOther Y y 1 0.3859 
05-Jun-2018_15:56:48 7342 18 female R 2 1 6 moral moralSelf U u 1 0.3253 
05-Jun-2018_15:56:50 7342 18 female R 2 1 7 moral immoralSelf Y y 1 0.3961 
05-Jun-2018_15:56:51 7342 18 female R 2 1 8 moral moralOther U u 1 0.2648 
05-Jun-2018_15:56:53 7342 18 female R 2 1 9 moral moralOther U u 1 0.3613 
05-Jun-2018_15:56:54 7342 18 female R 2 1 10 moral immoralOther Y u 0 0.3397 
05-Jun-2018_15:56:56 7342 18 female R 2 1 11 moral moralSelf U u 1 0.5996 
05-Jun-2018_15:56:58 7342 18 female R 2 1 12 moral moralOther U u 1 0.3653 
05-Jun-2018_15:56:59 7342 18 female R 2 1 13 moral immoralOther Y y 1 0.3310 
05-Jun-2018_15:57:01 7342 18 female R 2 1 14 moral moralOther U u 1 0.4218 
05-Jun-2018_15:57:03 7342 18 female R 2 1 15 moral immoralSelf Y y 1 0.2991 
05-Jun-2018_15:57:04 7342 18 female R 2 1 16 moral immoralSelf Y y 1 0.3374 
05-Jun-2018_15:57:06 7342 18 female R 2 1 17 moral moralSelf U u 1 0.5340 
05-Jun-2018_15:57:07 7342 18 female R 2 1 18 moral moralSelf U u 1 0.3544 
05-Jun-2018_15:57:09 7342 18 female R 2 1 19 moral immoralOther Y u 0 0.2773 
05-Jun-2018_15:57:10 7342 18 female R 2 1 20 moral moralOther U u 1 0.3790 
05-Jun-2018_15:57:12 7342 18 female R 2 1 21 moral immoralOther Y y 1 0.3155 
05-Jun-2018_15:57:14 7342 18 female R 2 1 22 moral moralSelf U u 1 0.4676 
05-Jun-2018_15:57:15 7342 18 female R 2 1 23 moral moralSelf U y 0 0.3909 
05-Jun-2018_15:57:17 7342 18 female R 2 1 24 moral immoralSelf Y y 1 0.4118 
05-Jun-2018_15:57:18 7342 18 female R 2 2 1 moral moralOther U u 1 0.4424 
05-Jun-2018_15:57:20 7342 18 female R 2 2 2 moral moralOther U u 1 0.3723 
05-Jun-2018_15:57:21 7342 18 female R 2 2 3 moral moralSelf U u 1 0.5432 
05-Jun-2018_15:57:23 7342 18 female R 2 2 4 moral immoralOther Y y 1 0.4016 
05-Jun-2018_15:57:24 7342 18 female R 2 2 5 moral moralOther U u 1 0.4084 
05-Jun-2018_15:57:26 7342 18 female R 2 2 6 moral moralSelf U u 1 0.5491 
05-Jun-2018_15:57:28 7342 18 female R 2 2 7 moral moralOther U u 1 0.5237 
05-Jun-2018_15:57:29 7342 18 female R 2 2 8 moral immoralSelf Y y 1 0.3713 
05-Jun-2018_15:57:31 7342 18 female R 2 2 9 moral immoralSelf Y y 1 0.3059 
05-Jun-2018_15:57:33 7342 18 female R 2 2 10 moral moralSelf U u 1 0.3757 
05-Jun-2018_15:57:34 7342 18 female R 2 2 11 moral moralOther U u 1 0.3481 
05-Jun-2018_15:57:36 7342 18 female R 2 2 12 moral immoralOther Y y 1 0.3476 
05-Jun-2018_15:57:38 7342 18 female R 2 2 13 moral immoralOther Y y 1 0.5190 
05-Jun-2018_15:57:40 7342 18 female R 2 2 14 moral immoralSelf Y y 1 0.4823 
05-Jun-2018_15:57:41 7342 18 female R 2 2 15 moral immoralSelf Y y 1 0.4726 
05-Jun-2018_15:57:43 7342 18 female R 2 2 16 moral moralOther U u 1 0.4419 
05-Jun-2018_15:57:45 7342 18 female R 2 2 17 moral moralSelf U u 1 0.4463 
05-Jun-2018_15:57:47 7342 18 female R 2 2 18 moral immoralSelf Y NA -1 1.0731 
05-Jun-2018_15:57:49 7342 18 female R 2 2 19 moral moralSelf U u 1 0.7932 
05-Jun-2018_15:57:51 7342 18 female R 2 2 20 moral immoralOther Y y 1 0.8366 
05-Jun-2018_15:57:53 7342 18 female R 2 2 21 moral moralSelf U u 1 0.5402 
05-Jun-2018_15:57:54 7342 18 female R 2 2 22 moral immoralOther Y y 1 0.5201 
05-Jun-2018_15:57:56 7342 18 female R 2 2 23 moral immoralOther Y y 1 0.5583 
05-Jun-2018_15:57:58 7342 18 female R 2 2 24 moral immoralSelf Y y 1 0.5584 
05-Jun-2018_15:58:57 7342 18 female R 2 3 1 moral moralOther U u 1 0.3518 
05-Jun-2018_15:58:59 7342 18 female R 2 3 2 moral immoralOther Y y 1 0.4399 
05-Jun-2018_15:59:00 7342 18 female R 2 3 3 moral immoralOther Y y 1 0.4231 
05-Jun-2018_15:59:02 7342 18 female R 2 3 4 moral immoralSelf Y y 1 0.3931 
05-Jun-2018_15:59:04 7342 18 female R 2 3 5 moral immoralSelf Y y 1 0.3338 
05-Jun-2018_15:59:05 7342 18 female R 2 3 6 moral immoralOther Y y 1 0.4727 
05-Jun-2018_15:59:07 7342 18 female R 2 3 7 moral moralOther U u 1 0.3791 
05-Jun-2018_15:59:09 7342 18 female R 2 3 8 moral immoralOther Y y 1 0.4695 
05-Jun-2018_15:59:11 7342 18 female R 2 3 9 moral immoralSelf Y y 1 0.4033 
05-Jun-2018_15:59:12 7342 18 female R 2 3 10 moral immoralSelf Y y 1 0.3752 
05-Jun-2018_15:59:14 7342 18 female R 2 3 11 moral moralOther U u 1 0.3315 
05-Jun-2018_15:59:15 7342 18 female R 2 3 12 moral moralSelf U u 1 0.3433 
05-Jun-2018_15:59:16 7342 18 female R 2 3 13 moral immoralSelf Y y 1 0.4190 
05-Jun-2018_15:59:18 7342 18 female R 2 3 14 moral immoralSelf Y y 1 0.3951 
05-Jun-2018_15:59:20 7342 18 female R 2 3 15 moral moralSelf U u 1 0.5744 
05-Jun-2018_15:59:21 7342 18 female R 2 3 16 moral immoralOther Y y 1 0.4131 
05-Jun-2018_15:59:23 7342 18 female R 2 3 17 moral moralSelf U u 1 0.4429 
05-Jun-2018_15:59:25 7342 18 female R 2 3 18 moral moralSelf U u 1 0.3442 
05-Jun-2018_15:59:26 7342 18 female R 2 3 19 moral moralOther U u 1 0.4378 
05-Jun-2018_15:59:28 7342 18 female R 2 3 20 moral moralSelf U u 1 0.4449 
05-Jun-2018_15:59:30 7342 18 female R 2 3 21 moral immoralOther Y y 1 0.4502 
05-Jun-2018_15:59:31 7342 18 female R 2 3 22 moral moralSelf U u 1 0.2771 
05-Jun-2018_15:59:33 7342 18 female R 2 3 23 moral moralOther U u 1 0.4532 
05-Jun-2018_15:59:34 7342 18 female R 2 3 24 moral moralOther U u 1 0.3587 
05-Jun-2018_15:59:36 7342 18 female R 2 4 1 moral immoralOther Y y 1 0.5526 
05-Jun-2018_15:59:38 7342 18 female R 2 4 2 moral moralOther U u 1 0.3338 
05-Jun-2018_15:59:39 7342 18 female R 2 4 3 moral moralOther U u 1 0.4610 
05-Jun-2018_15:59:41 7342 18 female R 2 4 4 moral immoralOther Y y 1 0.4709 
05-Jun-2018_15:59:43 7342 18 female R 2 4 5 moral immoralSelf Y y 1 0.5768 
05-Jun-2018_15:59:45 7342 18 female R 2 4 6 moral immoralSelf Y y 1 0.4739 
05-Jun-2018_15:59:46 7342 18 female R 2 4 7 moral moralSelf U u 1 0.4425 
05-Jun-2018_15:59:48 7342 18 female R 2 4 8 moral moralSelf U u 1 0.3968 
05-Jun-2018_15:59:49 7342 18 female R 2 4 9 moral immoralOther Y u 0 0.4919 
05-Jun-2018_15:59:51 7342 18 female R 2 4 10 moral immoralOther Y y 1 0.5494 
05-Jun-2018_15:59:53 7342 18 female R 2 4 11 moral immoralOther Y y 1 0.4493 
05-Jun-2018_15:59:54 7342 18 female R 2 4 12 moral immoralSelf Y y 1 0.4268 
05-Jun-2018_15:59:56 7342 18 female R 2 4 13 moral immoralOther Y y 1 0.4771 
05-Jun-2018_15:59:58 7342 18 female R 2 4 14 moral moralOther U y 0 0.3545 
05-Jun-2018_15:59:59 7342 18 female R 2 4 15 moral moralSelf U u 1 0.4293 
05-Jun-2018_16:00:01 7342 18 female R 2 4 16 moral immoralSelf Y y 1 0.4896 
05-Jun-2018_16:00:02 7342 18 female R 2 4 17 moral moralOther U u 1 0.3500 
05-Jun-2018_16:00:04 7342 18 female R 2 4 18 moral moralOther U u 1 0.3843 
05-Jun-2018_16:00:06 7342 18 female R 2 4 19 moral moralSelf U u 1 0.4931 
05-Jun-2018_16:00:08 7342 18 female R 2 4 20 moral moralSelf U u 1 0.3804 
05-Jun-2018_16:00:09 7342 18 female R 2 4 21 moral moralOther U u 1 0.4589 
05-Jun-2018_16:00:11 7342 18 female R 2 4 22 moral immoralSelf Y y 1 0.5748 
05-Jun-2018_16:00:13 7342 18 female R 2 4 23 moral moralSelf U u 1 0.6083 
05-Jun-2018_16:00:15 7342 18 female R 2 4 24 moral immoralSelf Y y 1 0.5665 
05-Jun-2018_16:00:27 7342 18 female R 2 5 1 moral immoralSelf Y y 1 0.4874 
05-Jun-2018_16:00:29 7342 18 female R 2 5 2 moral immoralOther Y y 1 0.4871 
05-Jun-2018_16:00:30 7342 18 female R 2 5 3 moral immoralSelf Y y 1 0.4288 
05-Jun-2018_16:00:32 7342 18 female R 2 5 4 moral immoralSelf Y y 1 0.3516 
05-Jun-2018_16:00:33 7342 18 female R 2 5 5 moral moralOther U u 1 0.3662 
05-Jun-2018_16:00:35 7342 18 female R 2 5 6 moral moralSelf U u 1 0.3338 
05-Jun-2018_16:00:36 7342 18 female R 2 5 7 moral moralOther U u 1 0.3914 
05-Jun-2018_16:00:38 7342 18 female R 2 5 8 moral immoralSelf Y y 1 0.4639 
05-Jun-2018_16:00:39 7342 18 female R 2 5 9 moral moralOther U u 1 0.3180 
05-Jun-2018_16:00:41 7342 18 female R 2 5 10 moral immoralOther Y y 1 0.4725 
05-Jun-2018_16:00:42 7342 18 female R 2 5 11 moral moralSelf U u 1 0.3563 
05-Jun-2018_16:00:44 7342 18 female R 2 5 12 moral immoralOther Y y 1 0.5756 
05-Jun-2018_16:00:46 7342 18 female R 2 5 13 moral moralSelf U u 1 0.6290 
05-Jun-2018_16:00:48 7342 18 female R 2 5 14 moral moralSelf U u 1 0.3546 
05-Jun-2018_16:00:49 7342 18 female R 2 5 15 moral moralOther U u 1 0.2836 
05-Jun-2018_16:00:50 7342 18 female R 2 5 16 moral moralSelf U u 1 0.3058 
05-Jun-2018_16:00:52 7342 18 female R 2 5 17 moral moralOther U u 1 0.3341 
05-Jun-2018_16:00:54 7342 18 female R 2 5 18 moral immoralOther Y u 0 0.2565 
05-Jun-2018_16:00:56 7342 18 female R 2 5 19 moral moralSelf U y 0 0.3174 
05-Jun-2018_16:00:57 7342 18 female R 2 5 20 moral immoralSelf Y y 1 0.4524 
05-Jun-2018_16:00:59 7342 18 female R 2 5 21 moral immoralSelf Y NA -1 1.0731 
05-Jun-2018_16:01:01 7342 18 female R 2 5 22 moral immoralOther Y NA -1 1.0731 
05-Jun-2018_16:01:03 7342 18 female R 2 5 23 moral moralOther U u 1 0.4452 
05-Jun-2018_16:01:04 7342 18 female R 2 5 24 moral immoralOther Y y 1 0.5187 
Date Sub Age Sex Hand Block Bin Trial Task Shape corrResp Resp ACC RT
05-Jun-2018_16:03:12 7342 18 female R 3 1 1 self moralOther J j 1 0.7770 
05-Jun-2018_16:03:13 7342 18 female R 3 1 2 self immoralOther J j 1 0.3757 
05-Jun-2018_16:03:15 7342 18 female R 3 1 3 self moralOther J j 1 0.4826 
05-Jun-2018_16:03:17 7342 18 female R 3 1 4 self immoralSelf H h 1 0.4803 
05-Jun-2018_16:03:18 7342 18 female R 3 1 5 self moralSelf H h 1 0.3548 
05-Jun-2018_16:03:20 7342 18 female R 3 1 6 self immoralSelf H h 1 0.5689 
05-Jun-2018_16:03:22 7342 18 female R 3 1 7 self moralSelf H h 1 0.6693 
05-Jun-2018_16:03:24 7342 18 female R 3 1 8 self moralOther J j 1 0.3687 
05-Jun-2018_16:03:25 7342 18 female R 3 1 9 self moralOther J j 1 0.2873 
05-Jun-2018_16:03:27 7342 18 female R 3 1 10 self moralSelf H h 1 0.5226 
05-Jun-2018_16:03:29 7342 18 female R 3 1 11 self moralSelf H h 1 0.5571 
05-Jun-2018_16:03:31 7342 18 female R 3 1 12 self moralSelf H h 1 0.3487 
05-Jun-2018_16:03:33 7342 18 female R 3 1 13 self immoralOther J h 0 1.0179 
05-Jun-2018_16:03:35 7342 18 female R 3 1 14 self immoralSelf H j 0 0.8369 
05-Jun-2018_16:03:37 7342 18 female R 3 1 15 self moralOther J j 1 0.6526 
05-Jun-2018_16:03:38 7342 18 female R 3 1 16 self immoralOther J j 1 0.5635 
05-Jun-2018_16:03:40 7342 18 female R 3 1 17 self immoralOther J j 1 0.4201 
05-Jun-2018_16:03:42 7342 18 female R 3 1 18 self immoralSelf H h 1 0.4386 
05-Jun-2018_16:03:43 7342 18 female R 3 1 19 self moralOther J j 1 0.4881 
05-Jun-2018_16:03:45 7342 18 female R 3 1 20 self immoralSelf H h 1 0.4736 
05-Jun-2018_16:03:47 7342 18 female R 3 1 21 self moralSelf H h 1 0.5212 
05-Jun-2018_16:03:48 7342 18 female R 3 1 22 self immoralOther J j 1 0.5047 
05-Jun-2018_16:03:50 7342 18 female R 3 1 23 self immoralSelf H h 1 0.5787 
05-Jun-2018_16:03:52 7342 18 female R 3 1 24 self immoralOther J j 1 0.5185 
05-Jun-2018_16:03:54 7342 18 female R 3 2 1 self moralOther J j 1 0.7163 
05-Jun-2018_16:03:56 7342 18 female R 3 2 2 self moralOther J j 1 0.4420 
05-Jun-2018_16:03:57 7342 18 female R 3 2 3 self moralOther J j 1 0.4157 
05-Jun-2018_16:03:59 7342 18 female R 3 2 4 self moralSelf H j 0 0.4910 
05-Jun-2018_16:04:01 7342 18 female R 3 2 5 self immoralOther J j 1 0.7405 
05-Jun-2018_16:04:03 7342 18 female R 3 2 6 self immoralSelf H h 1 1.0097 
05-Jun-2018_16:04:05 7342 18 female R 3 2 7 self moralSelf H h 1 0.4607 
05-Jun-2018_16:04:07 7342 18 female R 3 2 8 self immoralSelf H h 1 0.6133 
05-Jun-2018_16:04:09 7342 18 female R 3 2 9 self moralSelf H h 1 0.6900 
05-Jun-2018_16:04:11 7342 18 female R 3 2 10 self immoralOther J j 1 0.6577 
05-Jun-2018_16:04:12 7342 18 female R 3 2 11 self immoralOther J j 1 0.5975 
05-Jun-2018_16:04:14 7342 18 female R 3 2 12 self moralOther J j 1 0.7185 
05-Jun-2018_16:04:16 7342 18 female R 3 2 13 self immoralSelf H h 1 0.4335 
05-Jun-2018_16:04:17 7342 18 female R 3 2 14 self immoralSelf H h 1 0.3879 
05-Jun-2018_16:04:19 7342 18 female R 3 2 15 self immoralOther J j 1 0.5399 
05-Jun-2018_16:04:21 7342 18 female R 3 2 16 self moralOther J j 1 0.6307 
05-Jun-2018_16:04:23 7342 18 female R 3 2 17 self moralSelf H h 1 0.5105 
05-Jun-2018_16:04:24 7342 18 female R 3 2 18 self moralSelf H j 0 0.1402 
05-Jun-2018_16:04:26 7342 18 female R 3 2 19 self immoralOther J j 1 0.8498 
05-Jun-2018_16:04:29 7342 18 female R 3 2 20 self immoralSelf H NA -1 1.0731 
05-Jun-2018_16:04:31 7342 18 female R 3 2 21 self immoralSelf H h 1 0.5003 
05-Jun-2018_16:04:32 7342 18 female R 3 2 22 self moralOther J j 1 0.4464 
05-Jun-2018_16:04:34 7342 18 female R 3 2 23 self moralSelf H h 1 0.7307 
05-Jun-2018_16:04:36 7342 18 female R 3 2 24 self immoralOther J h 0 0.3849 
05-Jun-2018_16:04:49 7342 18 female R 3 3 1 self moralSelf H h 1 0.4941 
05-Jun-2018_16:04:51 7342 18 female R 3 3 2 self immoralOther J j 1 0.3760 
05-Jun-2018_16:04:53 7342 18 female R 3 3 3 self moralSelf H h 1 0.6392 
05-Jun-2018_16:04:55 7342 18 female R 3 3 4 self immoralSelf H h 1 0.5179 
05-Jun-2018_16:04:56 7342 18 female R 3 3 5 self immoralOther J j 1 0.4516 
05-Jun-2018_16:04:58 7342 18 female R 3 3 6 self moralOther J j 1 0.5024 
05-Jun-2018_16:05:00 7342 18 female R 3 3 7 self moralOther J j 1 0.4173 
05-Jun-2018_16:05:01 7342 18 female R 3 3 8 self immoralOther J j 1 0.5633 
05-Jun-2018_16:05:03 7342 18 female R 3 3 9 self moralSelf H h 1 0.4701 
05-Jun-2018_16:05:05 7342 18 female R 3 3 10 self immoralOther J j 1 0.7507 
05-Jun-2018_16:05:06 7342 18 female R 3 3 11 self moralOther J j 1 0.5654 
05-Jun-2018_16:05:08 7342 18 female R 3 3 12 self moralSelf H h 1 0.6121 
05-Jun-2018_16:05:10 7342 18 female R 3 3 13 self moralSelf H h 1 0.4582 
05-Jun-2018_16:05:12 7342 18 female R 3 3 14 self immoralOther J j 1 0.5769 
05-Jun-2018_16:05:14 7342 18 female R 3 3 15 self moralOther J h 0 0.7746 
05-Jun-2018_16:05:15 7342 18 female R 3 3 16 self immoralSelf H h 1 0.4867 
05-Jun-2018_16:05:17 7342 18 female R 3 3 17 self immoralSelf H h 1 0.4279 
05-Jun-2018_16:05:19 7342 18 female R 3 3 18 self moralOther J j 1 0.5514 
05-Jun-2018_16:05:21 7342 18 female R 3 3 19 self moralOther J j 1 0.4418 
05-Jun-2018_16:05:23 7342 18 female R 3 3 20 self moralSelf H h 1 0.5351 
05-Jun-2018_16:05:24 7342 18 female R 3 3 21 self immoralSelf H h 1 0.5026 
05-Jun-2018_16:05:26 7342 18 female R 3 3 22 self immoralSelf H h 1 0.4171 
05-Jun-2018_16:05:28 7342 18 female R 3 3 23 self immoralSelf H h 1 0.3338 
05-Jun-2018_16:05:29 7342 18 female R 3 3 24 self immoralOther J j 1 0.5160 
05-Jun-2018_16:05:31 7342 18 female R 3 4 1 self immoralSelf H h 1 0.4680 
05-Jun-2018_16:05:33 7342 18 female R 3 4 2 self moralSelf H h 1 0.5796 
05-Jun-2018_16:05:35 7342 18 female R 3 4 3 self moralOther J j 1 0.4231 
05-Jun-2018_16:05:36 7342 18 female R 3 4 4 self moralSelf H h 1 0.6273 
05-Jun-2018_16:05:38 7342 18 female R 3 4 5 self immoralSelf H h 1 0.4712 
05-Jun-2018_16:05:40 7342 18 female R 3 4 6 self immoralOther J j 1 0.6802 
05-Jun-2018_16:05:43 7342 18 female R 3 4 7 self moralOther J j 1 0.7927 
05-Jun-2018_16:05:44 7342 18 female R 3 4 8 self immoralOther J j 1 0.3999 
05-Jun-2018_16:05:46 7342 18 female R 3 4 9 self moralOther J j 1 0.3684 
05-Jun-2018_16:05:48 7342 18 female R 3 4 10 self immoralSelf H h 1 0.5167 
05-Jun-2018_16:05:49 7342 18 female R 3 4 11 self immoralOther J j 1 0.6368 
05-Jun-2018_16:05:51 7342 18 female R 3 4 12 self immoralOther J j 1 0.7541 
05-Jun-2018_16:05:53 7342 18 female R 3 4 13 self moralOther J h 0 0.5791 
05-Jun-2018_16:05:55 7342 18 female R 3 4 14 self immoralSelf H h 1 0.5683 
05-Jun-2018_16:05:57 7342 18 female R 3 4 15 self moralSelf H h 1 0.6060 
05-Jun-2018_16:05:58 7342 18 female R 3 4 16 self moralOther J j 1 0.5253 
05-Jun-2018_16:06:00 7342 18 female R 3 4 17 self moralOther J j 1 0.4538 
05-Jun-2018_16:06:01 7342 18 female R 3 4 18 self immoralOther J j 1 0.5225 
05-Jun-2018_16:06:03 7342 18 female R 3 4 19 self moralSelf H h 1 0.6314 
05-Jun-2018_16:06:05 7342 18 female R 3 4 20 self immoralSelf H h 1 0.4408 
05-Jun-2018_16:06:07 7342 18 female R 3 4 21 self immoralSelf H h 1 0.3707 
05-Jun-2018_16:06:09 7342 18 female R 3 4 22 self immoralOther J j 1 0.5124 
05-Jun-2018_16:06:10 7342 18 female R 3 4 23 self moralSelf H h 1 0.6212 
05-Jun-2018_16:06:12 7342 18 female R 3 4 24 self moralSelf H h 1 0.5427 
05-Jun-2018_16:06:26 7342 18 female R 3 5 1 self moralOther J j 1 0.4031 
05-Jun-2018_16:06:28 7342 18 female R 3 5 2 self immoralSelf H h 1 0.4224 
05-Jun-2018_16:06:30 7342 18 female R 3 5 3 self moralOther J j 1 0.4310 
05-Jun-2018_16:06:32 7342 18 female R 3 5 4 self moralSelf H h 1 0.4028 
05-Jun-2018_16:06:33 7342 18 female R 3 5 5 self immoralSelf H h 1 0.5041 
05-Jun-2018_16:06:35 7342 18 female R 3 5 6 self immoralSelf H h 1 0.4514 
05-Jun-2018_16:06:37 7342 18 female R 3 5 7 self moralSelf H h 1 0.5451 
05-Jun-2018_16:06:38 7342 18 female R 3 5 8 self immoralOther J j 1 0.5517 
05-Jun-2018_16:06:40 7342 18 female R 3 5 9 self moralOther J j 1 0.3448 
05-Jun-2018_16:06:42 7342 18 female R 3 5 10 self moralSelf H h 1 0.8593 
05-Jun-2018_16:06:44 7342 18 female R 3 5 11 self moralSelf H h 1 0.5106 
05-Jun-2018_16:06:46 7342 18 female R 3 5 12 self moralOther J j 1 0.5253 
05-Jun-2018_16:06:47 7342 18 female R 3 5 13 self immoralOther J j 1 0.5888 
05-Jun-2018_16:06:49 7342 18 female R 3 5 14 self immoralOther J j 1 0.6256 
05-Jun-2018_16:06:51 7342 18 female R 3 5 15 self immoralSelf H j 0 0.4027 
05-Jun-2018_16:06:52 7342 18 female R 3 5 16 self immoralOther J h 0 0.2597 
05-Jun-2018_16:06:54 7342 18 female R 3 5 17 self moralOther J j 1 0.5581 
05-Jun-2018_16:06:56 7342 18 female R 3 5 18 self immoralSelf H h 1 0.4678 
05-Jun-2018_16:06:57 7342 18 female R 3 5 19 self moralSelf H h 1 0.5479 
05-Jun-2018_16:06:59 7342 18 female R 3 5 20 self immoralOther J j 1 0.6077 
05-Jun-2018_16:07:01 7342 18 female R 3 5 21 self immoralOther J j 1 0.4605 
05-Jun-2018_16:07:02 7342 18 female R 3 5 22 self immoralSelf H h 1 0.4931 
05-Jun-2018_16:07:04 7342 18 female R 3 5 23 self moralOther J h 0 0.5383 
05-Jun-2018_16:07:06 7342 18 female R 3 5 24 self moralSelf H j 0 0.5463 
Date Sub Age Sex Hand Block Bin Trial Task Shape corrResp Resp ACC RT
05-Jun-2018_16:10:10 7342 18 female R 4 1 1 moral immoralSelf Y y 1 0.3892 
05-Jun-2018_16:10:12 7342 18 female R 4 1 2 moral moralOther U u 1 0.3794 
05-Jun-2018_16:10:13 7342 18 female R 4 1 3 moral immoralOther Y y 1 0.4511 
05-Jun-2018_16:10:15 7342 18 female R 4 1 4 moral immoralSelf Y y 1 0.4041 
05-Jun-2018_16:10:17 7342 18 female R 4 1 5 moral moralSelf U u 1 0.4121 
05-Jun-2018_16:10:18 7342 18 female R 4 1 6 moral immoralSelf Y y 1 0.4000 
05-Jun-2018_16:10:20 7342 18 female R 4 1 7 moral moralSelf U u 1 0.4395 
05-Jun-2018_16:10:21 7342 18 female R 4 1 8 moral immoralSelf Y y 1 0.4335 
05-Jun-2018_16:10:23 7342 18 female R 4 1 9 moral moralOther U u 1 0.4378 
05-Jun-2018_16:10:24 7342 18 female R 4 1 10 moral moralOther U u 1 0.3744 
05-Jun-2018_16:10:26 7342 18 female R 4 1 11 moral immoralSelf Y y 1 0.4827 
05-Jun-2018_16:10:27 7342 18 female R 4 1 12 moral immoralOther Y y 1 0.5495 
05-Jun-2018_16:10:29 7342 18 female R 4 1 13 moral immoralOther Y y 1 0.5901 
05-Jun-2018_16:10:30 7342 18 female R 4 1 14 moral moralOther U u 1 0.2617 
05-Jun-2018_16:10:32 7342 18 female R 4 1 15 moral moralOther U u 1 0.3949 
05-Jun-2018_16:10:33 7342 18 female R 4 1 16 moral moralOther U u 1 0.3249 
05-Jun-2018_16:10:35 7342 18 female R 4 1 17 moral moralSelf U u 1 0.4718 
05-Jun-2018_16:10:37 7342 18 female R 4 1 18 moral immoralSelf Y y 1 0.4710 
05-Jun-2018_16:10:38 7342 18 female R 4 1 19 moral moralSelf U u 1 0.6027 
05-Jun-2018_16:10:40 7342 18 female R 4 1 20 moral moralSelf U u 1 0.3919 
05-Jun-2018_16:10:42 7342 18 female R 4 1 21 moral moralSelf U u 1 0.4664 
05-Jun-2018_16:10:43 7342 18 female R 4 1 22 moral immoralOther Y y 1 0.3470 
05-Jun-2018_16:10:45 7342 18 female R 4 1 23 moral immoralOther Y y 1 0.5202 
05-Jun-2018_16:10:47 7342 18 female R 4 1 24 moral immoralOther Y y 1 0.4816 
05-Jun-2018_16:10:49 7342 18 female R 4 2 1 moral moralOther U u 1 0.4083 
05-Jun-2018_16:10:50 7342 18 female R 4 2 2 moral immoralSelf Y y 1 0.2813 
05-Jun-2018_16:10:52 7342 18 female R 4 2 3 moral moralOther U u 1 0.4748 
05-Jun-2018_16:10:53 7342 18 female R 4 2 4 moral immoralSelf Y y 1 0.4679 
05-Jun-2018_16:10:55 7342 18 female R 4 2 5 moral immoralSelf Y y 1 0.3950 
05-Jun-2018_16:10:56 7342 18 female R 4 2 6 moral immoralOther Y u 0 0.5178 
05-Jun-2018_16:10:58 7342 18 female R 4 2 7 moral immoralOther Y y 1 0.5367 
05-Jun-2018_16:11:00 7342 18 female R 4 2 8 moral immoralSelf Y y 1 0.3721 
05-Jun-2018_16:11:01 7342 18 female R 4 2 9 moral moralOther U u 1 0.4549 
05-Jun-2018_16:11:03 7342 18 female R 4 2 10 moral moralSelf U u 1 0.3765 
05-Jun-2018_16:11:05 7342 18 female R 4 2 11 moral immoralOther Y y 1 0.5163 
05-Jun-2018_16:11:06 7342 18 female R 4 2 12 moral moralOther U u 1 0.4876 
05-Jun-2018_16:11:08 7342 18 female R 4 2 13 moral moralOther U u 1 0.4492 
05-Jun-2018_16:11:10 7342 18 female R 4 2 14 moral immoralOther Y y 1 0.6181 
05-Jun-2018_16:11:11 7342 18 female R 4 2 15 moral moralSelf U y 0 0.3298 
05-Jun-2018_16:11:13 7342 18 female R 4 2 16 moral moralSelf U u 1 0.4070 
05-Jun-2018_16:11:14 7342 18 female R 4 2 17 moral moralSelf U u 1 0.3313 
05-Jun-2018_16:11:16 7342 18 female R 4 2 18 moral moralSelf U u 1 0.3840 
05-Jun-2018_16:11:18 7342 18 female R 4 2 19 moral moralOther U u 1 0.8100 
05-Jun-2018_16:11:20 7342 18 female R 4 2 20 moral immoralSelf Y y 1 0.5837 
05-Jun-2018_16:11:22 7342 18 female R 4 2 21 moral immoralSelf Y y 1 0.9000 
05-Jun-2018_16:11:23 7342 18 female R 4 2 22 moral immoralOther Y y 1 0.5778 
05-Jun-2018_16:11:25 7342 18 female R 4 2 23 moral moralSelf U u 1 0.5769 
05-Jun-2018_16:11:26 7342 18 female R 4 2 24 moral immoralOther Y y 1 0.4621 
05-Jun-2018_16:11:36 7342 18 female R 4 3 1 moral immoralOther Y y 1 0.6818 
05-Jun-2018_16:11:38 7342 18 female R 4 3 2 moral moralSelf U u 1 0.4099 
05-Jun-2018_16:11:39 7342 18 female R 4 3 3 moral moralSelf U u 1 0.3695 
05-Jun-2018_16:11:40 7342 18 female R 4 3 4 moral moralSelf U u 1 0.3244 
05-Jun-2018_16:11:42 7342 18 female R 4 3 5 moral immoralOther Y y 1 0.4350 
05-Jun-2018_16:11:44 7342 18 female R 4 3 6 moral immoralSelf Y y 1 0.3970 
05-Jun-2018_16:11:45 7342 18 female R 4 3 7 moral immoralSelf Y y 1 0.3048 
05-Jun-2018_16:11:47 7342 18 female R 4 3 8 moral immoralSelf Y y 1 0.3717 
05-Jun-2018_16:11:49 7342 18 female R 4 3 9 moral immoralOther Y y 1 0.6672 
05-Jun-2018_16:11:50 7342 18 female R 4 3 10 moral immoralOther Y y 1 0.3196 
05-Jun-2018_16:11:52 7342 18 female R 4 3 11 moral moralOther U u 1 0.4669 
05-Jun-2018_16:11:53 7342 18 female R 4 3 12 moral moralSelf U u 1 0.4647 
05-Jun-2018_16:11:55 7342 18 female R 4 3 13 moral moralSelf U u 1 0.3184 
05-Jun-2018_16:11:57 7342 18 female R 4 3 14 moral moralOther U u 1 0.5424 
05-Jun-2018_16:11:59 7342 18 female R 4 3 15 moral immoralSelf Y y 1 0.5858 
05-Jun-2018_16:12:00 7342 18 female R 4 3 16 moral moralOther U y 0 0.3473 
05-Jun-2018_16:12:02 7342 18 female R 4 3 17 moral immoralOther Y y 1 0.6058 
05-Jun-2018_16:12:03 7342 18 female R 4 3 18 moral immoralSelf Y y 1 0.4604 
05-Jun-2018_16:12:05 7342 18 female R 4 3 19 moral immoralSelf Y y 1 0.4341 
05-Jun-2018_16:12:07 7342 18 female R 4 3 20 moral moralOther U u 1 0.4045 
05-Jun-2018_16:12:08 7342 18 female R 4 3 21 moral moralOther U u 1 0.3166 
05-Jun-2018_16:12:10 7342 18 female R 4 3 22 moral immoralOther Y y 1 0.4531 
05-Jun-2018_16:12:11 7342 18 female R 4 3 23 moral moralOther U y 0 0.3864 
05-Jun-2018_16:12:13 7342 18 female R 4 3 24 moral moralSelf U u 1 0.5606 
05-Jun-2018_16:12:15 7342 18 female R 4 4 1 moral moralSelf U u 1 0.4402 
05-Jun-2018_16:12:17 7342 18 female R 4 4 2 moral moralSelf U u 1 0.3866 
05-Jun-2018_16:12:18 7342 18 female R 4 4 3 moral moralSelf U u 1 0.6210 
05-Jun-2018_16:12:20 7342 18 female R 4 4 4 moral immoralOther Y y 1 0.5519 
05-Jun-2018_16:12:22 7342 18 female R 4 4 5 moral moralOther U y 0 0.6452 
05-Jun-2018_16:12:24 7342 18 female R 4 4 6 moral immoralOther Y y 1 0.6867 
05-Jun-2018_16:12:26 7342 18 female R 4 4 7 moral moralOther U u 1 0.5738 
05-Jun-2018_16:12:27 7342 18 female R 4 4 8 moral immoralSelf Y y 1 0.5137 
05-Jun-2018_16:12:29 7342 18 female R 4 4 9 moral immoralSelf Y y 1 0.3814 
05-Jun-2018_16:12:31 7342 18 female R 4 4 10 moral immoralOther Y y 1 0.5264 
05-Jun-2018_16:12:32 7342 18 female R 4 4 11 moral moralOther U y 0 0.3641 
05-Jun-2018_16:12:34 7342 18 female R 4 4 12 moral immoralSelf Y y 1 0.3675 
05-Jun-2018_16:12:36 7342 18 female R 4 4 13 moral immoralOther Y y 1 0.6377 
05-Jun-2018_16:12:38 7342 18 female R 4 4 14 moral immoralOther Y y 1 0.5752 
05-Jun-2018_16:12:39 7342 18 female R 4 4 15 moral moralSelf U u 1 0.4939 
05-Jun-2018_16:12:41 7342 18 female R 4 4 16 moral moralSelf U u 1 0.4064 
05-Jun-2018_16:12:42 7342 18 female R 4 4 17 moral moralOther U u 1 0.5604 
05-Jun-2018_16:12:44 7342 18 female R 4 4 18 moral immoralSelf Y u 0 0.6969 
05-Jun-2018_16:12:46 7342 18 female R 4 4 19 moral immoralSelf Y y 1 0.4028 
05-Jun-2018_16:12:47 7342 18 female R 4 4 20 moral moralOther U u 1 0.5158 
05-Jun-2018_16:12:49 7342 18 female R 4 4 21 moral immoralOther Y y 1 0.7098 
05-Jun-2018_16:12:51 7342 18 female R 4 4 22 moral moralOther U u 1 0.4788 
05-Jun-2018_16:12:53 7342 18 female R 4 4 23 moral immoralSelf Y y 1 0.4605 
05-Jun-2018_16:12:54 7342 18 female R 4 4 24 moral moralSelf U u 1 0.4451 
05-Jun-2018_16:13:01 7342 18 female R 4 5 1 moral immoralOther Y y 1 0.7789 
05-Jun-2018_16:13:02 7342 18 female R 4 5 2 moral moralOther U u 1 0.5175 
05-Jun-2018_16:13:04 7342 18 female R 4 5 3 moral moralOther U u 1 0.6680 
05-Jun-2018_16:13:06 7342 18 female R 4 5 4 moral moralOther U u 1 0.4757 
05-Jun-2018_16:13:08 7342 18 female R 4 5 5 moral immoralSelf Y y 1 0.4636 
05-Jun-2018_16:13:10 7342 18 female R 4 5 6 moral immoralOther Y y 1 0.6528 
05-Jun-2018_16:13:11 7342 18 female R 4 5 7 moral moralSelf U u 1 0.5568 
05-Jun-2018_16:13:13 7342 18 female R 4 5 8 moral immoralOther Y y 1 0.6180 
05-Jun-2018_16:13:15 7342 18 female R 4 5 9 moral immoralSelf Y y 1 0.5386 
05-Jun-2018_16:13:16 7342 18 female R 4 5 10 moral moralSelf U u 1 0.6252 
05-Jun-2018_16:13:18 7342 18 female R 4 5 11 moral moralOther U u 1 0.5788 
05-Jun-2018_16:13:20 7342 18 female R 4 5 12 moral immoralSelf Y y 1 0.5256 
05-Jun-2018_16:13:22 7342 18 female R 4 5 13 moral moralOther U u 1 0.5047 
05-Jun-2018_16:13:24 7342 18 female R 4 5 14 moral moralSelf U u 1 0.6873 
05-Jun-2018_16:13:25 7342 18 female R 4 5 15 moral moralSelf U u 1 0.4374 
05-Jun-2018_16:13:28 7342 18 female R 4 5 16 moral immoralSelf Y y 1 0.9825 
05-Jun-2018_16:13:29 7342 18 female R 4 5 17 moral immoralOther Y y 1 0.3915 
05-Jun-2018_16:13:31 7342 18 female R 4 5 18 moral moralOther U u 1 0.5755 
05-Jun-2018_16:13:33 7342 18 female R 4 5 19 moral moralSelf U u 1 0.7337 
05-Jun-2018_16:13:35 7342 18 female R 4 5 20 moral immoralSelf Y u 0 0.4638 
05-Jun-2018_16:13:36 7342 18 female R 4 5 21 moral moralSelf U u 1 0.6143 
05-Jun-2018_16:13:38 7342 18 female R 4 5 22 moral immoralOther Y y 1 0.5146 
05-Jun-2018_16:13:40 7342 18 female R 4 5 23 moral immoralOther Y y 1 0.5515 
05-Jun-2018_16:13:41 7342 18 female R 4 5 24 moral immoralSelf Y y 1 0.5553 
Date Sub Age Sex Hand Block Bin Trial Task Shape corrResp Resp ACC RT
05-Jun-2018_16:16:05 7342 18 female R 5 1 1 moral immoralOther Y y 1 0.4059 
05-Jun-2018_16:16:07 7342 18 female R 5 1 2 moral immoralSelf Y y 1 0.6817 
05-Jun-2018_16:16:08 7342 18 female R 5 1 3 moral moralSelf U u 1 0.3821 
05-Jun-2018_16:16:10 7342 18 female R 5 1 4 moral immoralOther Y u 0 0.2989 
05-Jun-2018_16:16:11 7342 18 female R 5 1 5 moral immoralOther Y y 1 0.3823 
05-Jun-2018_16:16:13 7342 18 female R 5 1 6 moral moralOther U u 1 0.3992 
05-Jun-2018_16:16:15 7342 18 female R 5 1 7 moral immoralSelf Y y 1 0.4544 
05-Jun-2018_16:16:16 7342 18 female R 5 1 8 moral immoralOther Y y 1 0.3994 
05-Jun-2018_16:16:18 7342 18 female R 5 1 9 moral immoralSelf Y y 1 0.3594 
05-Jun-2018_16:16:19 7342 18 female R 5 1 10 moral moralOther U u 1 0.3940 
05-Jun-2018_16:16:21 7342 18 female R 5 1 11 moral immoralSelf Y y 1 0.3606 
05-Jun-2018_16:16:23 7342 18 female R 5 1 12 moral moralOther U u 1 0.2622 
05-Jun-2018_16:16:24 7342 18 female R 5 1 13 moral immoralSelf Y y 1 0.3644 
05-Jun-2018_16:16:26 7342 18 female R 5 1 14 moral moralOther U u 1 0.4502 
05-Jun-2018_16:16:27 7342 18 female R 5 1 15 moral immoralOther Y y 1 0.3461 
05-Jun-2018_16:16:29 7342 18 female R 5 1 16 moral moralSelf U u 1 0.4879 
05-Jun-2018_16:16:31 7342 18 female R 5 1 17 moral immoralOther Y y 1 0.4353 
05-Jun-2018_16:16:33 7342 18 female R 5 1 18 moral moralSelf U u 1 0.3901 
05-Jun-2018_16:16:34 7342 18 female R 5 1 19 moral moralOther U u 1 0.4434 
05-Jun-2018_16:16:36 7342 18 female R 5 1 20 moral moralOther U u 1 0.4849 
05-Jun-2018_16:16:38 7342 18 female R 5 1 21 moral moralSelf U u 1 0.4615 
05-Jun-2018_16:16:39 7342 18 female R 5 1 22 moral moralSelf U u 1 0.3641 
05-Jun-2018_16:16:41 7342 18 female R 5 1 23 moral immoralSelf Y y 1 0.5360 
05-Jun-2018_16:16:43 7342 18 female R 5 1 24 moral moralSelf U u 1 0.4890 
05-Jun-2018_16:16:44 7342 18 female R 5 2 1 moral moralOther U u 1 0.5035 
05-Jun-2018_16:16:46 7342 18 female R 5 2 2 moral immoralSelf Y y 1 0.5841 
05-Jun-2018_16:16:48 7342 18 female R 5 2 3 moral immoralSelf Y y 1 0.5014 
05-Jun-2018_16:16:49 7342 18 female R 5 2 4 moral moralSelf U y 0 0.5207 
05-Jun-2018_16:16:51 7342 18 female R 5 2 5 moral immoralSelf Y y 1 0.4864 
05-Jun-2018_16:16:53 7342 18 female R 5 2 6 moral moralSelf U u 1 0.7576 
05-Jun-2018_16:16:54 7342 18 female R 5 2 7 moral moralSelf U u 1 0.3789 
05-Jun-2018_16:16:56 7342 18 female R 5 2 8 moral immoralOther Y y 1 0.5761 
05-Jun-2018_16:16:58 7342 18 female R 5 2 9 moral moralOther U u 1 0.5593 
05-Jun-2018_16:17:00 7342 18 female R 5 2 10 moral moralSelf U u 1 0.7588 
05-Jun-2018_16:17:02 7342 18 female R 5 2 11 moral moralSelf U u 1 0.4526 
05-Jun-2018_16:17:04 7342 18 female R 5 2 12 moral moralOther U u 1 0.5035 
05-Jun-2018_16:17:05 7342 18 female R 5 2 13 moral immoralSelf Y y 1 0.4819 
05-Jun-2018_16:17:07 7342 18 female R 5 2 14 moral immoralOther Y u 0 0.5722 
05-Jun-2018_16:17:09 7342 18 female R 5 2 15 moral immoralSelf Y y 1 0.5798 
05-Jun-2018_16:17:10 7342 18 female R 5 2 16 moral immoralSelf Y y 1 0.4848 
05-Jun-2018_16:17:12 7342 18 female R 5 2 17 moral immoralOther Y y 1 0.4323 
05-Jun-2018_16:17:14 7342 18 female R 5 2 18 moral moralOther U u 1 0.4408 
05-Jun-2018_16:17:15 7342 18 female R 5 2 19 moral moralOther U u 1 0.3308 
05-Jun-2018_16:17:17 7342 18 female R 5 2 20 moral moralOther U u 1 0.3492 
05-Jun-2018_16:17:19 7342 18 female R 5 2 21 moral moralSelf U u 1 0.4250 
05-Jun-2018_16:17:20 7342 18 female R 5 2 22 moral immoralOther Y y 1 0.4693 
05-Jun-2018_16:17:22 7342 18 female R 5 2 23 moral immoralOther Y y 1 0.3204 
05-Jun-2018_16:17:23 7342 18 female R 5 2 24 moral immoralOther Y y 1 0.3561 
05-Jun-2018_16:17:31 7342 18 female R 5 3 1 moral moralSelf U u 1 0.5709 
05-Jun-2018_16:17:33 7342 18 female R 5 3 2 moral moralSelf U u 1 0.2953 
05-Jun-2018_16:17:34 7342 18 female R 5 3 3 moral moralOther U u 1 0.5108 
05-Jun-2018_16:17:36 7342 18 female R 5 3 4 moral moralOther U u 1 0.3749 
05-Jun-2018_16:17:37 7342 18 female R 5 3 5 moral moralSelf U u 1 0.4917 
05-Jun-2018_16:17:39 7342 18 female R 5 3 6 moral immoralSelf Y y 1 0.3393 
05-Jun-2018_16:17:40 7342 18 female R 5 3 7 moral immoralSelf Y y 1 0.3643 
05-Jun-2018_16:17:42 7342 18 female R 5 3 8 moral moralOther U u 1 0.3047 
05-Jun-2018_16:17:43 7342 18 female R 5 3 9 moral immoralSelf Y u 0 0.3537 
05-Jun-2018_16:17:45 7342 18 female R 5 3 10 moral immoralOther Y y 1 0.5391 
05-Jun-2018_16:17:47 7342 18 female R 5 3 11 moral immoralOther Y y 1 0.4375 
05-Jun-2018_16:17:48 7342 18 female R 5 3 12 moral moralSelf U y 0 0.4926 
05-Jun-2018_16:17:50 7342 18 female R 5 3 13 moral immoralOther Y y 1 0.6376 
05-Jun-2018_16:17:52 7342 18 female R 5 3 14 moral immoralOther Y y 1 0.4415 
05-Jun-2018_16:17:54 7342 18 female R 5 3 15 moral moralOther U u 1 0.5709 
05-Jun-2018_16:17:55 7342 18 female R 5 3 16 moral moralOther U u 1 0.3639 
05-Jun-2018_16:17:57 7342 18 female R 5 3 17 moral immoralSelf Y y 1 0.5301 
05-Jun-2018_16:17:58 7342 18 female R 5 3 18 moral moralOther U y 0 0.5438 
05-Jun-2018_16:18:00 7342 18 female R 5 3 19 moral immoralOther Y y 1 0.4908 
05-Jun-2018_16:18:02 7342 18 female R 5 3 20 moral immoralSelf Y y 1 0.4245 
05-Jun-2018_16:18:03 7342 18 female R 5 3 21 moral moralSelf U u 1 0.6890 
05-Jun-2018_16:18:05 7342 18 female R 5 3 22 moral moralSelf U u 1 0.4510 
05-Jun-2018_16:18:07 7342 18 female R 5 3 23 moral immoralOther Y y 1 0.5964 
05-Jun-2018_16:18:09 7342 18 female R 5 3 24 moral immoralSelf Y y 1 0.4863 
05-Jun-2018_16:18:10 7342 18 female R 5 4 1 moral moralOther U u 1 0.4136 
05-Jun-2018_16:18:12 7342 18 female R 5 4 2 moral immoralSelf Y y 1 0.4747 
05-Jun-2018_16:18:14 7342 18 female R 5 4 3 moral immoralOther Y u 0 0.7209 
05-Jun-2018_16:18:16 7342 18 female R 5 4 4 moral immoralOther Y y 1 0.4194 
05-Jun-2018_16:18:17 7342 18 female R 5 4 5 moral immoralSelf Y y 1 0.3649 
05-Jun-2018_16:18:19 7342 18 female R 5 4 6 moral moralOther U u 1 0.3621 
05-Jun-2018_16:18:21 7342 18 female R 5 4 7 moral moralOther U u 1 0.7001 
05-Jun-2018_16:18:22 7342 18 female R 5 4 8 moral immoralSelf Y y 1 0.4564 
05-Jun-2018_16:18:24 7342 18 female R 5 4 9 moral moralSelf U y 0 0.7694 
05-Jun-2018_16:18:26 7342 18 female R 5 4 10 moral immoralSelf Y y 1 0.5454 
05-Jun-2018_16:18:27 7342 18 female R 5 4 11 moral immoralSelf Y y 1 0.3662 
05-Jun-2018_16:18:29 7342 18 female R 5 4 12 moral moralSelf U u 1 0.3132 
05-Jun-2018_16:18:31 7342 18 female R 5 4 13 moral moralSelf U u 1 0.3922 
05-Jun-2018_16:18:32 7342 18 female R 5 4 14 moral moralSelf U u 1 0.3566 
05-Jun-2018_16:18:34 7342 18 female R 5 4 15 moral immoralOther Y y 1 0.5082 
05-Jun-2018_16:18:35 7342 18 female R 5 4 16 moral immoralSelf Y y 1 0.3557 
05-Jun-2018_16:18:37 7342 18 female R 5 4 17 moral moralOther U u 1 0.5860 
05-Jun-2018_16:18:39 7342 18 female R 5 4 18 moral moralSelf U y 0 0.3564 
05-Jun-2018_16:18:40 7342 18 female R 5 4 19 moral moralOther U u 1 0.3202 
05-Jun-2018_16:18:42 7342 18 female R 5 4 20 moral immoralOther Y y 1 0.4605 
05-Jun-2018_16:18:44 7342 18 female R 5 4 21 moral immoralOther Y y 1 0.4140 
05-Jun-2018_16:18:45 7342 18 female R 5 4 22 moral immoralOther Y y 1 0.3222 
05-Jun-2018_16:18:47 7342 18 female R 5 4 23 moral moralOther U u 1 0.3712 
05-Jun-2018_16:18:48 7342 18 female R 5 4 24 moral moralSelf U u 1 0.5280 
05-Jun-2018_16:19:04 7342 18 female R 5 5 1 moral moralOther U u 1 0.3617 
05-Jun-2018_16:19:05 7342 18 female R 5 5 2 moral immoralOther Y u 0 0.3260 
05-Jun-2018_16:19:07 7342 18 female R 5 5 3 moral moralOther U u 1 0.3340 
05-Jun-2018_16:19:08 7342 18 female R 5 5 4 moral moralSelf U u 1 0.5571 
05-Jun-2018_16:19:10 7342 18 female R 5 5 5 moral moralOther U u 1 0.3717 
05-Jun-2018_16:19:11 7342 18 female R 5 5 6 moral moralSelf U u 1 0.4392 
05-Jun-2018_16:19:13 7342 18 female R 5 5 7 moral moralSelf U u 1 0.3305 
05-Jun-2018_16:19:14 7342 18 female R 5 5 8 moral immoralOther Y u 0 0.4082 
05-Jun-2018_16:19:16 7342 18 female R 5 5 9 moral moralOther U u 1 0.3712 
05-Jun-2018_16:19:18 7342 18 female R 5 5 10 moral immoralSelf Y y 1 0.3161 
05-Jun-2018_16:19:20 7342 18 female R 5 5 11 moral immoralOther Y y 1 0.5439 
05-Jun-2018_16:19:21 7342 18 female R 5 5 12 moral moralSelf U u 1 0.5648 
05-Jun-2018_16:19:23 7342 18 female R 5 5 13 moral immoralOther Y y 1 0.5248 
05-Jun-2018_16:19:25 7342 18 female R 5 5 14 moral moralOther U u 1 0.5569 
05-Jun-2018_16:19:27 7342 18 female R 5 5 15 moral immoralOther Y y 1 0.5908 
05-Jun-2018_16:19:29 7342 18 female R 5 5 16 moral moralOther U u 1 0.5589 
05-Jun-2018_16:19:31 7342 18 female R 5 5 17 moral immoralSelf Y y 1 0.5260 
05-Jun-2018_16:19:32 7342 18 female R 5 5 18 moral immoralSelf Y y 1 0.4258 
05-Jun-2018_16:19:34 7342 18 female R 5 5 19 moral immoralSelf Y y 1 0.3643 
05-Jun-2018_16:19:36 7342 18 female R 5 5 20 moral immoralSelf Y y 1 0.3922 
05-Jun-2018_16:19:37 7342 18 female R 5 5 21 moral immoralSelf Y y 1 0.3597 
05-Jun-2018_16:19:39 7342 18 female R 5 5 22 moral moralSelf U u 1 0.6252 
05-Jun-2018_16:19:41 7342 18 female R 5 5 23 moral moralSelf U u 1 0.3594 
05-Jun-2018_16:19:42 7342 18 female R 5 5 24 moral immoralOther Y y 1 0.6169 
Date Sub Age Sex Hand Block Bin Trial Task Shape corrResp Resp ACC RT
05-Jun-2018_16:22:32 7342 18 female R 6 1 1 self moralOther J j 1 0.5321 
05-Jun-2018_16:22:34 7342 18 female R 6 1 2 self moralSelf H h 1 0.6894 
05-Jun-2018_16:22:36 7342 18 female R 6 1 3 self immoralSelf H h 1 0.3150 
05-Jun-2018_16:22:37 7342 18 female R 6 1 4 self immoralOther J j 1 0.4416 
05-Jun-2018_16:22:39 7342 18 female R 6 1 5 self immoralOther J j 1 0.4624 
05-Jun-2018_16:22:41 7342 18 female R 6 1 6 self moralSelf H h 1 0.6026 
05-Jun-2018_16:22:42 7342 18 female R 6 1 7 self moralSelf H h 1 0.3622 
05-Jun-2018_16:22:44 7342 18 female R 6 1 8 self immoralSelf H h 1 0.5798 
05-Jun-2018_16:22:46 7342 18 female R 6 1 9 self immoralSelf H h 1 0.4061 
05-Jun-2018_16:22:47 7342 18 female R 6 1 10 self immoralSelf H h 1 0.3493 
05-Jun-2018_16:22:49 7342 18 female R 6 1 11 self moralOther J j 1 0.2755 
05-Jun-2018_16:22:50 7342 18 female R 6 1 12 self immoralOther J j 1 0.5287 
05-Jun-2018_16:22:52 7342 18 female R 6 1 13 self moralSelf H h 1 0.4460 
05-Jun-2018_16:22:54 7342 18 female R 6 1 14 self moralOther J j 1 0.7109 
05-Jun-2018_16:22:56 7342 18 female R 6 1 15 self moralOther J j 1 0.4512 
05-Jun-2018_16:22:57 7342 18 female R 6 1 16 self moralOther J j 1 0.3421 
05-Jun-2018_16:22:59 7342 18 female R 6 1 17 self immoralSelf H h 1 0.5507 
05-Jun-2018_16:23:01 7342 18 female R 6 1 18 self immoralSelf H h 1 0.4435 
05-Jun-2018_16:23:03 7342 18 female R 6 1 19 self immoralOther J j 1 0.6844 
05-Jun-2018_16:23:04 7342 18 female R 6 1 20 self moralOther J j 1 0.5392 
05-Jun-2018_16:23:06 7342 18 female R 6 1 21 self moralSelf H h 1 0.6794 
05-Jun-2018_16:23:08 7342 18 female R 6 1 22 self immoralOther J j 1 0.6245 
05-Jun-2018_16:23:10 7342 18 female R 6 1 23 self moralSelf H h 1 0.6688 
05-Jun-2018_16:23:12 7342 18 female R 6 1 24 self immoralOther J j 1 0.5263 
05-Jun-2018_16:23:14 7342 18 female R 6 2 1 self moralSelf H h 1 0.4501 
05-Jun-2018_16:23:16 7342 18 female R 6 2 2 self immoralOther J j 1 0.5919 
05-Jun-2018_16:23:17 7342 18 female R 6 2 3 self immoralSelf H h 1 0.3087 
05-Jun-2018_16:23:19 7342 18 female R 6 2 4 self moralOther J j 1 0.4678 
05-Jun-2018_16:23:21 7342 18 female R 6 2 5 self moralOther J j 1 0.5140 
05-Jun-2018_16:23:22 7342 18 female R 6 2 6 self moralSelf H h 1 0.3447 
05-Jun-2018_16:23:23 7342 18 female R 6 2 7 self moralOther J h 0 0.3024 
05-Jun-2018_16:23:25 7342 18 female R 6 2 8 self immoralOther J j 1 0.5160 
05-Jun-2018_16:23:27 7342 18 female R 6 2 9 self immoralSelf H h 1 0.4991 
05-Jun-2018_16:23:29 7342 18 female R 6 2 10 self moralOther J j 1 0.4400 
05-Jun-2018_16:23:30 7342 18 female R 6 2 11 self immoralSelf H h 1 0.4499 
05-Jun-2018_16:23:32 7342 18 female R 6 2 12 self immoralSelf H h 1 0.4824 
05-Jun-2018_16:23:33 7342 18 female R 6 2 13 self moralOther J h 0 0.5846 
05-Jun-2018_16:23:36 7342 18 female R 6 2 14 self immoralOther J NA -1 1.0731 
05-Jun-2018_16:23:38 7342 18 female R 6 2 15 self moralSelf H h 1 0.5355 
05-Jun-2018_16:23:40 7342 18 female R 6 2 16 self moralSelf H h 1 0.6987 
05-Jun-2018_16:23:41 7342 18 female R 6 2 17 self immoralOther J j 1 0.5158 
05-Jun-2018_16:23:44 7342 18 female R 6 2 18 self immoralOther J j 1 0.8001 
05-Jun-2018_16:23:45 7342 18 female R 6 2 19 self moralSelf H h 1 0.4524 
05-Jun-2018_16:23:47 7342 18 female R 6 2 20 self moralOther J j 1 0.5575 
05-Jun-2018_16:23:48 7342 18 female R 6 2 21 self moralSelf H h 1 0.6097 
05-Jun-2018_16:23:50 7342 18 female R 6 2 22 self immoralSelf H h 1 0.4775 
05-Jun-2018_16:23:52 7342 18 female R 6 2 23 self immoralSelf H h 1 0.4178 
05-Jun-2018_16:23:54 7342 18 female R 6 2 24 self immoralOther J j 1 0.7064 
05-Jun-2018_16:24:00 7342 18 female R 6 3 1 self moralSelf H h 1 0.6732 
05-Jun-2018_16:24:02 7342 18 female R 6 3 2 self immoralSelf H h 1 0.5518 
05-Jun-2018_16:24:03 7342 18 female R 6 3 3 self immoralOther J j 1 0.5483 
05-Jun-2018_16:24:05 7342 18 female R 6 3 4 self immoralOther J j 1 0.6395 
05-Jun-2018_16:24:06 7342 18 female R 6 3 5 self moralOther J h 0 0.3403 
05-Jun-2018_16:24:08 7342 18 female R 6 3 6 self immoralSelf H h 1 0.4472 
05-Jun-2018_16:24:10 7342 18 female R 6 3 7 self moralOther J j 1 0.4191 
05-Jun-2018_16:24:12 7342 18 female R 6 3 8 self immoralSelf H h 1 0.4850 
05-Jun-2018_16:24:14 7342 18 female R 6 3 9 self moralSelf H h 1 0.7429 
05-Jun-2018_16:24:15 7342 18 female R 6 3 10 self moralSelf H h 1 0.3920 
05-Jun-2018_16:24:17 7342 18 female R 6 3 11 self immoralOther J h 0 0.6899 
05-Jun-2018_16:24:19 7342 18 female R 6 3 12 self immoralOther J j 1 0.4900 
05-Jun-2018_16:24:21 7342 18 female R 6 3 13 self moralSelf H h 1 0.5960 
05-Jun-2018_16:24:23 7342 18 female R 6 3 14 self immoralOther J j 1 0.6018 
05-Jun-2018_16:24:25 7342 18 female R 6 3 15 self immoralOther J j 1 0.6023 
05-Jun-2018_16:24:27 7342 18 female R 6 3 16 self moralOther J j 1 0.5289 
05-Jun-2018_16:24:28 7342 18 female R 6 3 17 self moralOther J j 1 0.5243 
05-Jun-2018_16:24:30 7342 18 female R 6 3 18 self immoralSelf H h 1 0.5286 
05-Jun-2018_16:24:32 7342 18 female R 6 3 19 self moralOther J j 1 0.7437 
05-Jun-2018_16:24:33 7342 18 female R 6 3 20 self moralSelf H h 1 0.3895 
05-Jun-2018_16:24:35 7342 18 female R 6 3 21 self immoralSelf H h 1 0.3392 
05-Jun-2018_16:24:37 7342 18 female R 6 3 22 self moralSelf H h 1 0.2979 
05-Jun-2018_16:24:39 7342 18 female R 6 3 23 self immoralSelf H h 1 0.4245 
05-Jun-2018_16:24:40 7342 18 female R 6 3 24 self moralOther J j 1 0.5695 
05-Jun-2018_16:24:42 7342 18 female R 6 4 1 self moralSelf H j 0 0.4792 
05-Jun-2018_16:24:44 7342 18 female R 6 4 2 self immoralOther J j 1 0.5344 
05-Jun-2018_16:24:45 7342 18 female R 6 4 3 self immoralSelf H h 1 0.4544 
05-Jun-2018_16:24:47 7342 18 female R 6 4 4 self moralOther J j 1 0.6211 
05-Jun-2018_16:24:49 7342 18 female R 6 4 5 self immoralSelf H h 1 0.4843 
05-Jun-2018_16:24:51 7342 18 female R 6 4 6 self moralOther J j 1 0.4777 
05-Jun-2018_16:24:52 7342 18 female R 6 4 7 self moralSelf H h 1 0.4867 
05-Jun-2018_16:24:54 7342 18 female R 6 4 8 self immoralOther J j 1 0.5498 
05-Jun-2018_16:24:56 7342 18 female R 6 4 9 self moralSelf H h 1 0.4850 
05-Jun-2018_16:24:57 7342 18 female R 6 4 10 self moralOther J j 1 0.4818 
05-Jun-2018_16:24:59 7342 18 female R 6 4 11 self moralOther J j 1 0.5783 
05-Jun-2018_16:25:01 7342 18 female R 6 4 12 self moralSelf H h 1 0.5060 
05-Jun-2018_16:25:02 7342 18 female R 6 4 13 self immoralOther J j 1 0.5591 
05-Jun-2018_16:25:04 7342 18 female R 6 4 14 self immoralOther J j 1 0.5136 
05-Jun-2018_16:25:06 7342 18 female R 6 4 15 self moralOther J h 0 0.7899 
05-Jun-2018_16:25:08 7342 18 female R 6 4 16 self immoralSelf H h 1 0.4667 
05-Jun-2018_16:25:09 7342 18 female R 6 4 17 self moralOther J j 1 0.5359 
05-Jun-2018_16:25:11 7342 18 female R 6 4 18 self moralSelf H h 1 0.6089 
05-Jun-2018_16:25:13 7342 18 female R 6 4 19 self moralSelf H h 1 0.5581 
05-Jun-2018_16:25:15 7342 18 female R 6 4 20 self immoralOther J j 1 0.6501 
05-Jun-2018_16:25:17 7342 18 female R 6 4 21 self immoralSelf H h 1 0.5141 
05-Jun-2018_16:25:19 7342 18 female R 6 4 22 self immoralOther J j 1 0.5740 
05-Jun-2018_16:25:21 7342 18 female R 6 4 23 self immoralSelf H h 1 0.5265 
05-Jun-2018_16:25:23 7342 18 female R 6 4 24 self immoralSelf H h 1 0.4847 
05-Jun-2018_16:25:59 7342 18 female R 6 5 1 self moralSelf H h 1 0.7389 
05-Jun-2018_16:26:00 7342 18 female R 6 5 2 self moralOther J j 1 0.3860 
05-Jun-2018_16:26:02 7342 18 female R 6 5 3 self moralSelf H h 1 0.4873 
05-Jun-2018_16:26:03 7342 18 female R 6 5 4 self moralOther J j 1 0.4652 
05-Jun-2018_16:26:05 7342 18 female R 6 5 5 self immoralOther J j 1 0.5749 
05-Jun-2018_16:26:06 7342 18 female R 6 5 6 self immoralOther J j 1 0.5712 
05-Jun-2018_16:26:08 7342 18 female R 6 5 7 self immoralOther J j 1 0.3266 
05-Jun-2018_16:26:09 7342 18 female R 6 5 8 self moralOther J h 0 0.4014 
05-Jun-2018_16:26:11 7342 18 female R 6 5 9 self immoralOther J j 1 0.5032 
05-Jun-2018_16:26:13 7342 18 female R 6 5 10 self immoralSelf H h 1 0.4609 
05-Jun-2018_16:26:15 7342 18 female R 6 5 11 self immoralSelf H h 1 0.4878 
05-Jun-2018_16:26:16 7342 18 female R 6 5 12 self immoralSelf H h 1 0.3655 
05-Jun-2018_16:26:18 7342 18 female R 6 5 13 self moralOther J j 1 0.4159 
05-Jun-2018_16:26:20 7342 18 female R 6 5 14 self immoralOther J j 1 0.4893 
05-Jun-2018_16:26:22 7342 18 female R 6 5 15 self moralOther J j 1 0.4345 
05-Jun-2018_16:26:24 7342 18 female R 6 5 16 self moralSelf H h 1 0.4680 
05-Jun-2018_16:26:25 7342 18 female R 6 5 17 self immoralSelf H j 0 0.4723 
05-Jun-2018_16:26:27 7342 18 female R 6 5 18 self moralSelf H h 1 0.5316 
05-Jun-2018_16:26:29 7342 18 female R 6 5 19 self moralOther J j 1 0.4169 
05-Jun-2018_16:26:31 7342 18 female R 6 5 20 self immoralSelf H j 0 0.4715 
05-Jun-2018_16:26:33 7342 18 female R 6 5 21 self immoralOther J j 1 0.6081 
05-Jun-2018_16:26:34 7342 18 female R 6 5 22 self moralSelf H h 1 0.4831 
05-Jun-2018_16:26:36 7342 18 female R 6 5 23 self moralSelf H h 1 0.5753 
05-Jun-2018_16:26:38 7342 18 female R 6 5 24 self immoralSelf H h 1 0.4153 
