Date Sub Age Sex Hand Block Bin Trial Task Shape corrResp Resp ACC RT
31-May-2018_15:47:26 7336 19 female R 1 1 1 self moralSelf H h 1 0.8824 
31-May-2018_15:47:28 7336 19 female R 1 1 2 self moralSelf H NA -1 1.0731 
31-May-2018_15:47:30 7336 19 female R 1 1 3 self moralOther J j 1 0.8347 
31-May-2018_15:47:33 7336 19 female R 1 1 4 self immoralOther J NA -1 1.0731 
31-May-2018_15:47:34 7336 19 female R 1 1 5 self moralSelf H j 0 0.3126 
31-May-2018_15:47:35 7336 19 female R 1 1 6 self moralOther J h 0 0.1149 
31-May-2018_15:47:37 7336 19 female R 1 1 7 self moralOther J h 0 0.3286 
31-May-2018_15:47:39 7336 19 female R 1 1 8 self immoralSelf H NA -1 1.0731 
31-May-2018_15:47:41 7336 19 female R 1 1 9 self moralOther J h 0 0.2553 
31-May-2018_15:47:42 7336 19 female R 1 1 10 self moralOther J h 0 0.2493 
31-May-2018_15:47:44 7336 19 female R 1 1 11 self immoralOther J h 0 0.2306 
31-May-2018_15:47:46 7336 19 female R 1 1 12 self moralSelf H NA -1 1.0731 
31-May-2018_15:47:48 7336 19 female R 1 1 13 self immoralSelf H NA -1 1.0731 
31-May-2018_15:47:51 7336 19 female R 1 1 14 self immoralOther J j 1 0.8666 
31-May-2018_15:47:53 7336 19 female R 1 1 15 self immoralSelf H j 0 0.7099 
31-May-2018_15:47:54 7336 19 female R 1 1 16 self immoralSelf H h 1 0.5491 
31-May-2018_15:47:56 7336 19 female R 1 1 17 self immoralOther J j 1 0.5242 
31-May-2018_15:47:57 7336 19 female R 1 1 18 self moralSelf H h 1 0.4310 
31-May-2018_15:47:59 7336 19 female R 1 1 19 self immoralSelf H j 0 0.5440 
31-May-2018_15:48:01 7336 19 female R 1 1 20 self moralSelf H h 1 0.3597 
31-May-2018_15:48:02 7336 19 female R 1 1 21 self immoralOther J j 1 0.3372 
31-May-2018_15:48:04 7336 19 female R 1 1 22 self immoralSelf H h 1 0.4248 
31-May-2018_15:48:05 7336 19 female R 1 1 23 self immoralOther J j 1 0.1923 
31-May-2018_15:48:07 7336 19 female R 1 1 24 self moralOther J h 0 0.1063 
31-May-2018_15:48:08 7336 19 female R 1 2 1 self immoralSelf H h 1 0.1778 
31-May-2018_15:48:10 7336 19 female R 1 2 2 self moralSelf H NA -1 1.0731 
31-May-2018_15:48:13 7336 19 female R 1 2 3 self moralOther J h 0 0.7615 
31-May-2018_15:48:14 7336 19 female R 1 2 4 self immoralSelf H h 1 0.2486 
31-May-2018_15:48:16 7336 19 female R 1 2 5 self immoralOther J h 0 0.2548 
31-May-2018_15:48:17 7336 19 female R 1 2 6 self immoralOther J j 1 0.5495 
31-May-2018_15:48:19 7336 19 female R 1 2 7 self immoralOther J j 1 0.3975 
31-May-2018_15:48:21 7336 19 female R 1 2 8 self moralOther J NA -1 1.0731 
31-May-2018_15:48:23 7336 19 female R 1 2 9 self immoralSelf H h 1 0.4447 
31-May-2018_15:48:24 7336 19 female R 1 2 10 self immoralSelf H h 1 0.3484 
31-May-2018_15:48:26 7336 19 female R 1 2 11 self moralSelf H h 1 0.3735 
31-May-2018_15:48:27 7336 19 female R 1 2 12 self moralOther J j 1 0.3418 
31-May-2018_15:48:29 7336 19 female R 1 2 13 self immoralOther J j 1 0.3899 
31-May-2018_15:48:30 7336 19 female R 1 2 14 self moralSelf H h 1 0.3119 
31-May-2018_15:48:32 7336 19 female R 1 2 15 self moralOther J h 0 0.2941 
31-May-2018_15:48:33 7336 19 female R 1 2 16 self immoralOther J j 1 0.6116 
31-May-2018_15:48:35 7336 19 female R 1 2 17 self moralSelf H h 1 0.3902 
31-May-2018_15:48:36 7336 19 female R 1 2 18 self immoralOther J j 1 0.3742 
31-May-2018_15:48:38 7336 19 female R 1 2 19 self moralSelf H h 1 0.2303 
31-May-2018_15:48:40 7336 19 female R 1 2 20 self moralOther J j 1 0.4825 
31-May-2018_15:48:41 7336 19 female R 1 2 21 self immoralSelf H h 1 0.2836 
31-May-2018_15:48:43 7336 19 female R 1 2 22 self moralOther J j 1 0.3303 
31-May-2018_15:48:44 7336 19 female R 1 2 23 self moralSelf H h 1 0.1886 
31-May-2018_15:48:46 7336 19 female R 1 2 24 self immoralSelf H h 1 0.4319 
31-May-2018_15:48:55 7336 19 female R 1 3 1 self moralOther J j 1 0.4691 
31-May-2018_15:48:56 7336 19 female R 1 3 2 self moralOther J j 1 0.4154 
31-May-2018_15:48:58 7336 19 female R 1 3 3 self immoralOther J j 1 0.3036 
31-May-2018_15:49:00 7336 19 female R 1 3 4 self immoralSelf H h 1 0.3794 
31-May-2018_15:49:01 7336 19 female R 1 3 5 self immoralOther J j 1 0.3996 
31-May-2018_15:49:03 7336 19 female R 1 3 6 self immoralSelf H h 1 0.3165 
31-May-2018_15:49:04 7336 19 female R 1 3 7 self immoralSelf H h 1 0.2924 
31-May-2018_15:49:06 7336 19 female R 1 3 8 self immoralOther J j 1 0.4125 
31-May-2018_15:49:08 7336 19 female R 1 3 9 self immoralSelf H h 1 0.4056 
31-May-2018_15:49:09 7336 19 female R 1 3 10 self immoralOther J j 1 0.5026 
31-May-2018_15:49:11 7336 19 female R 1 3 11 self moralOther J h 0 0.3483 
31-May-2018_15:49:12 7336 19 female R 1 3 12 self immoralSelf H h 1 0.3017 
31-May-2018_15:49:14 7336 19 female R 1 3 13 self moralSelf H h 1 0.4341 
31-May-2018_15:49:16 7336 19 female R 1 3 14 self moralSelf H h 1 0.2750 
31-May-2018_15:49:17 7336 19 female R 1 3 15 self moralSelf H h 1 0.3768 
31-May-2018_15:49:19 7336 19 female R 1 3 16 self moralSelf H h 1 0.3358 
31-May-2018_15:49:21 7336 19 female R 1 3 17 self moralSelf H h 1 0.3411 
31-May-2018_15:49:22 7336 19 female R 1 3 18 self immoralSelf H h 1 0.1929 
31-May-2018_15:49:24 7336 19 female R 1 3 19 self moralSelf H h 1 0.3361 
31-May-2018_15:49:25 7336 19 female R 1 3 20 self moralOther J j 1 0.2670 
31-May-2018_15:49:27 7336 19 female R 1 3 21 self moralOther J j 1 0.2622 
31-May-2018_15:49:28 7336 19 female R 1 3 22 self moralOther J j 1 0.2350 
31-May-2018_15:49:30 7336 19 female R 1 3 23 self immoralOther J j 1 0.3684 
31-May-2018_15:49:31 7336 19 female R 1 3 24 self immoralOther J j 1 0.2819 
31-May-2018_15:49:33 7336 19 female R 1 4 1 self immoralSelf H h 1 0.3665 
31-May-2018_15:49:35 7336 19 female R 1 4 2 self immoralOther J j 1 0.3591 
31-May-2018_15:49:37 7336 19 female R 1 4 3 self immoralSelf H h 1 0.4024 
31-May-2018_15:49:38 7336 19 female R 1 4 4 self moralOther J j 1 0.3224 
31-May-2018_15:49:40 7336 19 female R 1 4 5 self moralSelf H h 1 0.2802 
31-May-2018_15:49:41 7336 19 female R 1 4 6 self immoralOther J j 1 0.2710 
31-May-2018_15:49:43 7336 19 female R 1 4 7 self moralOther J j 1 0.4239 
31-May-2018_15:49:45 7336 19 female R 1 4 8 self immoralSelf H h 1 0.5171 
31-May-2018_15:49:46 7336 19 female R 1 4 9 self moralOther J j 1 0.4494 
31-May-2018_15:49:48 7336 19 female R 1 4 10 self moralSelf H h 1 0.3544 
31-May-2018_15:49:50 7336 19 female R 1 4 11 self immoralOther J j 1 0.3036 
31-May-2018_15:49:51 7336 19 female R 1 4 12 self moralSelf H h 1 0.2656 
31-May-2018_15:49:52 7336 19 female R 1 4 13 self moralOther J j 1 0.4148 
31-May-2018_15:49:54 7336 19 female R 1 4 14 self immoralSelf H h 1 0.2662 
31-May-2018_15:49:55 7336 19 female R 1 4 15 self immoralSelf H j 0 0.2935 
31-May-2018_15:49:57 7336 19 female R 1 4 16 self moralSelf H h 1 0.3364 
31-May-2018_15:49:58 7336 19 female R 1 4 17 self moralSelf H h 1 0.2687 
31-May-2018_15:50:00 7336 19 female R 1 4 18 self immoralOther J j 1 0.4287 
31-May-2018_15:50:02 7336 19 female R 1 4 19 self immoralOther J j 1 0.3742 
31-May-2018_15:50:03 7336 19 female R 1 4 20 self moralOther J j 1 0.4740 
31-May-2018_15:50:05 7336 19 female R 1 4 21 self moralSelf H h 1 0.3903 
31-May-2018_15:50:06 7336 19 female R 1 4 22 self moralOther J j 1 0.3537 
31-May-2018_15:50:08 7336 19 female R 1 4 23 self immoralSelf H j 0 0.3302 
31-May-2018_15:50:10 7336 19 female R 1 4 24 self immoralOther J j 1 0.4141 
31-May-2018_15:50:17 7336 19 female R 1 5 1 self immoralOther J j 1 0.8561 
31-May-2018_15:50:18 7336 19 female R 1 5 2 self moralOther J j 1 0.4173 
31-May-2018_15:50:20 7336 19 female R 1 5 3 self immoralOther J j 1 0.2921 
31-May-2018_15:50:21 7336 19 female R 1 5 4 self moralOther J j 1 0.3439 
31-May-2018_15:50:23 7336 19 female R 1 5 5 self immoralOther J j 1 0.2781 
31-May-2018_15:50:24 7336 19 female R 1 5 6 self immoralOther J j 1 0.2980 
31-May-2018_15:50:26 7336 19 female R 1 5 7 self immoralSelf H h 1 0.3921 
31-May-2018_15:50:28 7336 19 female R 1 5 8 self moralOther J j 1 0.4595 
31-May-2018_15:50:30 7336 19 female R 1 5 9 self immoralSelf H h 1 0.5381 
31-May-2018_15:50:31 7336 19 female R 1 5 10 self immoralSelf H h 1 0.2898 
31-May-2018_15:50:33 7336 19 female R 1 5 11 self moralSelf H h 1 0.3100 
31-May-2018_15:50:34 7336 19 female R 1 5 12 self moralSelf H h 1 0.2678 
31-May-2018_15:50:36 7336 19 female R 1 5 13 self moralOther J j 1 0.3044 
31-May-2018_15:50:37 7336 19 female R 1 5 14 self immoralSelf H h 1 0.3855 
31-May-2018_15:50:39 7336 19 female R 1 5 15 self moralSelf H h 1 0.3093 
31-May-2018_15:50:40 7336 19 female R 1 5 16 self immoralOther J j 1 0.3545 
31-May-2018_15:50:42 7336 19 female R 1 5 17 self moralOther J j 1 0.4798 
31-May-2018_15:50:44 7336 19 female R 1 5 18 self moralSelf H h 1 0.3505 
31-May-2018_15:50:45 7336 19 female R 1 5 19 self moralOther J j 1 0.3994 
31-May-2018_15:50:47 7336 19 female R 1 5 20 self immoralSelf H h 1 0.4517 
31-May-2018_15:50:48 7336 19 female R 1 5 21 self immoralOther J j 1 0.3600 
31-May-2018_15:50:50 7336 19 female R 1 5 22 self moralSelf H h 1 0.2515 
31-May-2018_15:50:51 7336 19 female R 1 5 23 self immoralSelf H j 0 0.3243 
31-May-2018_15:50:53 7336 19 female R 1 5 24 self moralSelf H h 1 0.3141 
Date Sub Age Sex Hand Block Bin Trial Task Shape corrResp Resp ACC RT
31-May-2018_15:53:05 7336 19 female R 2 1 1 moral moralOther U u 1 0.7803 
31-May-2018_15:53:07 7336 19 female R 2 1 2 moral immoralSelf Y NA -1 1.0731 
31-May-2018_15:53:09 7336 19 female R 2 1 3 moral immoralSelf Y y 1 0.4850 
31-May-2018_15:53:11 7336 19 female R 2 1 4 moral immoralOther Y y 1 0.8766 
31-May-2018_15:53:13 7336 19 female R 2 1 5 moral immoralOther Y y 1 0.5124 
31-May-2018_15:53:15 7336 19 female R 2 1 6 moral moralSelf U u 1 0.4701 
31-May-2018_15:53:17 7336 19 female R 2 1 7 moral immoralSelf Y y 1 0.3639 
31-May-2018_15:53:19 7336 19 female R 2 1 8 moral moralOther U NA -1 1.0731 
31-May-2018_15:53:21 7336 19 female R 2 1 9 moral moralOther U y 0 0.3928 
31-May-2018_15:53:22 7336 19 female R 2 1 10 moral immoralOther Y y 1 0.4719 
31-May-2018_15:53:24 7336 19 female R 2 1 11 moral moralSelf U y 0 0.3383 
31-May-2018_15:53:26 7336 19 female R 2 1 12 moral moralOther U u 1 0.5068 
31-May-2018_15:53:27 7336 19 female R 2 1 13 moral immoralOther Y y 1 0.5713 
31-May-2018_15:53:29 7336 19 female R 2 1 14 moral moralOther U u 1 0.7149 
31-May-2018_15:53:31 7336 19 female R 2 1 15 moral immoralSelf Y y 1 0.5620 
31-May-2018_15:53:33 7336 19 female R 2 1 16 moral immoralSelf Y u 0 0.2497 
31-May-2018_15:53:34 7336 19 female R 2 1 17 moral moralSelf U u 1 0.5006 
31-May-2018_15:53:36 7336 19 female R 2 1 18 moral moralSelf U u 1 0.2922 
31-May-2018_15:53:38 7336 19 female R 2 1 19 moral immoralOther Y y 1 0.5378 
31-May-2018_15:53:39 7336 19 female R 2 1 20 moral moralOther U u 1 0.4527 
31-May-2018_15:53:41 7336 19 female R 2 1 21 moral immoralOther Y y 1 0.4627 
31-May-2018_15:53:42 7336 19 female R 2 1 22 moral moralSelf U u 1 0.4255 
31-May-2018_15:53:44 7336 19 female R 2 1 23 moral moralSelf U u 1 0.4119 
31-May-2018_15:53:45 7336 19 female R 2 1 24 moral immoralSelf Y y 1 0.3372 
31-May-2018_15:53:47 7336 19 female R 2 2 1 moral moralOther U y 0 0.2102 
31-May-2018_15:53:49 7336 19 female R 2 2 2 moral moralOther U u 1 0.5957 
31-May-2018_15:53:50 7336 19 female R 2 2 3 moral moralSelf U u 1 0.4471 
31-May-2018_15:53:52 7336 19 female R 2 2 4 moral immoralOther Y y 1 0.4796 
31-May-2018_15:53:53 7336 19 female R 2 2 5 moral moralOther U u 1 0.6038 
31-May-2018_15:53:55 7336 19 female R 2 2 6 moral moralSelf U u 1 0.4566 
31-May-2018_15:53:56 7336 19 female R 2 2 7 moral moralOther U u 1 0.3456 
31-May-2018_15:53:58 7336 19 female R 2 2 8 moral immoralSelf Y y 1 0.3537 
31-May-2018_15:54:00 7336 19 female R 2 2 9 moral immoralSelf Y y 1 0.2121 
31-May-2018_15:54:01 7336 19 female R 2 2 10 moral moralSelf U y 0 0.3200 
31-May-2018_15:54:03 7336 19 female R 2 2 11 moral moralOther U y 0 0.2150 
31-May-2018_15:54:04 7336 19 female R 2 2 12 moral immoralOther Y y 1 0.3281 
31-May-2018_15:54:06 7336 19 female R 2 2 13 moral immoralOther Y y 1 0.4589 
31-May-2018_15:54:08 7336 19 female R 2 2 14 moral immoralSelf Y y 1 0.2529 
31-May-2018_15:54:09 7336 19 female R 2 2 15 moral immoralSelf Y y 1 0.3024 
31-May-2018_15:54:11 7336 19 female R 2 2 16 moral moralOther U y 0 0.3640 
31-May-2018_15:54:12 7336 19 female R 2 2 17 moral moralSelf U u 1 0.2149 
31-May-2018_15:54:14 7336 19 female R 2 2 18 moral immoralSelf Y y 1 0.3858 
31-May-2018_15:54:15 7336 19 female R 2 2 19 moral moralSelf U u 1 0.3793 
31-May-2018_15:54:17 7336 19 female R 2 2 20 moral immoralOther Y y 1 0.6424 
31-May-2018_15:54:19 7336 19 female R 2 2 21 moral moralSelf U u 1 0.3460 
31-May-2018_15:54:20 7336 19 female R 2 2 22 moral immoralOther Y y 1 0.3499 
31-May-2018_15:54:22 7336 19 female R 2 2 23 moral immoralOther Y y 1 0.4525 
31-May-2018_15:54:23 7336 19 female R 2 2 24 moral immoralSelf Y y 1 0.3425 
31-May-2018_15:54:32 7336 19 female R 2 3 1 moral moralOther U u 1 0.6048 
31-May-2018_15:54:33 7336 19 female R 2 3 2 moral immoralOther Y y 1 0.5013 
31-May-2018_15:54:35 7336 19 female R 2 3 3 moral immoralOther Y y 1 0.3622 
31-May-2018_15:54:36 7336 19 female R 2 3 4 moral immoralSelf Y y 1 0.4469 
31-May-2018_15:54:38 7336 19 female R 2 3 5 moral immoralSelf Y y 1 0.2809 
31-May-2018_15:54:40 7336 19 female R 2 3 6 moral immoralOther Y y 1 0.5388 
31-May-2018_15:54:42 7336 19 female R 2 3 7 moral moralOther U u 1 0.4627 
31-May-2018_15:54:44 7336 19 female R 2 3 8 moral immoralOther Y u 0 0.3107 
31-May-2018_15:54:45 7336 19 female R 2 3 9 moral immoralSelf Y y 1 0.3611 
31-May-2018_15:54:47 7336 19 female R 2 3 10 moral immoralSelf Y y 1 0.3240 
31-May-2018_15:54:48 7336 19 female R 2 3 11 moral moralOther U u 1 0.5231 
31-May-2018_15:54:49 7336 19 female R 2 3 12 moral moralSelf U u 1 0.2748 
31-May-2018_15:54:51 7336 19 female R 2 3 13 moral immoralSelf Y y 1 0.5011 
31-May-2018_15:54:52 7336 19 female R 2 3 14 moral immoralSelf Y y 1 0.3106 
31-May-2018_15:54:54 7336 19 female R 2 3 15 moral moralSelf U y 0 0.2283 
31-May-2018_15:54:55 7336 19 female R 2 3 16 moral immoralOther Y y 1 0.3503 
31-May-2018_15:54:57 7336 19 female R 2 3 17 moral moralSelf U u 1 0.1988 
31-May-2018_15:54:59 7336 19 female R 2 3 18 moral moralSelf U u 1 0.2794 
31-May-2018_15:55:00 7336 19 female R 2 3 19 moral moralOther U y 0 0.4596 
31-May-2018_15:55:02 7336 19 female R 2 3 20 moral moralSelf U y 0 0.2112 
31-May-2018_15:55:03 7336 19 female R 2 3 21 moral immoralOther Y y 1 0.2197 
31-May-2018_15:55:05 7336 19 female R 2 3 22 moral moralSelf U u 1 0.4099 
31-May-2018_15:55:06 7336 19 female R 2 3 23 moral moralOther U u 1 0.2687 
31-May-2018_15:55:08 7336 19 female R 2 3 24 moral moralOther U u 1 0.3348 
31-May-2018_15:55:09 7336 19 female R 2 4 1 moral immoralOther Y y 1 0.4322 
31-May-2018_15:55:11 7336 19 female R 2 4 2 moral moralOther U u 1 0.3988 
31-May-2018_15:55:13 7336 19 female R 2 4 3 moral moralOther U u 1 0.6394 
31-May-2018_15:55:14 7336 19 female R 2 4 4 moral immoralOther Y y 1 0.4046 
31-May-2018_15:55:16 7336 19 female R 2 4 5 moral immoralSelf Y y 1 0.4372 
31-May-2018_15:55:18 7336 19 female R 2 4 6 moral immoralSelf Y u 0 0.2352 
31-May-2018_15:55:19 7336 19 female R 2 4 7 moral moralSelf U u 1 0.3751 
31-May-2018_15:55:21 7336 19 female R 2 4 8 moral moralSelf U u 1 0.3244 
31-May-2018_15:55:22 7336 19 female R 2 4 9 moral immoralOther Y y 1 0.3701 
31-May-2018_15:55:24 7336 19 female R 2 4 10 moral immoralOther Y y 1 0.3810 
31-May-2018_15:55:25 7336 19 female R 2 4 11 moral immoralOther Y y 1 0.4173 
31-May-2018_15:55:27 7336 19 female R 2 4 12 moral immoralSelf Y y 1 0.3501 
31-May-2018_15:55:28 7336 19 female R 2 4 13 moral immoralOther Y y 1 0.3510 
31-May-2018_15:55:30 7336 19 female R 2 4 14 moral moralOther U u 1 0.4499 
31-May-2018_15:55:31 7336 19 female R 2 4 15 moral moralSelf U u 1 0.2628 
31-May-2018_15:55:33 7336 19 female R 2 4 16 moral immoralSelf Y y 1 0.5197 
31-May-2018_15:55:35 7336 19 female R 2 4 17 moral moralOther U u 1 0.4887 
31-May-2018_15:55:36 7336 19 female R 2 4 18 moral moralOther U u 1 0.4017 
31-May-2018_15:55:38 7336 19 female R 2 4 19 moral moralSelf U y 0 0.3829 
31-May-2018_15:55:40 7336 19 female R 2 4 20 moral moralSelf U u 1 0.4037 
31-May-2018_15:55:42 7336 19 female R 2 4 21 moral moralOther U u 1 0.4508 
31-May-2018_15:55:43 7336 19 female R 2 4 22 moral immoralSelf Y y 1 0.4184 
31-May-2018_15:55:45 7336 19 female R 2 4 23 moral moralSelf U y 0 0.2485 
31-May-2018_15:55:47 7336 19 female R 2 4 24 moral immoralSelf Y y 1 0.3278 
31-May-2018_15:55:53 7336 19 female R 2 5 1 moral immoralSelf Y y 1 0.3948 
31-May-2018_15:55:54 7336 19 female R 2 5 2 moral immoralOther Y y 1 0.2763 
31-May-2018_15:55:56 7336 19 female R 2 5 3 moral immoralSelf Y y 1 0.7097 
31-May-2018_15:55:58 7336 19 female R 2 5 4 moral immoralSelf Y y 1 0.3263 
31-May-2018_15:55:59 7336 19 female R 2 5 5 moral moralOther U u 1 0.2605 
31-May-2018_15:56:01 7336 19 female R 2 5 6 moral moralSelf U u 1 0.3099 
31-May-2018_15:56:02 7336 19 female R 2 5 7 moral moralOther U u 1 0.5030 
31-May-2018_15:56:04 7336 19 female R 2 5 8 moral immoralSelf Y y 1 0.4258 
31-May-2018_15:56:05 7336 19 female R 2 5 9 moral moralOther U u 1 0.3953 
31-May-2018_15:56:07 7336 19 female R 2 5 10 moral immoralOther Y y 1 0.6551 
31-May-2018_15:56:08 7336 19 female R 2 5 11 moral moralSelf U u 1 0.4024 
31-May-2018_15:56:10 7336 19 female R 2 5 12 moral immoralOther Y y 1 0.4787 
31-May-2018_15:56:12 7336 19 female R 2 5 13 moral moralSelf U u 1 0.3934 
31-May-2018_15:56:13 7336 19 female R 2 5 14 moral moralSelf U u 1 0.3946 
31-May-2018_15:56:15 7336 19 female R 2 5 15 moral moralOther U u 1 0.2963 
31-May-2018_15:56:16 7336 19 female R 2 5 16 moral moralSelf U u 1 0.3264 
31-May-2018_15:56:18 7336 19 female R 2 5 17 moral moralOther U u 1 0.4913 
31-May-2018_15:56:20 7336 19 female R 2 5 18 moral immoralOther Y y 1 0.4330 
31-May-2018_15:56:22 7336 19 female R 2 5 19 moral moralSelf U u 1 0.3733 
31-May-2018_15:56:23 7336 19 female R 2 5 20 moral immoralSelf Y y 1 0.4854 
31-May-2018_15:56:25 7336 19 female R 2 5 21 moral immoralSelf Y y 1 0.3424 
31-May-2018_15:56:26 7336 19 female R 2 5 22 moral immoralOther Y u 0 0.4308 
31-May-2018_15:56:28 7336 19 female R 2 5 23 moral moralOther U u 1 0.6709 
31-May-2018_15:56:29 7336 19 female R 2 5 24 moral immoralOther Y y 1 0.4890 
Date Sub Age Sex Hand Block Bin Trial Task Shape corrResp Resp ACC RT
31-May-2018_16:00:12 7336 19 female R 3 1 1 self moralOther J j 1 0.4762 
31-May-2018_16:00:14 7336 19 female R 3 1 2 self immoralOther J j 1 0.4208 
31-May-2018_16:00:15 7336 19 female R 3 1 3 self moralOther J j 1 0.4007 
31-May-2018_16:00:17 7336 19 female R 3 1 4 self immoralSelf H h 1 0.4087 
31-May-2018_16:00:18 7336 19 female R 3 1 5 self moralSelf H h 1 0.2976 
31-May-2018_16:00:20 7336 19 female R 3 1 6 self immoralSelf H h 1 0.3307 
31-May-2018_16:00:21 7336 19 female R 3 1 7 self moralSelf H h 1 0.2822 
31-May-2018_16:00:23 7336 19 female R 3 1 8 self moralOther J j 1 0.3139 
31-May-2018_16:00:24 7336 19 female R 3 1 9 self moralOther J j 1 0.2354 
31-May-2018_16:00:26 7336 19 female R 3 1 10 self moralSelf H h 1 0.4377 
31-May-2018_16:00:28 7336 19 female R 3 1 11 self moralSelf H h 1 0.2906 
31-May-2018_16:00:29 7336 19 female R 3 1 12 self moralSelf H h 1 0.3848 
31-May-2018_16:00:31 7336 19 female R 3 1 13 self immoralOther J j 1 0.4187 
31-May-2018_16:00:33 7336 19 female R 3 1 14 self immoralSelf H h 1 0.4134 
31-May-2018_16:00:34 7336 19 female R 3 1 15 self moralOther J j 1 0.4047 
31-May-2018_16:00:36 7336 19 female R 3 1 16 self immoralOther J j 1 0.5147 
31-May-2018_16:00:38 7336 19 female R 3 1 17 self immoralOther J j 1 0.5982 
31-May-2018_16:00:39 7336 19 female R 3 1 18 self immoralSelf H h 1 0.4162 
31-May-2018_16:00:41 7336 19 female R 3 1 19 self moralOther J j 1 0.3931 
31-May-2018_16:00:43 7336 19 female R 3 1 20 self immoralSelf H h 1 0.4887 
31-May-2018_16:00:44 7336 19 female R 3 1 21 self moralSelf H h 1 0.3406 
31-May-2018_16:00:46 7336 19 female R 3 1 22 self immoralOther J j 1 0.3326 
31-May-2018_16:00:47 7336 19 female R 3 1 23 self immoralSelf H h 1 0.4550 
31-May-2018_16:00:49 7336 19 female R 3 1 24 self immoralOther J j 1 0.4240 
31-May-2018_16:00:51 7336 19 female R 3 2 1 self moralOther J j 1 0.4358 
31-May-2018_16:00:53 7336 19 female R 3 2 2 self moralOther J j 1 0.3720 
31-May-2018_16:00:54 7336 19 female R 3 2 3 self moralOther J j 1 0.3043 
31-May-2018_16:00:56 7336 19 female R 3 2 4 self moralSelf H h 1 0.3975 
31-May-2018_16:00:57 7336 19 female R 3 2 5 self immoralOther J h 0 0.1972 
31-May-2018_16:00:59 7336 19 female R 3 2 6 self immoralSelf H h 1 0.3834 
31-May-2018_16:01:00 7336 19 female R 3 2 7 self moralSelf H h 1 0.2536 
31-May-2018_16:01:02 7336 19 female R 3 2 8 self immoralSelf H h 1 0.3379 
31-May-2018_16:01:03 7336 19 female R 3 2 9 self moralSelf H h 1 0.3050 
31-May-2018_16:01:05 7336 19 female R 3 2 10 self immoralOther J j 1 0.4410 
31-May-2018_16:01:06 7336 19 female R 3 2 11 self immoralOther J j 1 0.3724 
31-May-2018_16:01:08 7336 19 female R 3 2 12 self moralOther J j 1 0.4087 
31-May-2018_16:01:10 7336 19 female R 3 2 13 self immoralSelf H h 1 0.3975 
31-May-2018_16:01:11 7336 19 female R 3 2 14 self immoralSelf H h 1 0.4673 
31-May-2018_16:01:12 7336 19 female R 3 2 15 self immoralOther J j 1 0.3727 
31-May-2018_16:01:14 7336 19 female R 3 2 16 self moralOther J j 1 0.3599 
31-May-2018_16:01:16 7336 19 female R 3 2 17 self moralSelf H h 1 0.3582 
31-May-2018_16:01:18 7336 19 female R 3 2 18 self moralSelf H h 1 0.2769 
31-May-2018_16:01:19 7336 19 female R 3 2 19 self immoralOther J j 1 0.3291 
31-May-2018_16:01:21 7336 19 female R 3 2 20 self immoralSelf H h 1 0.4869 
31-May-2018_16:01:23 7336 19 female R 3 2 21 self immoralSelf H h 1 0.2615 
31-May-2018_16:01:24 7336 19 female R 3 2 22 self moralOther J j 1 0.3627 
31-May-2018_16:01:26 7336 19 female R 3 2 23 self moralSelf H h 1 0.3695 
31-May-2018_16:01:28 7336 19 female R 3 2 24 self immoralOther J j 1 0.4043 
31-May-2018_16:01:34 7336 19 female R 3 3 1 self moralSelf H h 1 0.3715 
31-May-2018_16:01:35 7336 19 female R 3 3 2 self immoralOther J j 1 0.3829 
31-May-2018_16:01:37 7336 19 female R 3 3 3 self moralSelf H h 1 0.3101 
31-May-2018_16:01:38 7336 19 female R 3 3 4 self immoralSelf H h 1 0.3022 
31-May-2018_16:01:40 7336 19 female R 3 3 5 self immoralOther J j 1 0.3234 
31-May-2018_16:01:41 7336 19 female R 3 3 6 self moralOther J j 1 0.3277 
31-May-2018_16:01:43 7336 19 female R 3 3 7 self moralOther J j 1 0.3432 
31-May-2018_16:01:44 7336 19 female R 3 3 8 self immoralOther J j 1 0.1758 
31-May-2018_16:01:46 7336 19 female R 3 3 9 self moralSelf H h 1 0.2949 
31-May-2018_16:01:47 7336 19 female R 3 3 10 self immoralOther J j 1 0.3519 
31-May-2018_16:01:49 7336 19 female R 3 3 11 self moralOther J j 1 0.4385 
31-May-2018_16:01:50 7336 19 female R 3 3 12 self moralSelf H h 1 0.3186 
31-May-2018_16:01:51 7336 19 female R 3 3 13 self moralSelf H h 1 0.2669 
31-May-2018_16:01:53 7336 19 female R 3 3 14 self immoralOther J j 1 0.2896 
31-May-2018_16:01:55 7336 19 female R 3 3 15 self moralOther J j 1 0.3291 
31-May-2018_16:01:56 7336 19 female R 3 3 16 self immoralSelf H h 1 0.2642 
31-May-2018_16:01:58 7336 19 female R 3 3 17 self immoralSelf H h 1 0.4130 
31-May-2018_16:01:59 7336 19 female R 3 3 18 self moralOther J j 1 0.3961 
31-May-2018_16:02:01 7336 19 female R 3 3 19 self moralOther J j 1 0.3232 
31-May-2018_16:02:03 7336 19 female R 3 3 20 self moralSelf H h 1 0.4541 
31-May-2018_16:02:04 7336 19 female R 3 3 21 self immoralSelf H h 1 0.2203 
31-May-2018_16:02:06 7336 19 female R 3 3 22 self immoralSelf H h 1 0.3770 
31-May-2018_16:02:07 7336 19 female R 3 3 23 self immoralSelf H h 1 0.2492 
31-May-2018_16:02:09 7336 19 female R 3 3 24 self immoralOther J j 1 0.3457 
31-May-2018_16:02:11 7336 19 female R 3 4 1 self immoralSelf H j 0 0.3701 
31-May-2018_16:02:12 7336 19 female R 3 4 2 self moralSelf H h 1 0.3317 
31-May-2018_16:02:15 7336 19 female R 3 4 3 self moralOther J NA -1 1.0731 
31-May-2018_16:02:16 7336 19 female R 3 4 4 self moralSelf H h 1 0.2913 
31-May-2018_16:02:18 7336 19 female R 3 4 5 self immoralSelf H h 1 0.2486 
31-May-2018_16:02:19 7336 19 female R 3 4 6 self immoralOther J j 1 0.3212 
31-May-2018_16:02:21 7336 19 female R 3 4 7 self moralOther J j 1 0.3583 
31-May-2018_16:02:23 7336 19 female R 3 4 8 self immoralOther J j 1 0.3768 
31-May-2018_16:02:24 7336 19 female R 3 4 9 self moralOther J j 1 0.4568 
31-May-2018_16:02:26 7336 19 female R 3 4 10 self immoralSelf H h 1 0.3749 
31-May-2018_16:02:28 7336 19 female R 3 4 11 self immoralOther J j 1 0.3963 
31-May-2018_16:02:29 7336 19 female R 3 4 12 self immoralOther J j 1 0.3723 
31-May-2018_16:02:31 7336 19 female R 3 4 13 self moralOther J j 1 0.4175 
31-May-2018_16:02:32 7336 19 female R 3 4 14 self immoralSelf H h 1 0.4312 
31-May-2018_16:02:34 7336 19 female R 3 4 15 self moralSelf H h 1 0.4102 
31-May-2018_16:02:35 7336 19 female R 3 4 16 self moralOther J j 1 0.2295 
31-May-2018_16:02:37 7336 19 female R 3 4 17 self moralOther J j 1 0.2442 
31-May-2018_16:02:38 7336 19 female R 3 4 18 self immoralOther J j 1 0.3929 
31-May-2018_16:02:40 7336 19 female R 3 4 19 self moralSelf H h 1 0.3831 
31-May-2018_16:02:42 7336 19 female R 3 4 20 self immoralSelf H j 0 0.4636 
31-May-2018_16:02:43 7336 19 female R 3 4 21 self immoralSelf H j 0 0.3579 
31-May-2018_16:02:45 7336 19 female R 3 4 22 self immoralOther J j 1 0.4473 
31-May-2018_16:02:47 7336 19 female R 3 4 23 self moralSelf H h 1 0.3989 
31-May-2018_16:02:48 7336 19 female R 3 4 24 self moralSelf H h 1 0.3038 
31-May-2018_16:02:52 7336 19 female R 3 5 1 self moralOther J j 1 0.5209 
31-May-2018_16:02:54 7336 19 female R 3 5 2 self immoralSelf H j 0 0.3908 
31-May-2018_16:02:56 7336 19 female R 3 5 3 self moralOther J j 1 0.3945 
31-May-2018_16:02:58 7336 19 female R 3 5 4 self moralSelf H h 1 0.3776 
31-May-2018_16:02:59 7336 19 female R 3 5 5 self immoralSelf H h 1 0.4182 
31-May-2018_16:03:01 7336 19 female R 3 5 6 self immoralSelf H h 1 0.3477 
31-May-2018_16:03:02 7336 19 female R 3 5 7 self moralSelf H h 1 0.2913 
31-May-2018_16:03:04 7336 19 female R 3 5 8 self immoralOther J j 1 0.4329 
31-May-2018_16:03:05 7336 19 female R 3 5 9 self moralOther J j 1 0.2673 
31-May-2018_16:03:07 7336 19 female R 3 5 10 self moralSelf H h 1 0.4241 
31-May-2018_16:03:09 7336 19 female R 3 5 11 self moralSelf H h 1 0.3268 
31-May-2018_16:03:10 7336 19 female R 3 5 12 self moralOther J j 1 0.6379 
31-May-2018_16:03:12 7336 19 female R 3 5 13 self immoralOther J j 1 0.8799 
31-May-2018_16:03:14 7336 19 female R 3 5 14 self immoralOther J j 1 0.3665 
31-May-2018_16:03:16 7336 19 female R 3 5 15 self immoralSelf H h 1 0.4183 
31-May-2018_16:03:17 7336 19 female R 3 5 16 self immoralOther J j 1 0.4876 
31-May-2018_16:03:19 7336 19 female R 3 5 17 self moralOther J j 1 0.3705 
31-May-2018_16:03:20 7336 19 female R 3 5 18 self immoralSelf H h 1 0.3804 
31-May-2018_16:03:22 7336 19 female R 3 5 19 self moralSelf H h 1 0.3706 
31-May-2018_16:03:23 7336 19 female R 3 5 20 self immoralOther J j 1 0.4229 
31-May-2018_16:03:25 7336 19 female R 3 5 21 self immoralOther J j 1 0.3962 
31-May-2018_16:03:27 7336 19 female R 3 5 22 self immoralSelf H h 1 0.4948 
31-May-2018_16:03:28 7336 19 female R 3 5 23 self moralOther J j 1 0.3723 
31-May-2018_16:03:30 7336 19 female R 3 5 24 self moralSelf H h 1 0.3408 
Date Sub Age Sex Hand Block Bin Trial Task Shape corrResp Resp ACC RT
31-May-2018_16:05:46 7336 19 female R 4 1 1 moral immoralSelf Y y 1 0.4527 
31-May-2018_16:05:48 7336 19 female R 4 1 2 moral moralOther U u 1 0.4802 
31-May-2018_16:05:50 7336 19 female R 4 1 3 moral immoralOther Y y 1 0.7098 
31-May-2018_16:05:51 7336 19 female R 4 1 4 moral immoralSelf Y y 1 0.5081 
31-May-2018_16:05:53 7336 19 female R 4 1 5 moral moralSelf U u 1 0.4263 
31-May-2018_16:05:55 7336 19 female R 4 1 6 moral immoralSelf Y y 1 0.3384 
31-May-2018_16:05:56 7336 19 female R 4 1 7 moral moralSelf U u 1 0.3568 
31-May-2018_16:05:58 7336 19 female R 4 1 8 moral immoralSelf Y y 1 0.4171 
31-May-2018_16:05:59 7336 19 female R 4 1 9 moral moralOther U y 0 0.6209 
31-May-2018_16:06:01 7336 19 female R 4 1 10 moral moralOther U u 1 0.5734 
31-May-2018_16:06:02 7336 19 female R 4 1 11 moral immoralSelf Y y 1 0.4017 
31-May-2018_16:06:04 7336 19 female R 4 1 12 moral immoralOther Y y 1 0.2949 
31-May-2018_16:06:05 7336 19 female R 4 1 13 moral immoralOther Y u 0 0.3185 
31-May-2018_16:06:07 7336 19 female R 4 1 14 moral moralOther U u 1 0.5487 
31-May-2018_16:06:09 7336 19 female R 4 1 15 moral moralOther U u 1 0.3436 
31-May-2018_16:06:10 7336 19 female R 4 1 16 moral moralOther U u 1 0.5126 
31-May-2018_16:06:12 7336 19 female R 4 1 17 moral moralSelf U u 1 0.3752 
31-May-2018_16:06:13 7336 19 female R 4 1 18 moral immoralSelf Y y 1 0.4045 
31-May-2018_16:06:15 7336 19 female R 4 1 19 moral moralSelf U y 0 0.4869 
31-May-2018_16:06:16 7336 19 female R 4 1 20 moral moralSelf U u 1 0.4178 
31-May-2018_16:06:18 7336 19 female R 4 1 21 moral moralSelf U u 1 0.3247 
31-May-2018_16:06:19 7336 19 female R 4 1 22 moral immoralOther Y y 1 0.4664 
31-May-2018_16:06:21 7336 19 female R 4 1 23 moral immoralOther Y y 1 0.2979 
31-May-2018_16:06:23 7336 19 female R 4 1 24 moral immoralOther Y y 1 0.2590 
31-May-2018_16:06:24 7336 19 female R 4 2 1 moral moralOther U u 1 0.4971 
31-May-2018_16:06:26 7336 19 female R 4 2 2 moral immoralSelf Y u 0 0.3560 
31-May-2018_16:06:28 7336 19 female R 4 2 3 moral moralOther U u 1 0.4789 
31-May-2018_16:06:29 7336 19 female R 4 2 4 moral immoralSelf Y y 1 0.5519 
31-May-2018_16:06:31 7336 19 female R 4 2 5 moral immoralSelf Y y 1 0.3168 
31-May-2018_16:06:32 7336 19 female R 4 2 6 moral immoralOther Y y 1 0.5101 
31-May-2018_16:06:34 7336 19 female R 4 2 7 moral immoralOther Y y 1 0.3568 
31-May-2018_16:06:36 7336 19 female R 4 2 8 moral immoralSelf Y y 1 0.3847 
31-May-2018_16:06:37 7336 19 female R 4 2 9 moral moralOther U u 1 0.5837 
31-May-2018_16:06:39 7336 19 female R 4 2 10 moral moralSelf U u 1 0.2238 
31-May-2018_16:06:41 7336 19 female R 4 2 11 moral immoralOther Y y 1 0.4846 
31-May-2018_16:06:42 7336 19 female R 4 2 12 moral moralOther U y 0 0.3392 
31-May-2018_16:06:44 7336 19 female R 4 2 13 moral moralOther U u 1 0.4419 
31-May-2018_16:06:45 7336 19 female R 4 2 14 moral immoralOther Y y 1 0.5107 
31-May-2018_16:06:47 7336 19 female R 4 2 15 moral moralSelf U u 1 0.2759 
31-May-2018_16:06:48 7336 19 female R 4 2 16 moral moralSelf U u 1 0.2680 
31-May-2018_16:06:50 7336 19 female R 4 2 17 moral moralSelf U u 1 0.3377 
31-May-2018_16:06:51 7336 19 female R 4 2 18 moral moralSelf U u 1 0.3745 
31-May-2018_16:06:53 7336 19 female R 4 2 19 moral moralOther U y 0 0.4003 
31-May-2018_16:06:54 7336 19 female R 4 2 20 moral immoralSelf Y y 1 0.2738 
31-May-2018_16:06:56 7336 19 female R 4 2 21 moral immoralSelf Y y 1 0.3684 
31-May-2018_16:06:57 7336 19 female R 4 2 22 moral immoralOther Y y 1 0.4317 
31-May-2018_16:06:59 7336 19 female R 4 2 23 moral moralSelf U u 1 0.5037 
31-May-2018_16:07:00 7336 19 female R 4 2 24 moral immoralOther Y y 1 0.5155 
31-May-2018_16:07:05 7336 19 female R 4 3 1 moral immoralOther Y y 1 0.5966 
31-May-2018_16:07:06 7336 19 female R 4 3 2 moral moralSelf U u 1 0.4347 
31-May-2018_16:07:07 7336 19 female R 4 3 3 moral moralSelf U u 1 0.3709 
31-May-2018_16:07:09 7336 19 female R 4 3 4 moral moralSelf U u 1 0.2857 
31-May-2018_16:07:10 7336 19 female R 4 3 5 moral immoralOther Y y 1 0.3394 
31-May-2018_16:07:12 7336 19 female R 4 3 6 moral immoralSelf Y y 1 0.5235 
31-May-2018_16:07:14 7336 19 female R 4 3 7 moral immoralSelf Y y 1 0.2498 
31-May-2018_16:07:15 7336 19 female R 4 3 8 moral immoralSelf Y y 1 0.2474 
31-May-2018_16:07:16 7336 19 female R 4 3 9 moral immoralOther Y y 1 0.2607 
31-May-2018_16:07:18 7336 19 female R 4 3 10 moral immoralOther Y y 1 0.3689 
31-May-2018_16:07:20 7336 19 female R 4 3 11 moral moralOther U u 1 0.4889 
31-May-2018_16:07:21 7336 19 female R 4 3 12 moral moralSelf U u 1 0.3271 
31-May-2018_16:07:23 7336 19 female R 4 3 13 moral moralSelf U u 1 0.3342 
31-May-2018_16:07:25 7336 19 female R 4 3 14 moral moralOther U u 1 0.3227 
31-May-2018_16:07:26 7336 19 female R 4 3 15 moral immoralSelf Y y 1 0.3655 
31-May-2018_16:07:28 7336 19 female R 4 3 16 moral moralOther U y 0 0.3024 
31-May-2018_16:07:29 7336 19 female R 4 3 17 moral immoralOther Y y 1 0.4319 
31-May-2018_16:07:30 7336 19 female R 4 3 18 moral immoralSelf Y y 1 0.3670 
31-May-2018_16:07:32 7336 19 female R 4 3 19 moral immoralSelf Y y 1 0.4108 
31-May-2018_16:07:34 7336 19 female R 4 3 20 moral moralOther U u 1 0.4048 
31-May-2018_16:07:35 7336 19 female R 4 3 21 moral moralOther U u 1 0.3568 
31-May-2018_16:07:37 7336 19 female R 4 3 22 moral immoralOther Y y 1 0.4180 
31-May-2018_16:07:38 7336 19 female R 4 3 23 moral moralOther U u 1 0.4906 
31-May-2018_16:07:40 7336 19 female R 4 3 24 moral moralSelf U u 1 0.3626 
31-May-2018_16:07:42 7336 19 female R 4 4 1 moral moralSelf U u 1 0.2945 
31-May-2018_16:07:43 7336 19 female R 4 4 2 moral moralSelf U u 1 0.3021 
31-May-2018_16:07:45 7336 19 female R 4 4 3 moral moralSelf U u 1 0.2866 
31-May-2018_16:07:46 7336 19 female R 4 4 4 moral immoralOther Y y 1 0.4786 
31-May-2018_16:07:48 7336 19 female R 4 4 5 moral moralOther U y 0 0.3140 
31-May-2018_16:07:49 7336 19 female R 4 4 6 moral immoralOther Y y 1 0.2807 
31-May-2018_16:07:51 7336 19 female R 4 4 7 moral moralOther U u 1 0.4957 
31-May-2018_16:07:53 7336 19 female R 4 4 8 moral immoralSelf Y y 1 0.5579 
31-May-2018_16:07:54 7336 19 female R 4 4 9 moral immoralSelf Y y 1 0.3867 
31-May-2018_16:07:56 7336 19 female R 4 4 10 moral immoralOther Y y 1 0.3397 
31-May-2018_16:07:58 7336 19 female R 4 4 11 moral moralOther U u 1 0.3889 
31-May-2018_16:07:59 7336 19 female R 4 4 12 moral immoralSelf Y y 1 0.3215 
31-May-2018_16:08:01 7336 19 female R 4 4 13 moral immoralOther Y y 1 0.4825 
31-May-2018_16:08:02 7336 19 female R 4 4 14 moral immoralOther Y y 1 0.4209 
31-May-2018_16:08:04 7336 19 female R 4 4 15 moral moralSelf U u 1 0.3246 
31-May-2018_16:08:05 7336 19 female R 4 4 16 moral moralSelf U u 1 0.3015 
31-May-2018_16:08:07 7336 19 female R 4 4 17 moral moralOther U u 1 0.4734 
31-May-2018_16:08:08 7336 19 female R 4 4 18 moral immoralSelf Y y 1 0.3722 
31-May-2018_16:08:10 7336 19 female R 4 4 19 moral immoralSelf Y y 1 0.5196 
31-May-2018_16:08:12 7336 19 female R 4 4 20 moral moralOther U y 0 0.3310 
31-May-2018_16:08:13 7336 19 female R 4 4 21 moral immoralOther Y y 1 0.3248 
31-May-2018_16:08:15 7336 19 female R 4 4 22 moral moralOther U u 1 0.4182 
31-May-2018_16:08:16 7336 19 female R 4 4 23 moral immoralSelf Y y 1 0.4746 
31-May-2018_16:08:18 7336 19 female R 4 4 24 moral moralSelf U u 1 0.4554 
31-May-2018_16:08:23 7336 19 female R 4 5 1 moral immoralOther Y y 1 0.3658 
31-May-2018_16:08:24 7336 19 female R 4 5 2 moral moralOther U y 0 0.3319 
31-May-2018_16:08:26 7336 19 female R 4 5 3 moral moralOther U u 1 0.4388 
31-May-2018_16:08:28 7336 19 female R 4 5 4 moral moralOther U u 1 0.3697 
31-May-2018_16:08:29 7336 19 female R 4 5 5 moral immoralSelf Y y 1 0.4074 
31-May-2018_16:08:31 7336 19 female R 4 5 6 moral immoralOther Y y 1 0.3115 
31-May-2018_16:08:32 7336 19 female R 4 5 7 moral moralSelf U u 1 0.4207 
31-May-2018_16:08:34 7336 19 female R 4 5 8 moral immoralOther Y y 1 0.5793 
31-May-2018_16:08:35 7336 19 female R 4 5 9 moral immoralSelf Y y 1 0.3390 
31-May-2018_16:08:37 7336 19 female R 4 5 10 moral moralSelf U y 0 0.3856 
31-May-2018_16:08:39 7336 19 female R 4 5 11 moral moralOther U u 1 0.5264 
31-May-2018_16:08:40 7336 19 female R 4 5 12 moral immoralSelf Y y 1 0.3602 
31-May-2018_16:08:42 7336 19 female R 4 5 13 moral moralOther U u 1 0.4799 
31-May-2018_16:08:44 7336 19 female R 4 5 14 moral moralSelf U u 1 0.4540 
31-May-2018_16:08:45 7336 19 female R 4 5 15 moral moralSelf U u 1 0.3756 
31-May-2018_16:08:47 7336 19 female R 4 5 16 moral immoralSelf Y y 1 0.5234 
31-May-2018_16:08:49 7336 19 female R 4 5 17 moral immoralOther Y u 0 0.4190 
31-May-2018_16:08:50 7336 19 female R 4 5 18 moral moralOther U u 1 0.5315 
31-May-2018_16:08:52 7336 19 female R 4 5 19 moral moralSelf U u 1 0.3288 
31-May-2018_16:08:54 7336 19 female R 4 5 20 moral immoralSelf Y y 1 0.3067 
31-May-2018_16:08:55 7336 19 female R 4 5 21 moral moralSelf U u 1 0.4503 
31-May-2018_16:08:57 7336 19 female R 4 5 22 moral immoralOther Y y 1 0.5153 
31-May-2018_16:08:58 7336 19 female R 4 5 23 moral immoralOther Y y 1 0.4240 
31-May-2018_16:09:00 7336 19 female R 4 5 24 moral immoralSelf Y y 1 0.4213 
Date Sub Age Sex Hand Block Bin Trial Task Shape corrResp Resp ACC RT
31-May-2018_16:11:05 7336 19 female R 5 1 1 moral immoralOther Y y 1 0.4533 
31-May-2018_16:11:07 7336 19 female R 5 1 2 moral immoralSelf Y y 1 0.4102 
31-May-2018_16:11:08 7336 19 female R 5 1 3 moral moralSelf U u 1 0.4169 
31-May-2018_16:11:10 7336 19 female R 5 1 4 moral immoralOther Y y 1 0.4540 
31-May-2018_16:11:12 7336 19 female R 5 1 5 moral immoralOther Y y 1 0.3403 
31-May-2018_16:11:13 7336 19 female R 5 1 6 moral moralOther U u 1 0.3367 
31-May-2018_16:11:15 7336 19 female R 5 1 7 moral immoralSelf Y y 1 0.4384 
31-May-2018_16:11:16 7336 19 female R 5 1 8 moral immoralOther Y y 1 0.4030 
31-May-2018_16:11:18 7336 19 female R 5 1 9 moral immoralSelf Y y 1 0.4112 
31-May-2018_16:11:20 7336 19 female R 5 1 10 moral moralOther U u 1 0.4507 
31-May-2018_16:11:21 7336 19 female R 5 1 11 moral immoralSelf Y y 1 0.4150 
31-May-2018_16:11:23 7336 19 female R 5 1 12 moral moralOther U u 1 0.5059 
31-May-2018_16:11:24 7336 19 female R 5 1 13 moral immoralSelf Y y 1 0.4330 
31-May-2018_16:11:26 7336 19 female R 5 1 14 moral moralOther U u 1 0.4802 
31-May-2018_16:11:28 7336 19 female R 5 1 15 moral immoralOther Y u 0 0.6929 
31-May-2018_16:11:30 7336 19 female R 5 1 16 moral moralSelf U u 1 0.3617 
31-May-2018_16:11:32 7336 19 female R 5 1 17 moral immoralOther Y y 1 0.8347 
31-May-2018_16:11:34 7336 19 female R 5 1 18 moral moralSelf U u 1 0.4574 
31-May-2018_16:11:36 7336 19 female R 5 1 19 moral moralOther U u 1 0.5158 
31-May-2018_16:11:37 7336 19 female R 5 1 20 moral moralOther U u 1 0.4429 
31-May-2018_16:11:39 7336 19 female R 5 1 21 moral moralSelf U u 1 0.5145 
31-May-2018_16:11:41 7336 19 female R 5 1 22 moral moralSelf U u 1 0.4021 
31-May-2018_16:11:42 7336 19 female R 5 1 23 moral immoralSelf Y y 1 0.6027 
31-May-2018_16:11:44 7336 19 female R 5 1 24 moral moralSelf U u 1 0.6051 
31-May-2018_16:11:46 7336 19 female R 5 2 1 moral moralOther U u 1 0.5741 
31-May-2018_16:11:47 7336 19 female R 5 2 2 moral immoralSelf Y y 1 0.4960 
31-May-2018_16:11:49 7336 19 female R 5 2 3 moral immoralSelf Y y 1 0.3836 
31-May-2018_16:11:50 7336 19 female R 5 2 4 moral moralSelf U u 1 0.3606 
31-May-2018_16:11:52 7336 19 female R 5 2 5 moral immoralSelf Y y 1 0.3909 
31-May-2018_16:11:54 7336 19 female R 5 2 6 moral moralSelf U u 1 0.3961 
31-May-2018_16:11:55 7336 19 female R 5 2 7 moral moralSelf U u 1 0.4300 
31-May-2018_16:11:57 7336 19 female R 5 2 8 moral immoralOther Y u 0 0.4121 
31-May-2018_16:11:58 7336 19 female R 5 2 9 moral moralOther U u 1 0.4038 
31-May-2018_16:12:00 7336 19 female R 5 2 10 moral moralSelf U u 1 0.5163 
31-May-2018_16:12:02 7336 19 female R 5 2 11 moral moralSelf U u 1 0.5493 
31-May-2018_16:12:04 7336 19 female R 5 2 12 moral moralOther U u 1 0.5301 
31-May-2018_16:12:06 7336 19 female R 5 2 13 moral immoralSelf Y y 1 0.5527 
31-May-2018_16:12:08 7336 19 female R 5 2 14 moral immoralOther Y y 1 0.8926 
31-May-2018_16:12:10 7336 19 female R 5 2 15 moral immoralSelf Y y 1 0.6188 
31-May-2018_16:12:11 7336 19 female R 5 2 16 moral immoralSelf Y y 1 0.4885 
31-May-2018_16:12:13 7336 19 female R 5 2 17 moral immoralOther Y NA -1 1.0731 
31-May-2018_16:12:15 7336 19 female R 5 2 18 moral moralOther U u 1 0.6289 
31-May-2018_16:12:17 7336 19 female R 5 2 19 moral moralOther U u 1 0.3546 
31-May-2018_16:12:18 7336 19 female R 5 2 20 moral moralOther U u 1 0.3095 
31-May-2018_16:12:20 7336 19 female R 5 2 21 moral moralSelf U u 1 0.3726 
31-May-2018_16:12:22 7336 19 female R 5 2 22 moral immoralOther Y y 1 0.5717 
31-May-2018_16:12:23 7336 19 female R 5 2 23 moral immoralOther Y y 1 0.3685 
31-May-2018_16:12:25 7336 19 female R 5 2 24 moral immoralOther Y y 1 0.3055 
31-May-2018_16:12:29 7336 19 female R 5 3 1 moral moralSelf U u 1 0.5098 
31-May-2018_16:12:30 7336 19 female R 5 3 2 moral moralSelf U u 1 0.3448 
31-May-2018_16:12:31 7336 19 female R 5 3 3 moral moralOther U u 1 0.3133 
31-May-2018_16:12:33 7336 19 female R 5 3 4 moral moralOther U u 1 0.3534 
31-May-2018_16:12:34 7336 19 female R 5 3 5 moral moralSelf U u 1 0.4137 
31-May-2018_16:12:36 7336 19 female R 5 3 6 moral immoralSelf Y y 1 0.2716 
31-May-2018_16:12:37 7336 19 female R 5 3 7 moral immoralSelf Y y 1 0.3112 
31-May-2018_16:12:39 7336 19 female R 5 3 8 moral moralOther U u 1 0.4383 
31-May-2018_16:12:41 7336 19 female R 5 3 9 moral immoralSelf Y y 1 0.5099 
31-May-2018_16:12:42 7336 19 female R 5 3 10 moral immoralOther Y u 0 0.4944 
31-May-2018_16:12:44 7336 19 female R 5 3 11 moral immoralOther Y y 1 0.6196 
31-May-2018_16:12:46 7336 19 female R 5 3 12 moral moralSelf U u 1 0.7463 
31-May-2018_16:12:48 7336 19 female R 5 3 13 moral immoralOther Y y 1 0.4241 
31-May-2018_16:12:49 7336 19 female R 5 3 14 moral immoralOther Y y 1 0.3996 
31-May-2018_16:12:51 7336 19 female R 5 3 15 moral moralOther U u 1 0.5484 
31-May-2018_16:12:53 7336 19 female R 5 3 16 moral moralOther U u 1 0.6130 
31-May-2018_16:12:54 7336 19 female R 5 3 17 moral immoralSelf Y y 1 0.4922 
31-May-2018_16:12:56 7336 19 female R 5 3 18 moral moralOther U u 1 0.7411 
31-May-2018_16:12:58 7336 19 female R 5 3 19 moral immoralOther Y y 1 0.4720 
31-May-2018_16:13:00 7336 19 female R 5 3 20 moral immoralSelf Y y 1 0.3776 
31-May-2018_16:13:01 7336 19 female R 5 3 21 moral moralSelf U u 1 0.3370 
31-May-2018_16:13:03 7336 19 female R 5 3 22 moral moralSelf U u 1 0.4199 
31-May-2018_16:13:04 7336 19 female R 5 3 23 moral immoralOther Y y 1 0.3528 
31-May-2018_16:13:06 7336 19 female R 5 3 24 moral immoralSelf Y y 1 0.3419 
31-May-2018_16:13:07 7336 19 female R 5 4 1 moral moralOther U y 0 0.3782 
31-May-2018_16:13:09 7336 19 female R 5 4 2 moral immoralSelf Y y 1 0.4028 
31-May-2018_16:13:11 7336 19 female R 5 4 3 moral immoralOther Y y 1 0.4956 
31-May-2018_16:13:12 7336 19 female R 5 4 4 moral immoralOther Y y 1 0.4574 
31-May-2018_16:13:14 7336 19 female R 5 4 5 moral immoralSelf Y y 1 0.3479 
31-May-2018_16:13:15 7336 19 female R 5 4 6 moral moralOther U u 1 0.4807 
31-May-2018_16:13:17 7336 19 female R 5 4 7 moral moralOther U u 1 0.4850 
31-May-2018_16:13:19 7336 19 female R 5 4 8 moral immoralSelf Y y 1 0.5010 
31-May-2018_16:13:20 7336 19 female R 5 4 9 moral moralSelf U u 1 0.5628 
31-May-2018_16:13:22 7336 19 female R 5 4 10 moral immoralSelf Y y 1 0.5308 
31-May-2018_16:13:24 7336 19 female R 5 4 11 moral immoralSelf Y y 1 0.4993 
31-May-2018_16:13:26 7336 19 female R 5 4 12 moral moralSelf U u 1 1.0609 
31-May-2018_16:13:28 7336 19 female R 5 4 13 moral moralSelf U u 1 0.3951 
31-May-2018_16:13:29 7336 19 female R 5 4 14 moral moralSelf U u 1 0.2873 
31-May-2018_16:13:31 7336 19 female R 5 4 15 moral immoralOther Y y 1 0.5575 
31-May-2018_16:13:33 7336 19 female R 5 4 16 moral immoralSelf Y y 1 0.4418 
31-May-2018_16:13:34 7336 19 female R 5 4 17 moral moralOther U u 1 0.3977 
31-May-2018_16:13:36 7336 19 female R 5 4 18 moral moralSelf U u 1 0.2683 
31-May-2018_16:13:37 7336 19 female R 5 4 19 moral moralOther U u 1 0.4105 
31-May-2018_16:13:39 7336 19 female R 5 4 20 moral immoralOther Y u 0 0.3927 
31-May-2018_16:13:41 7336 19 female R 5 4 21 moral immoralOther Y y 1 0.4007 
31-May-2018_16:13:43 7336 19 female R 5 4 22 moral immoralOther Y y 1 0.3689 
31-May-2018_16:13:44 7336 19 female R 5 4 23 moral moralOther U u 1 0.5067 
31-May-2018_16:13:46 7336 19 female R 5 4 24 moral moralSelf U u 1 0.5384 
31-May-2018_16:13:50 7336 19 female R 5 5 1 moral moralOther U u 1 0.4881 
31-May-2018_16:13:51 7336 19 female R 5 5 2 moral immoralOther Y y 1 0.4948 
31-May-2018_16:13:53 7336 19 female R 5 5 3 moral moralOther U u 1 0.7184 
31-May-2018_16:13:55 7336 19 female R 5 5 4 moral moralSelf U NA -1 1.0731 
31-May-2018_16:13:57 7336 19 female R 5 5 5 moral moralOther U u 1 0.6663 
31-May-2018_16:13:59 7336 19 female R 5 5 6 moral moralSelf U u 1 0.4396 
31-May-2018_16:14:00 7336 19 female R 5 5 7 moral moralSelf U u 1 0.3549 
31-May-2018_16:14:02 7336 19 female R 5 5 8 moral immoralOther Y u 0 0.8730 
31-May-2018_16:14:04 7336 19 female R 5 5 9 moral moralOther U u 1 0.3974 
31-May-2018_16:14:06 7336 19 female R 5 5 10 moral immoralSelf Y y 1 0.4031 
31-May-2018_16:14:07 7336 19 female R 5 5 11 moral immoralOther Y y 1 0.3523 
31-May-2018_16:14:09 7336 19 female R 5 5 12 moral moralSelf U u 1 0.4654 
31-May-2018_16:14:11 7336 19 female R 5 5 13 moral immoralOther Y NA -1 1.0731 
31-May-2018_16:14:13 7336 19 female R 5 5 14 moral moralOther U u 1 0.4745 
31-May-2018_16:14:15 7336 19 female R 5 5 15 moral immoralOther Y y 1 0.5347 
31-May-2018_16:14:17 7336 19 female R 5 5 16 moral moralOther U u 1 0.5216 
31-May-2018_16:14:19 7336 19 female R 5 5 17 moral immoralSelf Y y 1 0.8761 
31-May-2018_16:14:21 7336 19 female R 5 5 18 moral immoralSelf Y y 1 0.4870 
31-May-2018_16:14:23 7336 19 female R 5 5 19 moral immoralSelf Y y 1 0.5427 
31-May-2018_16:14:25 7336 19 female R 5 5 20 moral immoralSelf Y NA -1 1.0731 
31-May-2018_16:14:26 7336 19 female R 5 5 21 moral immoralSelf Y u 0 0.3113 
31-May-2018_16:14:28 7336 19 female R 5 5 22 moral moralSelf U u 1 0.4717 
31-May-2018_16:14:30 7336 19 female R 5 5 23 moral moralSelf U u 1 0.3270 
31-May-2018_16:14:31 7336 19 female R 5 5 24 moral immoralOther Y y 1 0.3839 
Date Sub Age Sex Hand Block Bin Trial Task Shape corrResp Resp ACC RT
31-May-2018_16:16:36 7336 19 female R 6 1 1 self moralOther J j 1 0.4626 
31-May-2018_16:16:38 7336 19 female R 6 1 2 self moralSelf H h 1 0.4425 
31-May-2018_16:16:40 7336 19 female R 6 1 3 self immoralSelf H h 1 0.4031 
31-May-2018_16:16:41 7336 19 female R 6 1 4 self immoralOther J j 1 0.4394 
31-May-2018_16:16:43 7336 19 female R 6 1 5 self immoralOther J j 1 0.3998 
31-May-2018_16:16:45 7336 19 female R 6 1 6 self moralSelf H h 1 0.3750 
31-May-2018_16:16:46 7336 19 female R 6 1 7 self moralSelf H h 1 0.3501 
31-May-2018_16:16:47 7336 19 female R 6 1 8 self immoralSelf H h 1 0.3553 
31-May-2018_16:16:49 7336 19 female R 6 1 9 self immoralSelf H h 1 0.2971 
31-May-2018_16:16:51 7336 19 female R 6 1 10 self immoralSelf H h 1 0.2820 
31-May-2018_16:16:52 7336 19 female R 6 1 11 self moralOther J j 1 0.3550 
31-May-2018_16:16:54 7336 19 female R 6 1 12 self immoralOther J j 1 0.3260 
31-May-2018_16:16:55 7336 19 female R 6 1 13 self moralSelf H h 1 0.2869 
31-May-2018_16:16:57 7336 19 female R 6 1 14 self moralOther J j 1 0.5167 
31-May-2018_16:16:59 7336 19 female R 6 1 15 self moralOther J j 1 0.4452 
31-May-2018_16:17:00 7336 19 female R 6 1 16 self moralOther J j 1 0.3121 
31-May-2018_16:17:02 7336 19 female R 6 1 17 self immoralSelf H h 1 0.4519 
31-May-2018_16:17:03 7336 19 female R 6 1 18 self immoralSelf H h 1 0.2666 
31-May-2018_16:17:05 7336 19 female R 6 1 19 self immoralOther J j 1 0.4638 
31-May-2018_16:17:07 7336 19 female R 6 1 20 self moralOther J j 1 0.4140 
31-May-2018_16:17:08 7336 19 female R 6 1 21 self moralSelf H j 0 0.3798 
31-May-2018_16:17:10 7336 19 female R 6 1 22 self immoralOther J j 1 0.4547 
31-May-2018_16:17:12 7336 19 female R 6 1 23 self moralSelf H h 1 0.5793 
31-May-2018_16:17:13 7336 19 female R 6 1 24 self immoralOther J j 1 0.4349 
31-May-2018_16:17:15 7336 19 female R 6 2 1 self moralSelf H h 1 0.3851 
31-May-2018_16:17:17 7336 19 female R 6 2 2 self immoralOther J j 1 0.2897 
31-May-2018_16:17:18 7336 19 female R 6 2 3 self immoralSelf H h 1 0.3678 
31-May-2018_16:17:20 7336 19 female R 6 2 4 self moralOther J j 1 0.3726 
31-May-2018_16:17:22 7336 19 female R 6 2 5 self moralOther J j 1 0.3727 
31-May-2018_16:17:23 7336 19 female R 6 2 6 self moralSelf H h 1 0.4005 
31-May-2018_16:17:24 7336 19 female R 6 2 7 self moralOther J j 1 0.3554 
31-May-2018_16:17:26 7336 19 female R 6 2 8 self immoralOther J j 1 0.4702 
31-May-2018_16:17:28 7336 19 female R 6 2 9 self immoralSelf H h 1 0.4605 
31-May-2018_16:17:29 7336 19 female R 6 2 10 self moralOther J j 1 0.3005 
31-May-2018_16:17:31 7336 19 female R 6 2 11 self immoralSelf H h 1 0.5237 
31-May-2018_16:17:32 7336 19 female R 6 2 12 self immoralSelf H h 1 0.3096 
31-May-2018_16:17:34 7336 19 female R 6 2 13 self moralOther J j 1 0.4161 
31-May-2018_16:17:36 7336 19 female R 6 2 14 self immoralOther J h 0 0.4067 
31-May-2018_16:17:37 7336 19 female R 6 2 15 self moralSelf H h 1 0.3658 
31-May-2018_16:17:39 7336 19 female R 6 2 16 self moralSelf H h 1 0.3339 
31-May-2018_16:17:41 7336 19 female R 6 2 17 self immoralOther J j 1 0.5795 
31-May-2018_16:17:43 7336 19 female R 6 2 18 self immoralOther J j 1 0.4408 
31-May-2018_16:17:44 7336 19 female R 6 2 19 self moralSelf H h 1 0.5379 
31-May-2018_16:17:46 7336 19 female R 6 2 20 self moralOther J j 1 0.5967 
31-May-2018_16:17:47 7336 19 female R 6 2 21 self moralSelf H h 1 0.4538 
31-May-2018_16:17:49 7336 19 female R 6 2 22 self immoralSelf H h 1 0.5742 
31-May-2018_16:17:51 7336 19 female R 6 2 23 self immoralSelf H h 1 0.5767 
31-May-2018_16:17:53 7336 19 female R 6 2 24 self immoralOther J j 1 0.6045 
31-May-2018_16:17:58 7336 19 female R 6 3 1 self moralSelf H h 1 0.3915 
31-May-2018_16:17:59 7336 19 female R 6 3 2 self immoralSelf H h 1 0.2885 
31-May-2018_16:18:01 7336 19 female R 6 3 3 self immoralOther J j 1 0.4434 
31-May-2018_16:18:02 7336 19 female R 6 3 4 self immoralOther J j 1 0.4567 
31-May-2018_16:18:03 7336 19 female R 6 3 5 self moralOther J j 1 0.4816 
31-May-2018_16:18:05 7336 19 female R 6 3 6 self immoralSelf H h 1 0.3194 
31-May-2018_16:18:07 7336 19 female R 6 3 7 self moralOther J j 1 0.4206 
31-May-2018_16:18:08 7336 19 female R 6 3 8 self immoralSelf H h 1 0.4348 
31-May-2018_16:18:10 7336 19 female R 6 3 9 self moralSelf H h 1 0.4038 
31-May-2018_16:18:12 7336 19 female R 6 3 10 self moralSelf H h 1 0.4579 
31-May-2018_16:18:14 7336 19 female R 6 3 11 self immoralOther J j 1 0.3654 
31-May-2018_16:18:15 7336 19 female R 6 3 12 self immoralOther J j 1 0.4271 
31-May-2018_16:18:17 7336 19 female R 6 3 13 self moralSelf H h 1 0.3669 
31-May-2018_16:18:19 7336 19 female R 6 3 14 self immoralOther J j 1 0.5480 
31-May-2018_16:18:20 7336 19 female R 6 3 15 self immoralOther J j 1 0.4155 
31-May-2018_16:18:22 7336 19 female R 6 3 16 self moralOther J j 1 0.4663 
31-May-2018_16:18:24 7336 19 female R 6 3 17 self moralOther J j 1 0.3802 
31-May-2018_16:18:25 7336 19 female R 6 3 18 self immoralSelf H h 1 0.3659 
31-May-2018_16:18:27 7336 19 female R 6 3 19 self moralOther J j 1 0.4017 
31-May-2018_16:18:29 7336 19 female R 6 3 20 self moralSelf H h 1 0.6366 
31-May-2018_16:18:31 7336 19 female R 6 3 21 self immoralSelf H h 1 0.4032 
31-May-2018_16:18:32 7336 19 female R 6 3 22 self moralSelf H h 1 0.4310 
31-May-2018_16:18:34 7336 19 female R 6 3 23 self immoralSelf H h 1 0.4843 
31-May-2018_16:18:36 7336 19 female R 6 3 24 self moralOther J j 1 0.3864 
31-May-2018_16:18:37 7336 19 female R 6 4 1 self moralSelf H h 1 0.3771 
31-May-2018_16:18:39 7336 19 female R 6 4 2 self immoralOther J j 1 0.4224 
31-May-2018_16:18:40 7336 19 female R 6 4 3 self immoralSelf H h 1 0.3683 
31-May-2018_16:18:42 7336 19 female R 6 4 4 self moralOther J j 1 0.3852 
31-May-2018_16:18:44 7336 19 female R 6 4 5 self immoralSelf H h 1 0.3477 
31-May-2018_16:18:45 7336 19 female R 6 4 6 self moralOther J j 1 0.4104 
31-May-2018_16:18:47 7336 19 female R 6 4 7 self moralSelf H h 1 0.4462 
31-May-2018_16:18:48 7336 19 female R 6 4 8 self immoralOther J j 1 0.4246 
31-May-2018_16:18:50 7336 19 female R 6 4 9 self moralSelf H h 1 0.3851 
31-May-2018_16:18:51 7336 19 female R 6 4 10 self moralOther J j 1 0.3721 
31-May-2018_16:18:53 7336 19 female R 6 4 11 self moralOther J j 1 0.5142 
31-May-2018_16:18:55 7336 19 female R 6 4 12 self moralSelf H h 1 0.5284 
31-May-2018_16:18:56 7336 19 female R 6 4 13 self immoralOther J j 1 0.4621 
31-May-2018_16:18:58 7336 19 female R 6 4 14 self immoralOther J j 1 0.6467 
31-May-2018_16:19:00 7336 19 female R 6 4 15 self moralOther J j 1 0.5658 
31-May-2018_16:19:01 7336 19 female R 6 4 16 self immoralSelf H h 1 0.4501 
31-May-2018_16:19:03 7336 19 female R 6 4 17 self moralOther J j 1 0.4948 
31-May-2018_16:19:05 7336 19 female R 6 4 18 self moralSelf H h 1 0.8112 
31-May-2018_16:19:07 7336 19 female R 6 4 19 self moralSelf H h 1 0.3604 
31-May-2018_16:19:09 7336 19 female R 6 4 20 self immoralOther J j 1 0.4282 
31-May-2018_16:19:11 7336 19 female R 6 4 21 self immoralSelf H h 1 0.8118 
31-May-2018_16:19:13 7336 19 female R 6 4 22 self immoralOther J j 1 0.4778 
31-May-2018_16:19:14 7336 19 female R 6 4 23 self immoralSelf H h 1 0.4641 
31-May-2018_16:19:16 7336 19 female R 6 4 24 self immoralSelf H h 1 0.3772 
31-May-2018_16:19:20 7336 19 female R 6 5 1 self moralSelf H h 1 0.5905 
31-May-2018_16:19:21 7336 19 female R 6 5 2 self moralOther J j 1 0.3426 
31-May-2018_16:19:23 7336 19 female R 6 5 3 self moralSelf H h 1 0.3628 
31-May-2018_16:19:24 7336 19 female R 6 5 4 self moralOther J j 1 0.4185 
31-May-2018_16:19:26 7336 19 female R 6 5 5 self immoralOther J j 1 0.4713 
31-May-2018_16:19:27 7336 19 female R 6 5 6 self immoralOther J j 1 0.3174 
31-May-2018_16:19:28 7336 19 female R 6 5 7 self immoralOther J j 1 0.4078 
31-May-2018_16:19:30 7336 19 female R 6 5 8 self moralOther J j 1 0.3721 
31-May-2018_16:19:32 7336 19 female R 6 5 9 self immoralOther J j 1 0.3732 
31-May-2018_16:19:33 7336 19 female R 6 5 10 self immoralSelf H h 1 0.4080 
31-May-2018_16:19:35 7336 19 female R 6 5 11 self immoralSelf H h 1 0.3257 
31-May-2018_16:19:37 7336 19 female R 6 5 12 self immoralSelf H h 1 0.3121 
31-May-2018_16:19:39 7336 19 female R 6 5 13 self moralOther J j 1 0.4294 
31-May-2018_16:19:40 7336 19 female R 6 5 14 self immoralOther J j 1 0.3631 
31-May-2018_16:19:42 7336 19 female R 6 5 15 self moralOther J j 1 0.5335 
31-May-2018_16:19:44 7336 19 female R 6 5 16 self moralSelf H h 1 0.3529 
31-May-2018_16:19:45 7336 19 female R 6 5 17 self immoralSelf H h 1 0.2988 
31-May-2018_16:19:47 7336 19 female R 6 5 18 self moralSelf H h 1 0.5107 
31-May-2018_16:19:49 7336 19 female R 6 5 19 self moralOther J j 1 0.2835 
31-May-2018_16:19:51 7336 19 female R 6 5 20 self immoralSelf H j 0 0.3317 
31-May-2018_16:19:52 7336 19 female R 6 5 21 self immoralOther J j 1 0.4012 
31-May-2018_16:19:54 7336 19 female R 6 5 22 self moralSelf H h 1 0.3802 
31-May-2018_16:19:55 7336 19 female R 6 5 23 self moralSelf H h 1 0.3143 
31-May-2018_16:19:57 7336 19 female R 6 5 24 self immoralSelf H h 1 0.3209 
