Date Sub Age Sex Hand Block Bin Trial Task Shape corrResp Resp ACC RT
07-Jun-2018_14:06:42 7344 20 female R 1 1 1 self immoralSelf H h 1 0.6366 
07-Jun-2018_14:06:44 7344 20 female R 1 1 2 self moralSelf H j 0 0.5308 
07-Jun-2018_14:06:46 7344 20 female R 1 1 3 self moralSelf H NA -1 1.0850 
07-Jun-2018_14:06:48 7344 20 female R 1 1 4 self immoralOther J j 1 0.5570 
07-Jun-2018_14:06:49 7344 20 female R 1 1 5 self moralOther J j 1 0.5772 
07-Jun-2018_14:06:51 7344 20 female R 1 1 6 self immoralSelf H h 1 0.4432 
07-Jun-2018_14:06:53 7344 20 female R 1 1 7 self immoralSelf H h 1 0.4013 
07-Jun-2018_14:06:55 7344 20 female R 1 1 8 self moralSelf H h 1 0.4413 
07-Jun-2018_14:06:56 7344 20 female R 1 1 9 self immoralOther J j 1 0.4294 
07-Jun-2018_14:06:58 7344 20 female R 1 1 10 self moralOther J j 1 0.4097 
07-Jun-2018_14:07:00 7344 20 female R 1 1 11 self moralOther J j 1 0.3635 
07-Jun-2018_14:07:02 7344 20 female R 1 1 12 self moralSelf H h 1 0.4538 
07-Jun-2018_14:07:03 7344 20 female R 1 1 13 self immoralSelf H h 1 0.4439 
07-Jun-2018_14:07:05 7344 20 female R 1 1 14 self immoralOther J j 1 0.4281 
07-Jun-2018_14:07:07 7344 20 female R 1 1 15 self immoralSelf H h 1 0.4383 
07-Jun-2018_14:07:09 7344 20 female R 1 1 16 self moralSelf H h 1 0.3723 
07-Jun-2018_14:07:10 7344 20 female R 1 1 17 self immoralSelf H h 1 0.3563 
07-Jun-2018_14:07:12 7344 20 female R 1 1 18 self moralOther J j 1 0.4784 
07-Jun-2018_14:07:14 7344 20 female R 1 1 19 self immoralOther J j 1 0.3665 
07-Jun-2018_14:07:16 7344 20 female R 1 1 20 self moralSelf H h 1 0.4227 
07-Jun-2018_14:07:17 7344 20 female R 1 1 21 self moralOther J j 1 0.4348 
07-Jun-2018_14:07:19 7344 20 female R 1 1 22 self immoralOther J j 1 0.4948 
07-Jun-2018_14:07:21 7344 20 female R 1 1 23 self moralOther J j 1 0.3709 
07-Jun-2018_14:07:22 7344 20 female R 1 1 24 self immoralOther J j 1 0.3870 
07-Jun-2018_14:07:24 7344 20 female R 1 2 1 self moralOther J j 1 0.4312 
07-Jun-2018_14:07:25 7344 20 female R 1 2 2 self moralOther J j 1 0.4213 
07-Jun-2018_14:07:27 7344 20 female R 1 2 3 self moralSelf H h 1 0.3392 
07-Jun-2018_14:07:28 7344 20 female R 1 2 4 self moralSelf H h 1 0.3274 
07-Jun-2018_14:07:30 7344 20 female R 1 2 5 self immoralSelf H h 1 0.2916 
07-Jun-2018_14:07:32 7344 20 female R 1 2 6 self immoralSelf H h 1 0.3196 
07-Jun-2018_14:07:33 7344 20 female R 1 2 7 self immoralSelf H h 1 0.2417 
07-Jun-2018_14:07:35 7344 20 female R 1 2 8 self moralSelf H h 1 0.2998 
07-Jun-2018_14:07:37 7344 20 female R 1 2 9 self immoralSelf H h 1 0.2658 
07-Jun-2018_14:07:38 7344 20 female R 1 2 10 self moralOther J h 0 0.2740 
07-Jun-2018_14:07:40 7344 20 female R 1 2 11 self immoralOther J j 1 0.3840 
07-Jun-2018_14:07:41 7344 20 female R 1 2 12 self moralOther J j 1 0.3582 
07-Jun-2018_14:07:43 7344 20 female R 1 2 13 self immoralOther J j 1 0.3622 
07-Jun-2018_14:07:44 7344 20 female R 1 2 14 self immoralOther J j 1 0.3023 
07-Jun-2018_14:07:46 7344 20 female R 1 2 15 self moralSelf H h 1 0.3904 
07-Jun-2018_14:07:48 7344 20 female R 1 2 16 self moralSelf H h 1 0.2905 
07-Jun-2018_14:07:49 7344 20 female R 1 2 17 self immoralSelf H h 1 0.3586 
07-Jun-2018_14:07:51 7344 20 female R 1 2 18 self immoralOther J h 0 0.3148 
07-Jun-2018_14:07:52 7344 20 female R 1 2 19 self immoralOther J j 1 0.3188 
07-Jun-2018_14:07:54 7344 20 female R 1 2 20 self moralSelf H h 1 0.3548 
07-Jun-2018_14:07:56 7344 20 female R 1 2 21 self immoralSelf H h 1 0.5650 
07-Jun-2018_14:07:58 7344 20 female R 1 2 22 self moralOther J j 1 0.3691 
07-Jun-2018_14:07:59 7344 20 female R 1 2 23 self moralOther J j 1 0.4172 
07-Jun-2018_14:08:01 7344 20 female R 1 2 24 self immoralOther J j 1 0.3893 
07-Jun-2018_14:08:13 7344 20 female R 1 3 1 self moralSelf H h 1 0.3040 
07-Jun-2018_14:08:14 7344 20 female R 1 3 2 self moralOther J h 0 0.2400 
07-Jun-2018_14:08:16 7344 20 female R 1 3 3 self immoralSelf H h 1 0.4181 
07-Jun-2018_14:08:18 7344 20 female R 1 3 4 self moralOther J j 1 0.4102 
07-Jun-2018_14:08:19 7344 20 female R 1 3 5 self moralSelf H h 1 0.3046 
07-Jun-2018_14:08:21 7344 20 female R 1 3 6 self immoralSelf H h 1 0.4024 
07-Jun-2018_14:08:22 7344 20 female R 1 3 7 self immoralOther J h 0 0.3225 
07-Jun-2018_14:08:24 7344 20 female R 1 3 8 self immoralOther J j 1 0.3126 
07-Jun-2018_14:08:25 7344 20 female R 1 3 9 self immoralOther J j 1 0.2968 
07-Jun-2018_14:08:27 7344 20 female R 1 3 10 self immoralSelf H h 1 0.4288 
07-Jun-2018_14:08:28 7344 20 female R 1 3 11 self immoralSelf H h 1 0.4468 
07-Jun-2018_14:08:30 7344 20 female R 1 3 12 self immoralOther J j 1 0.3731 
07-Jun-2018_14:08:31 7344 20 female R 1 3 13 self immoralOther J j 1 0.3830 
07-Jun-2018_14:08:32 7344 20 female R 1 3 14 self immoralOther J j 1 0.3391 
07-Jun-2018_14:08:34 7344 20 female R 1 3 15 self immoralSelf H j 0 0.2752 
07-Jun-2018_14:08:35 7344 20 female R 1 3 16 self moralSelf H h 1 0.3153 
07-Jun-2018_14:08:37 7344 20 female R 1 3 17 self moralOther J j 1 0.3735 
07-Jun-2018_14:08:39 7344 20 female R 1 3 18 self moralSelf H h 1 0.3975 
07-Jun-2018_14:08:41 7344 20 female R 1 3 19 self moralOther J j 1 0.3215 
07-Jun-2018_14:08:42 7344 20 female R 1 3 20 self immoralSelf H h 1 0.4176 
07-Jun-2018_14:08:44 7344 20 female R 1 3 21 self moralSelf H h 1 0.4378 
07-Jun-2018_14:08:45 7344 20 female R 1 3 22 self moralOther J j 1 0.3559 
07-Jun-2018_14:08:47 7344 20 female R 1 3 23 self moralSelf H h 1 0.3740 
07-Jun-2018_14:08:49 7344 20 female R 1 3 24 self moralOther J j 1 0.4060 
07-Jun-2018_14:08:50 7344 20 female R 1 4 1 self moralOther J h 0 0.2981 
07-Jun-2018_14:08:52 7344 20 female R 1 4 2 self moralOther J j 1 0.3361 
07-Jun-2018_14:08:54 7344 20 female R 1 4 3 self immoralOther J j 1 0.6263 
07-Jun-2018_14:08:55 7344 20 female R 1 4 4 self immoralSelf H h 1 0.3264 
07-Jun-2018_14:08:57 7344 20 female R 1 4 5 self moralOther J h 0 0.3125 
07-Jun-2018_14:08:58 7344 20 female R 1 4 6 self immoralSelf H h 1 0.4386 
07-Jun-2018_14:09:00 7344 20 female R 1 4 7 self immoralOther J j 1 0.4487 
07-Jun-2018_14:09:02 7344 20 female R 1 4 8 self moralSelf H h 1 0.3828 
07-Jun-2018_14:09:03 7344 20 female R 1 4 9 self moralSelf H h 1 0.4009 
07-Jun-2018_14:09:05 7344 20 female R 1 4 10 self moralOther J j 1 0.3890 
07-Jun-2018_14:09:07 7344 20 female R 1 4 11 self immoralOther J j 1 0.4072 
07-Jun-2018_14:09:08 7344 20 female R 1 4 12 self immoralSelf H h 1 0.4172 
07-Jun-2018_14:09:10 7344 20 female R 1 4 13 self immoralOther J j 1 0.3554 
07-Jun-2018_14:09:11 7344 20 female R 1 4 14 self moralSelf H h 1 0.3714 
07-Jun-2018_14:09:13 7344 20 female R 1 4 15 self immoralSelf H h 1 0.4416 
07-Jun-2018_14:09:15 7344 20 female R 1 4 16 self immoralSelf H h 1 0.3155 
07-Jun-2018_14:09:16 7344 20 female R 1 4 17 self immoralOther J j 1 0.3316 
07-Jun-2018_14:09:17 7344 20 female R 1 4 18 self immoralOther J j 1 0.3238 
07-Jun-2018_14:09:19 7344 20 female R 1 4 19 self moralOther J h 0 0.4098 
07-Jun-2018_14:09:20 7344 20 female R 1 4 20 self moralSelf H h 1 0.3259 
07-Jun-2018_14:09:22 7344 20 female R 1 4 21 self moralOther J j 1 0.3643 
07-Jun-2018_14:09:24 7344 20 female R 1 4 22 self moralSelf H h 1 0.3622 
07-Jun-2018_14:09:26 7344 20 female R 1 4 23 self immoralSelf H h 1 0.3781 
07-Jun-2018_14:09:28 7344 20 female R 1 4 24 self moralSelf H h 1 0.3543 
07-Jun-2018_14:09:33 7344 20 female R 1 5 1 self moralSelf H h 1 0.3386 
07-Jun-2018_14:09:34 7344 20 female R 1 5 2 self moralOther J j 1 0.3907 
07-Jun-2018_14:09:36 7344 20 female R 1 5 3 self immoralSelf H h 1 0.6128 
07-Jun-2018_14:09:38 7344 20 female R 1 5 4 self moralSelf H j 0 0.3129 
07-Jun-2018_14:09:39 7344 20 female R 1 5 5 self moralSelf H h 1 0.3873 
07-Jun-2018_14:09:41 7344 20 female R 1 5 6 self moralSelf H h 1 0.2630 
07-Jun-2018_14:09:43 7344 20 female R 1 5 7 self immoralSelf H h 1 0.4192 
07-Jun-2018_14:09:44 7344 20 female R 1 5 8 self immoralOther J h 0 0.2833 
07-Jun-2018_14:09:46 7344 20 female R 1 5 9 self moralSelf H h 1 0.3853 
07-Jun-2018_14:09:47 7344 20 female R 1 5 10 self immoralOther J j 1 0.4174 
07-Jun-2018_14:09:49 7344 20 female R 1 5 11 self immoralSelf H h 1 0.2396 
07-Jun-2018_14:09:51 7344 20 female R 1 5 12 self moralOther J j 1 0.4337 
07-Jun-2018_14:09:52 7344 20 female R 1 5 13 self immoralOther J j 1 0.3518 
07-Jun-2018_14:09:54 7344 20 female R 1 5 14 self moralSelf H h 1 0.4178 
07-Jun-2018_14:09:56 7344 20 female R 1 5 15 self immoralSelf H h 1 0.5579 
07-Jun-2018_14:09:58 7344 20 female R 1 5 16 self moralOther J j 1 0.3861 
07-Jun-2018_14:10:00 7344 20 female R 1 5 17 self moralOther J j 1 0.4321 
07-Jun-2018_14:10:01 7344 20 female R 1 5 18 self moralOther J j 1 0.3602 
07-Jun-2018_14:10:03 7344 20 female R 1 5 19 self immoralSelf H h 1 0.4283 
07-Jun-2018_14:10:05 7344 20 female R 1 5 20 self immoralSelf H h 1 0.3645 
07-Jun-2018_14:10:06 7344 20 female R 1 5 21 self immoralOther J j 1 0.3566 
07-Jun-2018_14:10:08 7344 20 female R 1 5 22 self moralOther J j 1 0.3224 
07-Jun-2018_14:10:09 7344 20 female R 1 5 23 self immoralOther J j 1 0.3727 
07-Jun-2018_14:10:11 7344 20 female R 1 5 24 self immoralOther J j 1 0.3389 
Date Sub Age Sex Hand Block Bin Trial Task Shape corrResp Resp ACC RT
07-Jun-2018_14:12:47 7344 20 female R 2 1 1 moral immoralSelf Y y 1 0.9458 
07-Jun-2018_14:12:49 7344 20 female R 2 1 2 moral moralOther U u 1 0.9659 
07-Jun-2018_14:12:51 7344 20 female R 2 1 3 moral moralOther U u 1 0.5000 
07-Jun-2018_14:12:53 7344 20 female R 2 1 4 moral immoralSelf Y y 1 0.5261 
07-Jun-2018_14:12:55 7344 20 female R 2 1 5 moral moralOther U u 1 0.4904 
07-Jun-2018_14:12:56 7344 20 female R 2 1 6 moral moralSelf U u 1 0.4084 
07-Jun-2018_14:12:58 7344 20 female R 2 1 7 moral immoralSelf Y y 1 0.4685 
07-Jun-2018_14:13:00 7344 20 female R 2 1 8 moral moralSelf U u 1 0.5926 
07-Jun-2018_14:13:02 7344 20 female R 2 1 9 moral moralSelf U u 1 0.3807 
07-Jun-2018_14:13:04 7344 20 female R 2 1 10 moral immoralOther Y y 1 0.4309 
07-Jun-2018_14:13:06 7344 20 female R 2 1 11 moral immoralOther Y y 1 0.3850 
07-Jun-2018_14:13:07 7344 20 female R 2 1 12 moral immoralOther Y y 1 0.3791 
07-Jun-2018_14:13:09 7344 20 female R 2 1 13 moral moralSelf U u 1 0.4091 
07-Jun-2018_14:13:10 7344 20 female R 2 1 14 moral immoralSelf Y y 1 0.4232 
07-Jun-2018_14:13:12 7344 20 female R 2 1 15 moral moralSelf U u 1 0.3633 
07-Jun-2018_14:13:14 7344 20 female R 2 1 16 moral immoralOther Y y 1 0.4553 
07-Jun-2018_14:13:16 7344 20 female R 2 1 17 moral moralOther U y 0 0.4214 
07-Jun-2018_14:13:17 7344 20 female R 2 1 18 moral moralSelf U u 1 0.4536 
07-Jun-2018_14:13:19 7344 20 female R 2 1 19 moral moralOther U u 1 0.4918 
07-Jun-2018_14:13:21 7344 20 female R 2 1 20 moral immoralOther Y u 0 0.3478 
07-Jun-2018_14:13:22 7344 20 female R 2 1 21 moral immoralOther Y y 1 0.4058 
07-Jun-2018_14:13:24 7344 20 female R 2 1 22 moral moralOther U u 1 0.6600 
07-Jun-2018_14:13:26 7344 20 female R 2 1 23 moral immoralSelf Y u 0 0.9081 
07-Jun-2018_14:13:28 7344 20 female R 2 1 24 moral immoralSelf Y y 1 0.5562 
07-Jun-2018_14:13:30 7344 20 female R 2 2 1 moral moralOther U u 1 0.5423 
07-Jun-2018_14:13:31 7344 20 female R 2 2 2 moral moralSelf U u 1 0.4705 
07-Jun-2018_14:13:33 7344 20 female R 2 2 3 moral immoralOther Y y 1 0.5229 
07-Jun-2018_14:13:35 7344 20 female R 2 2 4 moral moralSelf U u 1 0.3907 
07-Jun-2018_14:13:37 7344 20 female R 2 2 5 moral moralSelf U u 1 0.4087 
07-Jun-2018_14:13:39 7344 20 female R 2 2 6 moral immoralSelf Y y 1 0.4148 
07-Jun-2018_14:13:41 7344 20 female R 2 2 7 moral immoralOther Y y 1 0.5210 
07-Jun-2018_14:13:43 7344 20 female R 2 2 8 moral moralOther U u 1 0.5492 
07-Jun-2018_14:13:45 7344 20 female R 2 2 9 moral moralOther U u 1 0.6071 
07-Jun-2018_14:13:46 7344 20 female R 2 2 10 moral immoralSelf Y y 1 0.4773 
07-Jun-2018_14:13:48 7344 20 female R 2 2 11 moral immoralSelf Y y 1 0.7713 
07-Jun-2018_14:13:50 7344 20 female R 2 2 12 moral immoralSelf Y y 1 0.4154 
07-Jun-2018_14:13:51 7344 20 female R 2 2 13 moral immoralSelf Y y 1 0.3376 
07-Jun-2018_14:13:53 7344 20 female R 2 2 14 moral immoralOther Y y 1 0.3396 
07-Jun-2018_14:13:54 7344 20 female R 2 2 15 moral moralOther U u 1 0.3517 
07-Jun-2018_14:13:56 7344 20 female R 2 2 16 moral immoralOther Y u 0 0.3818 
07-Jun-2018_14:13:58 7344 20 female R 2 2 17 moral immoralOther Y y 1 0.3159 
07-Jun-2018_14:13:59 7344 20 female R 2 2 18 moral moralSelf U u 1 0.3800 
07-Jun-2018_14:14:00 7344 20 female R 2 2 19 moral moralSelf U u 1 0.3181 
07-Jun-2018_14:14:02 7344 20 female R 2 2 20 moral immoralSelf Y y 1 0.4082 
07-Jun-2018_14:14:04 7344 20 female R 2 2 21 moral moralSelf U u 1 0.4483 
07-Jun-2018_14:14:05 7344 20 female R 2 2 22 moral moralOther U y 0 0.4144 
07-Jun-2018_14:14:07 7344 20 female R 2 2 23 moral moralOther U u 1 0.5264 
07-Jun-2018_14:14:08 7344 20 female R 2 2 24 moral immoralOther Y y 1 0.4045 
07-Jun-2018_14:14:15 7344 20 female R 2 3 1 moral moralSelf U u 1 0.4110 
07-Jun-2018_14:14:17 7344 20 female R 2 3 2 moral immoralOther Y y 1 0.4270 
07-Jun-2018_14:14:18 7344 20 female R 2 3 3 moral moralOther U u 1 0.3253 
07-Jun-2018_14:14:20 7344 20 female R 2 3 4 moral immoralSelf Y y 1 0.4992 
07-Jun-2018_14:14:22 7344 20 female R 2 3 5 moral moralSelf U u 1 0.3393 
07-Jun-2018_14:14:23 7344 20 female R 2 3 6 moral immoralSelf Y y 1 0.4294 
07-Jun-2018_14:14:25 7344 20 female R 2 3 7 moral moralOther U u 1 0.5755 
07-Jun-2018_14:14:27 7344 20 female R 2 3 8 moral immoralOther Y y 1 0.5797 
07-Jun-2018_14:14:29 7344 20 female R 2 3 9 moral moralOther U u 1 0.6618 
07-Jun-2018_14:14:31 7344 20 female R 2 3 10 moral moralSelf U u 1 0.4119 
07-Jun-2018_14:14:33 7344 20 female R 2 3 11 moral immoralSelf Y y 1 0.4220 
07-Jun-2018_14:14:34 7344 20 female R 2 3 12 moral immoralOther Y u 0 0.4920 
07-Jun-2018_14:14:36 7344 20 female R 2 3 13 moral moralSelf U u 1 0.3202 
07-Jun-2018_14:14:37 7344 20 female R 2 3 14 moral moralSelf U u 1 0.3401 
07-Jun-2018_14:14:39 7344 20 female R 2 3 15 moral immoralSelf Y y 1 0.3463 
07-Jun-2018_14:14:40 7344 20 female R 2 3 16 moral immoralSelf Y u 0 0.3684 
07-Jun-2018_14:14:42 7344 20 female R 2 3 17 moral moralOther U u 1 0.5485 
07-Jun-2018_14:14:44 7344 20 female R 2 3 18 moral immoralOther Y y 1 0.3407 
07-Jun-2018_14:14:46 7344 20 female R 2 3 19 moral immoralOther Y y 1 0.3367 
07-Jun-2018_14:14:47 7344 20 female R 2 3 20 moral moralSelf U u 1 0.4007 
07-Jun-2018_14:14:49 7344 20 female R 2 3 21 moral moralOther U y 0 0.3630 
07-Jun-2018_14:14:51 7344 20 female R 2 3 22 moral immoralOther Y y 1 0.5210 
07-Jun-2018_14:14:52 7344 20 female R 2 3 23 moral immoralSelf Y y 1 0.5031 
07-Jun-2018_14:14:54 7344 20 female R 2 3 24 moral moralOther U u 1 0.5652 
07-Jun-2018_14:14:56 7344 20 female R 2 4 1 moral immoralOther Y y 1 0.3953 
07-Jun-2018_14:14:57 7344 20 female R 2 4 2 moral moralSelf U u 1 0.3114 
07-Jun-2018_14:14:59 7344 20 female R 2 4 3 moral moralSelf U u 1 0.3594 
07-Jun-2018_14:15:01 7344 20 female R 2 4 4 moral immoralOther Y y 1 0.3911 
07-Jun-2018_14:15:02 7344 20 female R 2 4 5 moral immoralSelf Y u 0 0.4016 
07-Jun-2018_14:15:04 7344 20 female R 2 4 6 moral moralOther U y 0 0.3298 
07-Jun-2018_14:15:06 7344 20 female R 2 4 7 moral immoralOther Y y 1 0.5142 
07-Jun-2018_14:15:08 7344 20 female R 2 4 8 moral immoralSelf Y y 1 0.4560 
07-Jun-2018_14:15:10 7344 20 female R 2 4 9 moral immoralSelf Y y 1 0.4741 
07-Jun-2018_14:15:12 7344 20 female R 2 4 10 moral moralSelf U u 1 0.3922 
07-Jun-2018_14:15:13 7344 20 female R 2 4 11 moral moralSelf U u 1 0.3063 
07-Jun-2018_14:15:15 7344 20 female R 2 4 12 moral immoralOther Y y 1 0.3684 
07-Jun-2018_14:15:16 7344 20 female R 2 4 13 moral moralOther U u 1 0.5965 
07-Jun-2018_14:15:18 7344 20 female R 2 4 14 moral immoralOther Y y 1 0.4045 
07-Jun-2018_14:15:20 7344 20 female R 2 4 15 moral immoralOther Y y 1 0.3826 
07-Jun-2018_14:15:22 7344 20 female R 2 4 16 moral moralOther U NA -1 1.0850 
07-Jun-2018_14:15:23 7344 20 female R 2 4 17 moral moralOther U u 1 0.3569 
07-Jun-2018_14:15:25 7344 20 female R 2 4 18 moral immoralSelf Y y 1 0.3430 
07-Jun-2018_14:15:26 7344 20 female R 2 4 19 moral immoralSelf Y y 1 0.3411 
07-Jun-2018_14:15:28 7344 20 female R 2 4 20 moral immoralSelf Y y 1 0.4211 
07-Jun-2018_14:15:30 7344 20 female R 2 4 21 moral moralOther U u 1 0.3672 
07-Jun-2018_14:15:31 7344 20 female R 2 4 22 moral moralSelf U u 1 0.4433 
07-Jun-2018_14:15:33 7344 20 female R 2 4 23 moral moralSelf U u 1 0.4015 
07-Jun-2018_14:15:35 7344 20 female R 2 4 24 moral moralOther U u 1 0.3773 
07-Jun-2018_14:15:38 7344 20 female R 2 5 1 moral immoralSelf Y y 1 0.5597 
07-Jun-2018_14:15:40 7344 20 female R 2 5 2 moral moralOther U u 1 0.4658 
07-Jun-2018_14:15:42 7344 20 female R 2 5 3 moral moralSelf U u 1 0.4100 
07-Jun-2018_14:15:43 7344 20 female R 2 5 4 moral moralSelf U u 1 0.3260 
07-Jun-2018_14:15:45 7344 20 female R 2 5 5 moral moralOther U u 1 0.3761 
07-Jun-2018_14:15:46 7344 20 female R 2 5 6 moral moralSelf U u 1 0.3182 
07-Jun-2018_14:15:48 7344 20 female R 2 5 7 moral immoralSelf Y y 1 0.3923 
07-Jun-2018_14:15:50 7344 20 female R 2 5 8 moral moralSelf U u 1 0.3244 
07-Jun-2018_14:15:52 7344 20 female R 2 5 9 moral moralSelf U u 1 0.3405 
07-Jun-2018_14:15:53 7344 20 female R 2 5 10 moral immoralSelf Y u 0 0.3326 
07-Jun-2018_14:15:55 7344 20 female R 2 5 11 moral moralOther U y 0 0.4267 
07-Jun-2018_14:15:57 7344 20 female R 2 5 12 moral immoralOther Y y 1 0.4587 
07-Jun-2018_14:15:59 7344 20 female R 2 5 13 moral moralSelf U u 1 0.3410 
07-Jun-2018_14:16:00 7344 20 female R 2 5 14 moral immoralSelf Y y 1 0.4330 
07-Jun-2018_14:16:02 7344 20 female R 2 5 15 moral moralOther U u 1 0.3731 
07-Jun-2018_14:16:03 7344 20 female R 2 5 16 moral immoralOther Y y 1 0.3876 
07-Jun-2018_14:16:05 7344 20 female R 2 5 17 moral moralOther U u 1 0.6112 
07-Jun-2018_14:16:07 7344 20 female R 2 5 18 moral immoralSelf Y y 1 0.4055 
07-Jun-2018_14:16:08 7344 20 female R 2 5 19 moral immoralOther Y y 1 0.3535 
07-Jun-2018_14:16:10 7344 20 female R 2 5 20 moral immoralOther Y y 1 0.3116 
07-Jun-2018_14:16:11 7344 20 female R 2 5 21 moral immoralOther Y y 1 0.3216 
07-Jun-2018_14:16:13 7344 20 female R 2 5 22 moral moralOther U u 1 0.5177 
07-Jun-2018_14:16:15 7344 20 female R 2 5 23 moral immoralSelf Y y 1 0.3679 
07-Jun-2018_14:16:17 7344 20 female R 2 5 24 moral immoralOther Y y 1 0.3720 
Date Sub Age Sex Hand Block Bin Trial Task Shape corrResp Resp ACC RT
07-Jun-2018_14:18:29 7344 20 female R 3 1 1 moral moralOther U u 1 0.4497 
07-Jun-2018_14:18:30 7344 20 female R 3 1 2 moral moralSelf U u 1 0.3557 
07-Jun-2018_14:18:32 7344 20 female R 3 1 3 moral moralOther U u 1 0.3139 
07-Jun-2018_14:18:33 7344 20 female R 3 1 4 moral moralOther U u 1 0.3138 
07-Jun-2018_14:18:35 7344 20 female R 3 1 5 moral immoralOther Y y 1 0.3660 
07-Jun-2018_14:18:36 7344 20 female R 3 1 6 moral moralOther U y 0 0.2360 
07-Jun-2018_14:18:38 7344 20 female R 3 1 7 moral immoralOther Y y 1 0.4141 
07-Jun-2018_14:18:39 7344 20 female R 3 1 8 moral immoralOther Y y 1 0.3522 
07-Jun-2018_14:18:41 7344 20 female R 3 1 9 moral immoralSelf Y u 0 0.4343 
07-Jun-2018_14:18:42 7344 20 female R 3 1 10 moral immoralOther Y y 1 0.3824 
07-Jun-2018_14:18:44 7344 20 female R 3 1 11 moral immoralSelf Y u 0 0.4205 
07-Jun-2018_14:18:46 7344 20 female R 3 1 12 moral moralSelf U u 1 0.3267 
07-Jun-2018_14:18:47 7344 20 female R 3 1 13 moral immoralOther Y y 1 0.3846 
07-Jun-2018_14:18:49 7344 20 female R 3 1 14 moral moralSelf U u 1 0.3908 
07-Jun-2018_14:18:51 7344 20 female R 3 1 15 moral immoralSelf Y y 1 0.3869 
07-Jun-2018_14:18:52 7344 20 female R 3 1 16 moral immoralOther Y y 1 0.2710 
07-Jun-2018_14:18:54 7344 20 female R 3 1 17 moral immoralSelf Y y 1 0.3151 
07-Jun-2018_14:18:56 7344 20 female R 3 1 18 moral immoralSelf Y y 1 0.2813 
07-Jun-2018_14:18:57 7344 20 female R 3 1 19 moral immoralSelf Y y 1 0.2753 
07-Jun-2018_14:18:59 7344 20 female R 3 1 20 moral moralOther U y 0 0.4454 
07-Jun-2018_14:19:00 7344 20 female R 3 1 21 moral moralSelf U u 1 0.4054 
07-Jun-2018_14:19:02 7344 20 female R 3 1 22 moral moralSelf U u 1 0.3315 
07-Jun-2018_14:19:03 7344 20 female R 3 1 23 moral moralSelf U u 1 0.3036 
07-Jun-2018_14:19:05 7344 20 female R 3 1 24 moral moralOther U u 1 0.3397 
07-Jun-2018_14:19:07 7344 20 female R 3 2 1 moral immoralSelf Y y 1 0.3312 
07-Jun-2018_14:19:08 7344 20 female R 3 2 2 moral moralSelf U u 1 0.3419 
07-Jun-2018_14:19:10 7344 20 female R 3 2 3 moral moralSelf U u 1 0.3839 
07-Jun-2018_14:19:11 7344 20 female R 3 2 4 moral moralSelf U u 1 0.4141 
07-Jun-2018_14:19:13 7344 20 female R 3 2 5 moral moralOther U y 0 0.3981 
07-Jun-2018_14:19:15 7344 20 female R 3 2 6 moral immoralOther Y y 1 0.3983 
07-Jun-2018_14:19:17 7344 20 female R 3 2 7 moral immoralOther Y y 1 0.5624 
07-Jun-2018_14:19:18 7344 20 female R 3 2 8 moral moralSelf U u 1 0.3565 
07-Jun-2018_14:19:20 7344 20 female R 3 2 9 moral immoralSelf Y y 1 0.4706 
07-Jun-2018_14:19:22 7344 20 female R 3 2 10 moral immoralOther Y y 1 0.4647 
07-Jun-2018_14:19:24 7344 20 female R 3 2 11 moral immoralSelf Y y 1 0.4888 
07-Jun-2018_14:19:25 7344 20 female R 3 2 12 moral moralOther U u 1 0.5490 
07-Jun-2018_14:19:27 7344 20 female R 3 2 13 moral moralOther U u 1 0.3550 
07-Jun-2018_14:19:29 7344 20 female R 3 2 14 moral immoralSelf Y y 1 0.3871 
07-Jun-2018_14:19:30 7344 20 female R 3 2 15 moral immoralSelf Y y 1 0.2911 
07-Jun-2018_14:19:32 7344 20 female R 3 2 16 moral immoralOther Y y 1 0.4573 
07-Jun-2018_14:19:33 7344 20 female R 3 2 17 moral immoralOther Y y 1 0.2894 
07-Jun-2018_14:19:35 7344 20 female R 3 2 18 moral moralSelf U u 1 0.3295 
07-Jun-2018_14:19:36 7344 20 female R 3 2 19 moral moralOther U y 0 0.3275 
07-Jun-2018_14:19:38 7344 20 female R 3 2 20 moral moralOther U u 1 0.3536 
07-Jun-2018_14:19:40 7344 20 female R 3 2 21 moral moralOther U u 1 0.3377 
07-Jun-2018_14:19:42 7344 20 female R 3 2 22 moral immoralOther Y u 0 0.3694 
07-Jun-2018_14:19:43 7344 20 female R 3 2 23 moral immoralSelf Y y 1 0.3360 
07-Jun-2018_14:19:45 7344 20 female R 3 2 24 moral moralSelf U u 1 0.4139 
07-Jun-2018_14:19:51 7344 20 female R 3 3 1 moral moralOther U u 1 0.4143 
07-Jun-2018_14:19:52 7344 20 female R 3 3 2 moral moralOther U u 1 0.3164 
07-Jun-2018_14:19:54 7344 20 female R 3 3 3 moral immoralSelf Y y 1 0.4005 
07-Jun-2018_14:19:55 7344 20 female R 3 3 4 moral immoralOther Y y 1 0.3367 
07-Jun-2018_14:19:57 7344 20 female R 3 3 5 moral immoralOther Y y 1 0.3327 
07-Jun-2018_14:19:59 7344 20 female R 3 3 6 moral immoralOther Y y 1 0.3108 
07-Jun-2018_14:20:00 7344 20 female R 3 3 7 moral moralSelf U u 1 0.3489 
07-Jun-2018_14:20:02 7344 20 female R 3 3 8 moral moralOther U y 0 0.3710 
07-Jun-2018_14:20:04 7344 20 female R 3 3 9 moral moralSelf U u 1 0.4131 
07-Jun-2018_14:20:05 7344 20 female R 3 3 10 moral moralSelf U u 1 0.3412 
07-Jun-2018_14:20:07 7344 20 female R 3 3 11 moral moralOther U u 1 0.3373 
07-Jun-2018_14:20:09 7344 20 female R 3 3 12 moral immoralSelf Y u 0 0.3633 
07-Jun-2018_14:20:10 7344 20 female R 3 3 13 moral immoralOther Y y 1 0.3415 
07-Jun-2018_14:20:12 7344 20 female R 3 3 14 moral immoralSelf Y y 1 0.5155 
07-Jun-2018_14:20:14 7344 20 female R 3 3 15 moral immoralSelf Y y 1 0.6056 
07-Jun-2018_14:20:15 7344 20 female R 3 3 16 moral moralOther U y 0 0.3360 
07-Jun-2018_14:20:17 7344 20 female R 3 3 17 moral immoralSelf Y y 1 0.4159 
07-Jun-2018_14:20:19 7344 20 female R 3 3 18 moral moralSelf U u 1 0.5300 
07-Jun-2018_14:20:21 7344 20 female R 3 3 19 moral moralSelf U u 1 0.3081 
07-Jun-2018_14:20:22 7344 20 female R 3 3 20 moral moralSelf U u 1 0.3302 
07-Jun-2018_14:20:24 7344 20 female R 3 3 21 moral immoralSelf Y y 1 0.5002 
07-Jun-2018_14:20:26 7344 20 female R 3 3 22 moral moralOther U u 1 0.3764 
07-Jun-2018_14:20:27 7344 20 female R 3 3 23 moral immoralOther Y y 1 0.3184 
07-Jun-2018_14:20:29 7344 20 female R 3 3 24 moral immoralOther Y y 1 0.3446 
07-Jun-2018_14:20:30 7344 20 female R 3 4 1 moral moralSelf U u 1 0.3666 
07-Jun-2018_14:20:32 7344 20 female R 3 4 2 moral immoralSelf Y y 1 0.3466 
07-Jun-2018_14:20:33 7344 20 female R 3 4 3 moral immoralSelf Y y 1 0.3108 
07-Jun-2018_14:20:35 7344 20 female R 3 4 4 moral immoralSelf Y y 1 0.3409 
07-Jun-2018_14:20:36 7344 20 female R 3 4 5 moral moralSelf U u 1 0.5309 
07-Jun-2018_14:20:38 7344 20 female R 3 4 6 moral immoralSelf Y y 1 0.2991 
07-Jun-2018_14:20:40 7344 20 female R 3 4 7 moral moralOther U u 1 0.3792 
07-Jun-2018_14:20:41 7344 20 female R 3 4 8 moral immoralOther Y y 1 0.2912 
07-Jun-2018_14:20:43 7344 20 female R 3 4 9 moral moralOther U u 1 0.4114 
07-Jun-2018_14:20:45 7344 20 female R 3 4 10 moral moralSelf U u 1 0.3975 
07-Jun-2018_14:20:47 7344 20 female R 3 4 11 moral immoralSelf Y y 1 0.3535 
07-Jun-2018_14:20:48 7344 20 female R 3 4 12 moral immoralOther Y y 1 0.4996 
07-Jun-2018_14:20:49 7344 20 female R 3 4 13 moral moralSelf U u 1 0.3538 
07-Jun-2018_14:20:51 7344 20 female R 3 4 14 moral immoralOther Y y 1 0.3078 
07-Jun-2018_14:20:53 7344 20 female R 3 4 15 moral moralOther U u 1 0.4499 
07-Jun-2018_14:20:54 7344 20 female R 3 4 16 moral immoralSelf Y y 1 0.5220 
07-Jun-2018_14:20:56 7344 20 female R 3 4 17 moral moralOther U u 1 0.5162 
07-Jun-2018_14:20:58 7344 20 female R 3 4 18 moral moralOther U y 0 0.3202 
07-Jun-2018_14:20:59 7344 20 female R 3 4 19 moral moralSelf U u 1 0.4382 
07-Jun-2018_14:21:01 7344 20 female R 3 4 20 moral immoralOther Y y 1 0.4544 
07-Jun-2018_14:21:02 7344 20 female R 3 4 21 moral moralSelf U u 1 0.3085 
07-Jun-2018_14:21:04 7344 20 female R 3 4 22 moral immoralOther Y y 1 0.3345 
07-Jun-2018_14:21:06 7344 20 female R 3 4 23 moral immoralOther Y y 1 0.4287 
07-Jun-2018_14:21:07 7344 20 female R 3 4 24 moral moralOther U u 1 0.4228 
07-Jun-2018_14:21:12 7344 20 female R 3 5 1 moral immoralSelf Y u 0 0.4450 
07-Jun-2018_14:21:14 7344 20 female R 3 5 2 moral moralOther U u 1 0.3931 
07-Jun-2018_14:21:15 7344 20 female R 3 5 3 moral immoralSelf Y y 1 0.4652 
07-Jun-2018_14:21:17 7344 20 female R 3 5 4 moral immoralSelf Y y 1 0.4193 
07-Jun-2018_14:21:19 7344 20 female R 3 5 5 moral immoralSelf Y y 1 0.3676 
07-Jun-2018_14:21:21 7344 20 female R 3 5 6 moral moralOther U u 1 0.7055 
07-Jun-2018_14:21:23 7344 20 female R 3 5 7 moral moralOther U u 1 0.4056 
07-Jun-2018_14:21:24 7344 20 female R 3 5 8 moral moralSelf U u 1 0.3318 
07-Jun-2018_14:21:25 7344 20 female R 3 5 9 moral immoralSelf Y y 1 0.3738 
07-Jun-2018_14:21:27 7344 20 female R 3 5 10 moral moralSelf U u 1 0.3139 
07-Jun-2018_14:21:29 7344 20 female R 3 5 11 moral moralOther U y 0 0.3341 
07-Jun-2018_14:21:30 7344 20 female R 3 5 12 moral moralSelf U u 1 0.4281 
07-Jun-2018_14:21:32 7344 20 female R 3 5 13 moral moralSelf U u 1 0.3182 
07-Jun-2018_14:21:33 7344 20 female R 3 5 14 moral moralOther U u 1 0.3923 
07-Jun-2018_14:21:35 7344 20 female R 3 5 15 moral immoralOther Y y 1 0.5084 
07-Jun-2018_14:21:37 7344 20 female R 3 5 16 moral immoralOther Y y 1 0.3008 
07-Jun-2018_14:21:39 7344 20 female R 3 5 17 moral immoralOther Y y 1 0.3665 
07-Jun-2018_14:21:40 7344 20 female R 3 5 18 moral immoralOther Y y 1 0.3307 
07-Jun-2018_14:21:42 7344 20 female R 3 5 19 moral moralSelf U u 1 0.3967 
07-Jun-2018_14:21:43 7344 20 female R 3 5 20 moral moralSelf U u 1 0.3169 
07-Jun-2018_14:21:45 7344 20 female R 3 5 21 moral immoralSelf Y y 1 0.3890 
07-Jun-2018_14:21:46 7344 20 female R 3 5 22 moral moralOther U y 0 0.2491 
07-Jun-2018_14:21:48 7344 20 female R 3 5 23 moral immoralOther Y y 1 0.4971 
07-Jun-2018_14:21:50 7344 20 female R 3 5 24 moral immoralOther Y y 1 0.3273 
Date Sub Age Sex Hand Block Bin Trial Task Shape corrResp Resp ACC RT
07-Jun-2018_14:24:03 7344 20 female R 4 1 1 self immoralOther J j 1 0.5210 
07-Jun-2018_14:24:05 7344 20 female R 4 1 2 self immoralOther J j 1 0.3390 
07-Jun-2018_14:24:07 7344 20 female R 4 1 3 self moralOther J h 0 0.6291 
07-Jun-2018_14:24:08 7344 20 female R 4 1 4 self moralOther J j 1 0.4452 
07-Jun-2018_14:24:10 7344 20 female R 4 1 5 self moralOther J j 1 0.3452 
07-Jun-2018_14:24:12 7344 20 female R 4 1 6 self immoralSelf H h 1 0.3377 
07-Jun-2018_14:24:13 7344 20 female R 4 1 7 self moralSelf H h 1 0.3735 
07-Jun-2018_14:24:15 7344 20 female R 4 1 8 self immoralOther J j 1 0.3956 
07-Jun-2018_14:24:17 7344 20 female R 4 1 9 self moralOther J j 1 0.5378 
07-Jun-2018_14:24:19 7344 20 female R 4 1 10 self moralOther J j 1 0.4098 
07-Jun-2018_14:24:20 7344 20 female R 4 1 11 self immoralOther J j 1 0.4400 
07-Jun-2018_14:24:22 7344 20 female R 4 1 12 self immoralSelf H h 1 0.3840 
07-Jun-2018_14:24:24 7344 20 female R 4 1 13 self moralSelf H h 1 0.3501 
07-Jun-2018_14:24:25 7344 20 female R 4 1 14 self moralSelf H h 1 0.3542 
07-Jun-2018_14:24:27 7344 20 female R 4 1 15 self moralSelf H h 1 0.3083 
07-Jun-2018_14:24:28 7344 20 female R 4 1 16 self immoralOther J j 1 0.3425 
07-Jun-2018_14:24:30 7344 20 female R 4 1 17 self immoralSelf H h 1 0.4185 
07-Jun-2018_14:24:32 7344 20 female R 4 1 18 self immoralSelf H h 1 0.3407 
07-Jun-2018_14:24:34 7344 20 female R 4 1 19 self moralOther J j 1 0.4467 
07-Jun-2018_14:24:36 7344 20 female R 4 1 20 self immoralSelf H j 0 0.3849 
07-Jun-2018_14:24:38 7344 20 female R 4 1 21 self immoralSelf H h 1 0.4091 
07-Jun-2018_14:24:39 7344 20 female R 4 1 22 self moralSelf H h 1 0.3990 
07-Jun-2018_14:24:41 7344 20 female R 4 1 23 self moralSelf H h 1 0.2912 
07-Jun-2018_14:24:42 7344 20 female R 4 1 24 self immoralOther J j 1 0.3912 
07-Jun-2018_14:24:44 7344 20 female R 4 2 1 self moralOther J j 1 0.3353 
07-Jun-2018_14:24:45 7344 20 female R 4 2 2 self moralSelf H h 1 0.2594 
07-Jun-2018_14:24:47 7344 20 female R 4 2 3 self moralSelf H h 1 0.3275 
07-Jun-2018_14:24:49 7344 20 female R 4 2 4 self immoralOther J j 1 0.3595 
07-Jun-2018_14:24:50 7344 20 female R 4 2 5 self immoralSelf H h 1 0.2998 
07-Jun-2018_14:24:52 7344 20 female R 4 2 6 self moralSelf H h 1 0.4318 
07-Jun-2018_14:24:54 7344 20 female R 4 2 7 self moralOther J j 1 0.3619 
07-Jun-2018_14:24:55 7344 20 female R 4 2 8 self moralOther J j 1 0.2980 
07-Jun-2018_14:24:57 7344 20 female R 4 2 9 self immoralOther J j 1 0.3221 
07-Jun-2018_14:24:58 7344 20 female R 4 2 10 self immoralSelf H h 1 0.4402 
07-Jun-2018_14:25:00 7344 20 female R 4 2 11 self moralSelf H h 1 0.2802 
07-Jun-2018_14:25:01 7344 20 female R 4 2 12 self immoralOther J j 1 0.3503 
07-Jun-2018_14:25:03 7344 20 female R 4 2 13 self immoralOther J j 1 0.2405 
07-Jun-2018_14:25:04 7344 20 female R 4 2 14 self moralSelf H j 0 0.2625 
07-Jun-2018_14:25:06 7344 20 female R 4 2 15 self moralOther J j 1 0.3766 
07-Jun-2018_14:25:08 7344 20 female R 4 2 16 self immoralOther J j 1 0.5026 
07-Jun-2018_14:25:10 7344 20 female R 4 2 17 self moralOther J j 1 0.3608 
07-Jun-2018_14:25:11 7344 20 female R 4 2 18 self immoralSelf H h 1 0.2549 
07-Jun-2018_14:25:13 7344 20 female R 4 2 19 self moralOther J j 1 0.3330 
07-Jun-2018_14:25:14 7344 20 female R 4 2 20 self immoralOther J j 1 0.3712 
07-Jun-2018_14:25:16 7344 20 female R 4 2 21 self immoralSelf H h 1 0.5111 
07-Jun-2018_14:25:18 7344 20 female R 4 2 22 self immoralSelf H h 1 0.3333 
07-Jun-2018_14:25:20 7344 20 female R 4 2 23 self moralSelf H h 1 0.2814 
07-Jun-2018_14:25:22 7344 20 female R 4 2 24 self immoralSelf H h 1 0.6294 
07-Jun-2018_14:25:25 7344 20 female R 4 3 1 self moralOther J h 0 0.5257 
07-Jun-2018_14:25:27 7344 20 female R 4 3 2 self moralOther J j 1 0.4018 
07-Jun-2018_14:25:29 7344 20 female R 4 3 3 self immoralOther J j 1 0.3660 
07-Jun-2018_14:25:30 7344 20 female R 4 3 4 self immoralSelf H h 1 0.3960 
07-Jun-2018_14:25:32 7344 20 female R 4 3 5 self immoralOther J j 1 0.3761 
07-Jun-2018_14:25:34 7344 20 female R 4 3 6 self moralSelf H h 1 0.3581 
07-Jun-2018_14:25:35 7344 20 female R 4 3 7 self moralOther J j 1 0.5123 
07-Jun-2018_14:25:37 7344 20 female R 4 3 8 self moralSelf H j 0 0.2724 
07-Jun-2018_14:25:38 7344 20 female R 4 3 9 self moralSelf H h 1 0.2545 
07-Jun-2018_14:25:40 7344 20 female R 4 3 10 self immoralOther J j 1 0.3885 
07-Jun-2018_14:25:42 7344 20 female R 4 3 11 self immoralSelf H h 1 0.3566 
07-Jun-2018_14:25:43 7344 20 female R 4 3 12 self immoralSelf H j 0 0.2268 
07-Jun-2018_14:25:45 7344 20 female R 4 3 13 self immoralOther J j 1 0.4647 
07-Jun-2018_14:25:47 7344 20 female R 4 3 14 self immoralSelf H h 1 0.3909 
07-Jun-2018_14:25:48 7344 20 female R 4 3 15 self immoralOther J j 1 0.3710 
07-Jun-2018_14:25:50 7344 20 female R 4 3 16 self moralOther J h 0 0.3711 
07-Jun-2018_14:25:52 7344 20 female R 4 3 17 self immoralSelf H h 1 0.3612 
07-Jun-2018_14:25:53 7344 20 female R 4 3 18 self moralSelf H h 1 0.3133 
07-Jun-2018_14:25:55 7344 20 female R 4 3 19 self moralSelf H h 1 0.3535 
07-Jun-2018_14:25:57 7344 20 female R 4 3 20 self moralOther J j 1 0.3215 
07-Jun-2018_14:25:59 7344 20 female R 4 3 21 self immoralSelf H h 1 0.7397 
07-Jun-2018_14:26:00 7344 20 female R 4 3 22 self moralSelf H h 1 0.3677 
07-Jun-2018_14:26:02 7344 20 female R 4 3 23 self moralOther J j 1 0.3798 
07-Jun-2018_14:26:03 7344 20 female R 4 3 24 self immoralOther J j 1 0.3940 
07-Jun-2018_14:26:05 7344 20 female R 4 4 1 self moralSelf H h 1 0.2780 
07-Jun-2018_14:26:07 7344 20 female R 4 4 2 self immoralSelf H h 1 0.6681 
07-Jun-2018_14:26:08 7344 20 female R 4 4 3 self immoralOther J j 1 0.3861 
07-Jun-2018_14:26:10 7344 20 female R 4 4 4 self moralOther J h 0 0.3902 
07-Jun-2018_14:26:12 7344 20 female R 4 4 5 self immoralOther J j 1 0.4244 
07-Jun-2018_14:26:13 7344 20 female R 4 4 6 self moralOther J j 1 0.3864 
07-Jun-2018_14:26:15 7344 20 female R 4 4 7 self immoralSelf H h 1 0.3846 
07-Jun-2018_14:26:17 7344 20 female R 4 4 8 self immoralOther J j 1 0.5607 
07-Jun-2018_14:26:18 7344 20 female R 4 4 9 self moralSelf H h 1 0.4368 
07-Jun-2018_14:26:20 7344 20 female R 4 4 10 self moralSelf H h 1 0.4029 
07-Jun-2018_14:26:22 7344 20 female R 4 4 11 self moralOther J j 1 0.5269 
07-Jun-2018_14:26:23 7344 20 female R 4 4 12 self moralOther J j 1 0.4750 
07-Jun-2018_14:26:25 7344 20 female R 4 4 13 self moralSelf H h 1 0.3672 
07-Jun-2018_14:26:26 7344 20 female R 4 4 14 self moralSelf H h 1 0.3613 
07-Jun-2018_14:26:28 7344 20 female R 4 4 15 self immoralSelf H h 1 0.5793 
07-Jun-2018_14:26:30 7344 20 female R 4 4 16 self moralOther J h 0 0.4994 
07-Jun-2018_14:26:31 7344 20 female R 4 4 17 self immoralOther J j 1 0.4055 
07-Jun-2018_14:26:33 7344 20 female R 4 4 18 self moralSelf H h 1 0.3736 
07-Jun-2018_14:26:35 7344 20 female R 4 4 19 self immoralSelf H h 1 0.4057 
07-Jun-2018_14:26:36 7344 20 female R 4 4 20 self immoralSelf H h 1 0.3698 
07-Jun-2018_14:26:38 7344 20 female R 4 4 21 self immoralSelf H h 1 0.3459 
07-Jun-2018_14:26:39 7344 20 female R 4 4 22 self immoralOther J j 1 0.4160 
07-Jun-2018_14:26:41 7344 20 female R 4 4 23 self moralOther J j 1 0.3220 
07-Jun-2018_14:26:42 7344 20 female R 4 4 24 self immoralOther J h 0 0.3801 
07-Jun-2018_14:26:46 7344 20 female R 4 5 1 self moralSelf H h 1 0.4123 
07-Jun-2018_14:26:48 7344 20 female R 4 5 2 self moralSelf H h 1 0.2925 
07-Jun-2018_14:26:49 7344 20 female R 4 5 3 self immoralOther J j 1 0.3525 
07-Jun-2018_14:26:51 7344 20 female R 4 5 4 self moralSelf H h 1 0.4666 
07-Jun-2018_14:26:53 7344 20 female R 4 5 5 self moralOther J j 1 0.3547 
07-Jun-2018_14:26:55 7344 20 female R 4 5 6 self immoralSelf H h 1 0.4709 
07-Jun-2018_14:26:57 7344 20 female R 4 5 7 self moralOther J j 1 0.4345 
07-Jun-2018_14:26:59 7344 20 female R 4 5 8 self immoralSelf H h 1 0.3511 
07-Jun-2018_14:27:00 7344 20 female R 4 5 9 self moralSelf H h 1 0.4292 
07-Jun-2018_14:27:02 7344 20 female R 4 5 10 self immoralSelf H h 1 0.3257 
07-Jun-2018_14:27:04 7344 20 female R 4 5 11 self immoralOther J j 1 0.3794 
07-Jun-2018_14:27:06 7344 20 female R 4 5 12 self immoralOther J j 1 0.4835 
07-Jun-2018_14:27:08 7344 20 female R 4 5 13 self immoralSelf H h 1 0.3616 
07-Jun-2018_14:27:09 7344 20 female R 4 5 14 self moralOther J j 1 0.3437 
07-Jun-2018_14:27:11 7344 20 female R 4 5 15 self immoralOther J j 1 0.5878 
07-Jun-2018_14:27:13 7344 20 female R 4 5 16 self moralSelf H h 1 0.3960 
07-Jun-2018_14:27:14 7344 20 female R 4 5 17 self moralOther J j 1 0.4160 
07-Jun-2018_14:27:16 7344 20 female R 4 5 18 self moralOther J j 1 0.4662 
07-Jun-2018_14:27:17 7344 20 female R 4 5 19 self immoralOther J j 1 0.3882 
07-Jun-2018_14:27:19 7344 20 female R 4 5 20 self moralSelf H h 1 0.3563 
07-Jun-2018_14:27:21 7344 20 female R 4 5 21 self immoralSelf H h 1 0.5424 
07-Jun-2018_14:27:22 7344 20 female R 4 5 22 self immoralSelf H h 1 0.4185 
07-Jun-2018_14:27:24 7344 20 female R 4 5 23 self moralOther J j 1 0.3866 
07-Jun-2018_14:27:26 7344 20 female R 4 5 24 self immoralOther J j 1 0.3068 
Date Sub Age Sex Hand Block Bin Trial Task Shape corrResp Resp ACC RT
07-Jun-2018_14:29:39 7344 20 female R 5 1 1 self immoralOther J j 1 0.4244 
07-Jun-2018_14:29:41 7344 20 female R 5 1 2 self immoralOther J j 1 0.3265 
07-Jun-2018_14:29:42 7344 20 female R 5 1 3 self immoralSelf H h 1 0.4625 
07-Jun-2018_14:29:44 7344 20 female R 5 1 4 self immoralOther J h 0 0.3346 
07-Jun-2018_14:29:45 7344 20 female R 5 1 5 self moralOther J j 1 0.4047 
07-Jun-2018_14:29:47 7344 20 female R 5 1 6 self immoralSelf H h 1 0.4388 
07-Jun-2018_14:29:49 7344 20 female R 5 1 7 self moralSelf H h 1 0.2970 
07-Jun-2018_14:29:50 7344 20 female R 5 1 8 self moralOther J j 1 0.3730 
07-Jun-2018_14:29:52 7344 20 female R 5 1 9 self immoralSelf H h 1 0.3731 
07-Jun-2018_14:29:54 7344 20 female R 5 1 10 self moralOther J j 1 0.3752 
07-Jun-2018_14:29:56 7344 20 female R 5 1 11 self immoralSelf H h 1 0.5273 
07-Jun-2018_14:29:57 7344 20 female R 5 1 12 self moralOther J j 1 0.4275 
07-Jun-2018_14:29:59 7344 20 female R 5 1 13 self moralSelf H h 1 0.3895 
07-Jun-2018_14:30:00 7344 20 female R 5 1 14 self moralOther J j 1 0.3956 
07-Jun-2018_14:30:02 7344 20 female R 5 1 15 self moralSelf H h 1 0.6057 
07-Jun-2018_14:30:04 7344 20 female R 5 1 16 self immoralSelf H h 1 0.4298 
07-Jun-2018_14:30:05 7344 20 female R 5 1 17 self immoralSelf H h 1 0.4099 
07-Jun-2018_14:30:07 7344 20 female R 5 1 18 self moralSelf H j 0 0.5140 
07-Jun-2018_14:30:09 7344 20 female R 5 1 19 self immoralOther J j 1 0.3961 
07-Jun-2018_14:30:10 7344 20 female R 5 1 20 self moralSelf H h 1 0.3802 
07-Jun-2018_14:30:12 7344 20 female R 5 1 21 self immoralOther J j 1 0.4063 
07-Jun-2018_14:30:14 7344 20 female R 5 1 22 self immoralOther J j 1 0.4123 
07-Jun-2018_14:30:15 7344 20 female R 5 1 23 self moralSelf H h 1 0.3725 
07-Jun-2018_14:30:16 7344 20 female R 5 1 24 self moralOther J j 1 0.3606 
07-Jun-2018_14:30:18 7344 20 female R 5 2 1 self immoralSelf H h 1 0.3986 
07-Jun-2018_14:30:20 7344 20 female R 5 2 2 self moralOther J h 0 0.4308 
07-Jun-2018_14:30:22 7344 20 female R 5 2 3 self moralSelf H h 1 0.3868 
07-Jun-2018_14:30:23 7344 20 female R 5 2 4 self immoralOther J h 0 0.3849 
07-Jun-2018_14:30:25 7344 20 female R 5 2 5 self immoralSelf H h 1 0.4154 
07-Jun-2018_14:30:27 7344 20 female R 5 2 6 self immoralOther J j 1 0.5211 
07-Jun-2018_14:30:28 7344 20 female R 5 2 7 self immoralSelf H h 1 0.3593 
07-Jun-2018_14:30:30 7344 20 female R 5 2 8 self moralOther J j 1 0.5793 
07-Jun-2018_14:30:32 7344 20 female R 5 2 9 self moralOther J j 1 0.4034 
07-Jun-2018_14:30:33 7344 20 female R 5 2 10 self immoralOther J j 1 0.4416 
07-Jun-2018_14:30:35 7344 20 female R 5 2 11 self immoralOther J j 1 0.3936 
07-Jun-2018_14:30:37 7344 20 female R 5 2 12 self immoralSelf H h 1 0.4019 
07-Jun-2018_14:30:38 7344 20 female R 5 2 13 self moralOther J j 1 0.3979 
07-Jun-2018_14:30:40 7344 20 female R 5 2 14 self immoralSelf H h 1 0.4539 
07-Jun-2018_14:30:42 7344 20 female R 5 2 15 self immoralSelf H h 1 0.4540 
07-Jun-2018_14:30:43 7344 20 female R 5 2 16 self moralSelf H h 1 0.4142 
07-Jun-2018_14:30:45 7344 20 female R 5 2 17 self moralSelf H h 1 0.3542 
07-Jun-2018_14:30:46 7344 20 female R 5 2 18 self moralSelf H h 1 0.2963 
07-Jun-2018_14:30:48 7344 20 female R 5 2 19 self moralSelf H h 1 0.2938 
07-Jun-2018_14:30:50 7344 20 female R 5 2 20 self immoralOther J j 1 0.3681 
07-Jun-2018_14:30:51 7344 20 female R 5 2 21 self moralOther J h 0 0.3886 
07-Jun-2018_14:30:53 7344 20 female R 5 2 22 self moralOther J h 0 0.2767 
07-Jun-2018_14:30:55 7344 20 female R 5 2 23 self moralSelf H h 1 0.4367 
07-Jun-2018_14:30:57 7344 20 female R 5 2 24 self immoralOther J j 1 0.4472 
07-Jun-2018_14:31:00 7344 20 female R 5 3 1 self immoralOther J j 1 0.7411 
07-Jun-2018_14:31:02 7344 20 female R 5 3 2 self moralSelf H h 1 0.3932 
07-Jun-2018_14:31:04 7344 20 female R 5 3 3 self immoralSelf H h 1 0.4473 
07-Jun-2018_14:31:06 7344 20 female R 5 3 4 self immoralOther J j 1 0.3874 
07-Jun-2018_14:31:07 7344 20 female R 5 3 5 self moralSelf H h 1 0.4036 
07-Jun-2018_14:31:09 7344 20 female R 5 3 6 self moralOther J j 1 0.3457 
07-Jun-2018_14:31:10 7344 20 female R 5 3 7 self moralSelf H h 1 0.3576 
07-Jun-2018_14:31:12 7344 20 female R 5 3 8 self immoralOther J j 1 0.2898 
07-Jun-2018_14:31:13 7344 20 female R 5 3 9 self immoralSelf H h 1 0.3158 
07-Jun-2018_14:31:15 7344 20 female R 5 3 10 self immoralOther J j 1 0.3759 
07-Jun-2018_14:31:17 7344 20 female R 5 3 11 self immoralOther J j 1 0.3280 
07-Jun-2018_14:31:18 7344 20 female R 5 3 12 self immoralSelf H h 1 0.3361 
07-Jun-2018_14:31:20 7344 20 female R 5 3 13 self immoralSelf H h 1 0.5102 
07-Jun-2018_14:31:22 7344 20 female R 5 3 14 self immoralSelf H h 1 0.3243 
07-Jun-2018_14:31:23 7344 20 female R 5 3 15 self moralOther J j 1 0.3764 
07-Jun-2018_14:31:25 7344 20 female R 5 3 16 self immoralOther J h 0 0.6145 
07-Jun-2018_14:31:27 7344 20 female R 5 3 17 self moralSelf H h 1 0.3926 
07-Jun-2018_14:31:29 7344 20 female R 5 3 18 self moralOther J j 1 0.4247 
07-Jun-2018_14:31:31 7344 20 female R 5 3 19 self moralSelf H h 1 0.3789 
07-Jun-2018_14:31:32 7344 20 female R 5 3 20 self immoralSelf H h 1 0.3909 
07-Jun-2018_14:31:34 7344 20 female R 5 3 21 self moralOther J j 1 0.5650 
07-Jun-2018_14:31:35 7344 20 female R 5 3 22 self moralSelf H h 1 0.3631 
07-Jun-2018_14:31:37 7344 20 female R 5 3 23 self moralOther J j 1 0.4152 
07-Jun-2018_14:31:38 7344 20 female R 5 3 24 self moralOther J j 1 0.3414 
07-Jun-2018_14:31:40 7344 20 female R 5 4 1 self moralOther J j 1 0.3394 
07-Jun-2018_14:31:42 7344 20 female R 5 4 2 self moralSelf H h 1 0.3254 
07-Jun-2018_14:31:43 7344 20 female R 5 4 3 self moralOther J j 1 0.3815 
07-Jun-2018_14:31:45 7344 20 female R 5 4 4 self immoralSelf H h 1 0.3697 
07-Jun-2018_14:31:46 7344 20 female R 5 4 5 self moralSelf H h 1 0.3158 
07-Jun-2018_14:31:48 7344 20 female R 5 4 6 self moralOther J j 1 0.3619 
07-Jun-2018_14:31:50 7344 20 female R 5 4 7 self moralSelf H h 1 0.3579 
07-Jun-2018_14:31:51 7344 20 female R 5 4 8 self moralOther J j 1 0.4141 
07-Jun-2018_14:31:53 7344 20 female R 5 4 9 self immoralOther J j 1 0.3301 
07-Jun-2018_14:31:55 7344 20 female R 5 4 10 self immoralSelf H h 1 0.3322 
07-Jun-2018_14:31:57 7344 20 female R 5 4 11 self moralOther J j 1 0.4083 
07-Jun-2018_14:31:58 7344 20 female R 5 4 12 self moralSelf H h 1 0.3703 
07-Jun-2018_14:32:00 7344 20 female R 5 4 13 self immoralSelf H j 0 0.4286 
07-Jun-2018_14:32:01 7344 20 female R 5 4 14 self moralSelf H h 1 0.2426 
07-Jun-2018_14:32:03 7344 20 female R 5 4 15 self immoralOther J j 1 0.3847 
07-Jun-2018_14:32:04 7344 20 female R 5 4 16 self immoralSelf H h 1 0.6188 
07-Jun-2018_14:32:06 7344 20 female R 5 4 17 self immoralOther J h 0 0.2649 
07-Jun-2018_14:32:08 7344 20 female R 5 4 18 self immoralOther J j 1 0.3210 
07-Jun-2018_14:32:09 7344 20 female R 5 4 19 self moralSelf H h 1 0.3491 
07-Jun-2018_14:32:11 7344 20 female R 5 4 20 self immoralSelf H j 0 0.3631 
07-Jun-2018_14:32:12 7344 20 female R 5 4 21 self immoralOther J j 1 0.4433 
07-Jun-2018_14:32:14 7344 20 female R 5 4 22 self immoralOther J j 1 0.4354 
07-Jun-2018_14:32:16 7344 20 female R 5 4 23 self moralOther J j 1 0.5374 
07-Jun-2018_14:32:17 7344 20 female R 5 4 24 self immoralSelf H h 1 0.4055 
07-Jun-2018_14:32:22 7344 20 female R 5 5 1 self moralSelf H h 1 0.4238 
07-Jun-2018_14:32:24 7344 20 female R 5 5 2 self moralOther J j 1 0.3419 
07-Jun-2018_14:32:25 7344 20 female R 5 5 3 self moralOther J j 1 0.4921 
07-Jun-2018_14:32:27 7344 20 female R 5 5 4 self immoralOther J j 1 0.3921 
07-Jun-2018_14:32:28 7344 20 female R 5 5 5 self immoralSelf H j 0 0.2662 
07-Jun-2018_14:32:30 7344 20 female R 5 5 6 self moralSelf H h 1 0.3204 
07-Jun-2018_14:32:32 7344 20 female R 5 5 7 self immoralOther J j 1 0.5004 
07-Jun-2018_14:32:34 7344 20 female R 5 5 8 self moralSelf H h 1 0.4744 
07-Jun-2018_14:32:35 7344 20 female R 5 5 9 self immoralOther J j 1 0.3546 
07-Jun-2018_14:32:37 7344 20 female R 5 5 10 self immoralOther J j 1 0.4486 
07-Jun-2018_14:32:39 7344 20 female R 5 5 11 self moralOther J h 0 0.5747 
07-Jun-2018_14:32:41 7344 20 female R 5 5 12 self moralOther J j 1 0.3189 
07-Jun-2018_14:32:42 7344 20 female R 5 5 13 self moralSelf H h 1 0.3729 
07-Jun-2018_14:32:44 7344 20 female R 5 5 14 self immoralSelf H j 0 0.3511 
07-Jun-2018_14:32:46 7344 20 female R 5 5 15 self moralSelf H h 1 0.3393 
07-Jun-2018_14:32:47 7344 20 female R 5 5 16 self immoralSelf H h 1 0.2733 
07-Jun-2018_14:32:49 7344 20 female R 5 5 17 self immoralSelf H h 1 0.2612 
07-Jun-2018_14:32:50 7344 20 female R 5 5 18 self immoralOther J j 1 0.4115 
07-Jun-2018_14:32:52 7344 20 female R 5 5 19 self immoralSelf H h 1 0.3476 
07-Jun-2018_14:32:53 7344 20 female R 5 5 20 self immoralSelf H h 1 0.3516 
07-Jun-2018_14:32:55 7344 20 female R 5 5 21 self moralSelf H j 0 0.4518 
07-Jun-2018_14:32:57 7344 20 female R 5 5 22 self moralOther J h 0 0.3739 
07-Jun-2018_14:32:58 7344 20 female R 5 5 23 self moralOther J j 1 0.3839 
07-Jun-2018_14:33:00 7344 20 female R 5 5 24 self immoralOther J j 1 0.5920 
Date Sub Age Sex Hand Block Bin Trial Task Shape corrResp Resp ACC RT
07-Jun-2018_14:35:15 7344 20 female R 6 1 1 moral immoralSelf Y y 1 1.0157 
07-Jun-2018_14:35:17 7344 20 female R 6 1 2 moral moralOther U u 1 0.7099 
07-Jun-2018_14:35:19 7344 20 female R 6 1 3 moral immoralOther Y y 1 0.5940 
07-Jun-2018_14:35:21 7344 20 female R 6 1 4 moral moralOther U u 1 0.5141 
07-Jun-2018_14:35:23 7344 20 female R 6 1 5 moral moralSelf U u 1 0.4442 
07-Jun-2018_14:35:24 7344 20 female R 6 1 6 moral moralSelf U u 1 0.3424 
07-Jun-2018_14:35:26 7344 20 female R 6 1 7 moral immoralOther Y y 1 0.4004 
07-Jun-2018_14:35:28 7344 20 female R 6 1 8 moral immoralOther Y y 1 0.3565 
07-Jun-2018_14:35:30 7344 20 female R 6 1 9 moral immoralOther Y y 1 0.3307 
07-Jun-2018_14:35:32 7344 20 female R 6 1 10 moral immoralSelf Y NA -1 1.0850 
07-Jun-2018_14:35:33 7344 20 female R 6 1 11 moral moralSelf U u 1 0.3889 
07-Jun-2018_14:35:35 7344 20 female R 6 1 12 moral moralSelf U u 1 0.3109 
07-Jun-2018_14:35:37 7344 20 female R 6 1 13 moral moralOther U u 1 0.6871 
07-Jun-2018_14:35:38 7344 20 female R 6 1 14 moral immoralSelf Y u 0 0.6151 
07-Jun-2018_14:35:40 7344 20 female R 6 1 15 moral moralSelf U u 1 0.3972 
07-Jun-2018_14:35:42 7344 20 female R 6 1 16 moral moralOther U y 0 0.4014 
07-Jun-2018_14:35:43 7344 20 female R 6 1 17 moral immoralOther Y y 1 0.4775 
07-Jun-2018_14:35:45 7344 20 female R 6 1 18 moral moralOther U u 1 0.4495 
07-Jun-2018_14:35:47 7344 20 female R 6 1 19 moral immoralSelf Y y 1 0.6317 
07-Jun-2018_14:35:49 7344 20 female R 6 1 20 moral immoralSelf Y y 1 0.4597 
07-Jun-2018_14:35:50 7344 20 female R 6 1 21 moral immoralSelf Y y 1 0.3200 
07-Jun-2018_14:35:52 7344 20 female R 6 1 22 moral moralSelf U u 1 0.4099 
07-Jun-2018_14:35:54 7344 20 female R 6 1 23 moral immoralOther Y y 1 0.4321 
07-Jun-2018_14:35:55 7344 20 female R 6 1 24 moral moralOther U y 0 0.4301 
07-Jun-2018_14:35:57 7344 20 female R 6 2 1 moral immoralSelf Y y 1 0.4842 
07-Jun-2018_14:35:58 7344 20 female R 6 2 2 moral immoralSelf Y u 0 0.4123 
07-Jun-2018_14:36:00 7344 20 female R 6 2 3 moral moralOther U u 1 0.4744 
07-Jun-2018_14:36:02 7344 20 female R 6 2 4 moral moralOther U u 1 0.4365 
07-Jun-2018_14:36:04 7344 20 female R 6 2 5 moral immoralOther Y y 1 0.5483 
07-Jun-2018_14:36:05 7344 20 female R 6 2 6 moral immoralOther Y y 1 0.3848 
07-Jun-2018_14:36:07 7344 20 female R 6 2 7 moral immoralOther Y y 1 0.3148 
07-Jun-2018_14:36:09 7344 20 female R 6 2 8 moral moralSelf U NA -1 1.0850 
07-Jun-2018_14:36:11 7344 20 female R 6 2 9 moral moralOther U u 1 0.5811 
07-Jun-2018_14:36:13 7344 20 female R 6 2 10 moral immoralSelf Y y 1 0.4831 
07-Jun-2018_14:36:14 7344 20 female R 6 2 11 moral moralOther U y 0 0.4192 
07-Jun-2018_14:36:16 7344 20 female R 6 2 12 moral immoralOther Y y 1 0.5413 
07-Jun-2018_14:36:18 7344 20 female R 6 2 13 moral moralSelf U u 1 0.3995 
07-Jun-2018_14:36:20 7344 20 female R 6 2 14 moral immoralOther Y y 1 0.5535 
07-Jun-2018_14:36:21 7344 20 female R 6 2 15 moral moralSelf U y 0 0.3415 
07-Jun-2018_14:36:23 7344 20 female R 6 2 16 moral immoralOther Y y 1 0.4739 
07-Jun-2018_14:36:25 7344 20 female R 6 2 17 moral moralOther U u 1 0.4378 
07-Jun-2018_14:36:26 7344 20 female R 6 2 18 moral immoralSelf Y y 1 0.4919 
07-Jun-2018_14:36:28 7344 20 female R 6 2 19 moral immoralSelf Y y 1 0.4920 
07-Jun-2018_14:36:30 7344 20 female R 6 2 20 moral moralSelf U u 1 0.4561 
07-Jun-2018_14:36:32 7344 20 female R 6 2 21 moral immoralSelf Y y 1 0.3442 
07-Jun-2018_14:36:33 7344 20 female R 6 2 22 moral moralSelf U u 1 0.3943 
07-Jun-2018_14:36:35 7344 20 female R 6 2 23 moral moralSelf U u 1 0.3704 
07-Jun-2018_14:36:36 7344 20 female R 6 2 24 moral moralOther U y 0 0.3625 
07-Jun-2018_14:36:42 7344 20 female R 6 3 1 moral moralSelf U u 1 0.3468 
07-Jun-2018_14:36:44 7344 20 female R 6 3 2 moral moralOther U y 0 0.3969 
07-Jun-2018_14:36:46 7344 20 female R 6 3 3 moral moralOther U u 1 0.3310 
07-Jun-2018_14:36:47 7344 20 female R 6 3 4 moral immoralSelf Y y 1 0.3811 
07-Jun-2018_14:36:49 7344 20 female R 6 3 5 moral immoralSelf Y y 1 0.3773 
07-Jun-2018_14:36:51 7344 20 female R 6 3 6 moral immoralOther Y u 0 0.3633 
07-Jun-2018_14:36:53 7344 20 female R 6 3 7 moral immoralOther Y y 1 0.3995 
07-Jun-2018_14:36:54 7344 20 female R 6 3 8 moral immoralOther Y y 1 0.3035 
07-Jun-2018_14:36:56 7344 20 female R 6 3 9 moral immoralOther Y y 1 0.3056 
07-Jun-2018_14:36:57 7344 20 female R 6 3 10 moral immoralOther Y y 1 0.3217 
07-Jun-2018_14:36:59 7344 20 female R 6 3 11 moral moralSelf U u 1 0.3838 
07-Jun-2018_14:37:01 7344 20 female R 6 3 12 moral moralSelf U u 1 0.2719 
07-Jun-2018_14:37:02 7344 20 female R 6 3 13 moral moralOther U y 0 0.3560 
07-Jun-2018_14:37:04 7344 20 female R 6 3 14 moral moralOther U u 1 0.4521 
07-Jun-2018_14:37:06 7344 20 female R 6 3 15 moral immoralSelf Y y 1 0.3162 
07-Jun-2018_14:37:08 7344 20 female R 6 3 16 moral moralSelf U u 1 0.4243 
07-Jun-2018_14:37:09 7344 20 female R 6 3 17 moral moralOther U u 1 0.5023 
07-Jun-2018_14:37:11 7344 20 female R 6 3 18 moral immoralSelf Y y 1 0.5845 
07-Jun-2018_14:37:13 7344 20 female R 6 3 19 moral immoralOther Y u 0 0.3466 
07-Jun-2018_14:37:15 7344 20 female R 6 3 20 moral moralSelf U u 1 0.3667 
07-Jun-2018_14:37:17 7344 20 female R 6 3 21 moral moralOther U u 1 0.5988 
07-Jun-2018_14:37:19 7344 20 female R 6 3 22 moral immoralSelf Y y 1 0.5229 
07-Jun-2018_14:37:20 7344 20 female R 6 3 23 moral immoralSelf Y y 1 0.4171 
07-Jun-2018_14:37:22 7344 20 female R 6 3 24 moral moralSelf U u 1 0.3975 
07-Jun-2018_14:37:24 7344 20 female R 6 4 1 moral immoralSelf Y y 1 0.4432 
07-Jun-2018_14:37:25 7344 20 female R 6 4 2 moral moralSelf U u 1 0.3855 
07-Jun-2018_14:37:27 7344 20 female R 6 4 3 moral immoralOther Y y 1 0.3895 
07-Jun-2018_14:37:28 7344 20 female R 6 4 4 moral moralSelf U u 1 0.3455 
07-Jun-2018_14:37:30 7344 20 female R 6 4 5 moral immoralOther Y u 0 0.2915 
07-Jun-2018_14:37:32 7344 20 female R 6 4 6 moral immoralSelf Y y 1 0.5756 
07-Jun-2018_14:37:33 7344 20 female R 6 4 7 moral immoralOther Y y 1 0.3897 
07-Jun-2018_14:37:35 7344 20 female R 6 4 8 moral moralOther U y 0 0.3779 
07-Jun-2018_14:37:37 7344 20 female R 6 4 9 moral moralOther U u 1 0.4364 
07-Jun-2018_14:37:38 7344 20 female R 6 4 10 moral immoralSelf Y u 0 0.3861 
07-Jun-2018_14:37:40 7344 20 female R 6 4 11 moral immoralOther Y y 1 0.4382 
07-Jun-2018_14:37:42 7344 20 female R 6 4 12 moral moralSelf U u 1 0.3822 
07-Jun-2018_14:37:43 7344 20 female R 6 4 13 moral immoralSelf Y y 1 0.3425 
07-Jun-2018_14:37:45 7344 20 female R 6 4 14 moral immoralSelf Y y 1 0.3325 
07-Jun-2018_14:37:47 7344 20 female R 6 4 15 moral moralOther U u 1 0.5666 
07-Jun-2018_14:37:48 7344 20 female R 6 4 16 moral moralOther U u 1 0.3307 
07-Jun-2018_14:37:50 7344 20 female R 6 4 17 moral moralSelf U u 1 0.4248 
07-Jun-2018_14:37:51 7344 20 female R 6 4 18 moral immoralSelf Y y 1 0.3889 
07-Jun-2018_14:37:53 7344 20 female R 6 4 19 moral moralSelf U u 1 0.4449 
07-Jun-2018_14:37:55 7344 20 female R 6 4 20 moral moralSelf U u 1 0.3110 
07-Jun-2018_14:37:56 7344 20 female R 6 4 21 moral moralOther U y 0 0.3732 
07-Jun-2018_14:37:58 7344 20 female R 6 4 22 moral immoralOther Y y 1 0.5233 
07-Jun-2018_14:38:00 7344 20 female R 6 4 23 moral moralOther U u 1 0.5785 
07-Jun-2018_14:38:02 7344 20 female R 6 4 24 moral immoralOther Y y 1 0.4215 
07-Jun-2018_14:38:06 7344 20 female R 6 5 1 moral moralSelf U u 1 0.3737 
07-Jun-2018_14:38:08 7344 20 female R 6 5 2 moral moralSelf U u 1 0.3659 
07-Jun-2018_14:38:09 7344 20 female R 6 5 3 moral moralSelf U u 1 0.3300 
07-Jun-2018_14:38:11 7344 20 female R 6 5 4 moral moralOther U y 0 0.3999 
07-Jun-2018_14:38:13 7344 20 female R 6 5 5 moral moralOther U u 1 0.3842 
07-Jun-2018_14:38:15 7344 20 female R 6 5 6 moral moralOther U u 1 0.3262 
07-Jun-2018_14:38:16 7344 20 female R 6 5 7 moral immoralSelf Y y 1 0.3223 
07-Jun-2018_14:38:18 7344 20 female R 6 5 8 moral moralOther U y 0 0.3384 
07-Jun-2018_14:38:20 7344 20 female R 6 5 9 moral immoralOther Y y 1 0.4125 
07-Jun-2018_14:38:21 7344 20 female R 6 5 10 moral moralSelf U u 1 0.3545 
07-Jun-2018_14:38:23 7344 20 female R 6 5 11 moral immoralSelf Y y 1 0.5246 
07-Jun-2018_14:38:25 7344 20 female R 6 5 12 moral immoralSelf Y y 1 0.4628 
07-Jun-2018_14:38:26 7344 20 female R 6 5 13 moral immoralOther Y y 1 0.4809 
07-Jun-2018_14:38:28 7344 20 female R 6 5 14 moral immoralOther Y y 1 0.4030 
07-Jun-2018_14:38:30 7344 20 female R 6 5 15 moral immoralOther Y y 1 0.3652 
07-Jun-2018_14:38:31 7344 20 female R 6 5 16 moral moralSelf U u 1 0.3672 
07-Jun-2018_14:38:33 7344 20 female R 6 5 17 moral moralOther U y 0 0.3792 
07-Jun-2018_14:38:35 7344 20 female R 6 5 18 moral moralSelf U u 1 0.4534 
07-Jun-2018_14:38:36 7344 20 female R 6 5 19 moral immoralSelf Y y 1 0.4274 
07-Jun-2018_14:38:38 7344 20 female R 6 5 20 moral immoralSelf Y y 1 0.3855 
07-Jun-2018_14:38:40 7344 20 female R 6 5 21 moral immoralOther Y y 1 0.6277 
07-Jun-2018_14:38:41 7344 20 female R 6 5 22 moral moralOther U y 0 0.5317 
07-Jun-2018_14:38:43 7344 20 female R 6 5 23 moral immoralSelf Y y 1 0.5918 
07-Jun-2018_14:38:45 7344 20 female R 6 5 24 moral immoralOther Y y 1 0.5520 
