Date Sub Age Sex Hand Block Bin Trial Task Shape corrResp Resp ACC RT
01-Jun-2018_14:58:05 7337 22 male R 1 1 1 self moralSelf J j 1 0.7620 
01-Jun-2018_14:58:07 7337 22 male R 1 1 2 self moralOther H h 1 0.9999 
01-Jun-2018_14:58:09 7337 22 male R 1 1 3 self immoralOther H h 1 0.9050 
01-Jun-2018_14:58:12 7337 22 male R 1 1 4 self moralSelf J NA -1 1.0841 
01-Jun-2018_14:58:14 7337 22 male R 1 1 5 self moralOther H h 1 0.8269 
01-Jun-2018_14:58:16 7337 22 male R 1 1 6 self moralSelf J j 1 0.5546 
01-Jun-2018_14:58:18 7337 22 male R 1 1 7 self moralOther H h 1 0.7899 
01-Jun-2018_14:58:20 7337 22 male R 1 1 8 self moralOther H h 1 0.5516 
01-Jun-2018_14:58:22 7337 22 male R 1 1 9 self immoralSelf J j 1 0.8118 
01-Jun-2018_14:58:24 7337 22 male R 1 1 10 self immoralSelf J j 1 0.7695 
01-Jun-2018_14:58:26 7337 22 male R 1 1 11 self immoralOther H h 1 0.4115 
01-Jun-2018_14:58:28 7337 22 male R 1 1 12 self immoralSelf J h 0 0.7494 
01-Jun-2018_14:58:29 7337 22 male R 1 1 13 self moralSelf J j 1 0.7269 
01-Jun-2018_14:58:31 7337 22 male R 1 1 14 self moralOther H h 1 0.5077 
01-Jun-2018_14:58:33 7337 22 male R 1 1 15 self immoralSelf J j 1 0.8546 
01-Jun-2018_14:58:35 7337 22 male R 1 1 16 self moralSelf J j 1 0.3769 
01-Jun-2018_14:58:36 7337 22 male R 1 1 17 self immoralSelf J j 1 0.4349 
01-Jun-2018_14:58:38 7337 22 male R 1 1 18 self immoralOther H h 1 0.3813 
01-Jun-2018_14:58:40 7337 22 male R 1 1 19 self moralSelf J j 1 0.9607 
01-Jun-2018_14:58:42 7337 22 male R 1 1 20 self immoralOther H h 1 0.4803 
01-Jun-2018_14:58:44 7337 22 male R 1 1 21 self immoralSelf J j 1 0.6601 
01-Jun-2018_14:58:47 7337 22 male R 1 1 22 self immoralOther H h 1 0.9590 
01-Jun-2018_14:58:49 7337 22 male R 1 1 23 self moralOther H j 0 0.6773 
01-Jun-2018_14:58:51 7337 22 male R 1 1 24 self immoralOther H h 1 0.5489 
01-Jun-2018_14:58:52 7337 22 male R 1 2 1 self immoralSelf J j 1 0.6078 
01-Jun-2018_14:58:54 7337 22 male R 1 2 2 self immoralSelf J j 1 0.4591 
01-Jun-2018_14:58:56 7337 22 male R 1 2 3 self immoralOther H h 1 0.7438 
01-Jun-2018_14:58:58 7337 22 male R 1 2 4 self moralSelf J j 1 0.4231 
01-Jun-2018_14:59:00 7337 22 male R 1 2 5 self moralOther H j 0 0.4509 
01-Jun-2018_14:59:02 7337 22 male R 1 2 6 self moralSelf J j 1 0.6845 
01-Jun-2018_14:59:04 7337 22 male R 1 2 7 self moralSelf J j 1 0.4789 
01-Jun-2018_14:59:06 7337 22 male R 1 2 8 self moralSelf J j 1 0.3938 
01-Jun-2018_14:59:07 7337 22 male R 1 2 9 self moralSelf J j 1 0.3656 
01-Jun-2018_14:59:09 7337 22 male R 1 2 10 self moralOther H h 1 0.5096 
01-Jun-2018_14:59:10 7337 22 male R 1 2 11 self immoralSelf J j 1 0.4278 
01-Jun-2018_14:59:12 7337 22 male R 1 2 12 self immoralOther H h 1 0.4556 
01-Jun-2018_14:59:14 7337 22 male R 1 2 13 self immoralOther H h 1 0.5202 
01-Jun-2018_14:59:16 7337 22 male R 1 2 14 self moralSelf J j 1 0.4972 
01-Jun-2018_14:59:17 7337 22 male R 1 2 15 self immoralOther H h 1 0.4742 
01-Jun-2018_14:59:19 7337 22 male R 1 2 16 self immoralOther H h 1 0.6027 
01-Jun-2018_14:59:21 7337 22 male R 1 2 17 self immoralOther H h 1 0.3920 
01-Jun-2018_14:59:23 7337 22 male R 1 2 18 self moralOther H j 0 0.4904 
01-Jun-2018_14:59:24 7337 22 male R 1 2 19 self moralOther H h 1 0.4226 
01-Jun-2018_14:59:26 7337 22 male R 1 2 20 self immoralSelf J j 1 0.4614 
01-Jun-2018_14:59:28 7337 22 male R 1 2 21 self moralOther H h 1 0.5594 
01-Jun-2018_14:59:30 7337 22 male R 1 2 22 self immoralSelf J j 1 0.3904 
01-Jun-2018_14:59:31 7337 22 male R 1 2 23 self moralOther H h 1 0.3440 
01-Jun-2018_14:59:33 7337 22 male R 1 2 24 self immoralSelf J j 1 0.3642 
01-Jun-2018_14:59:41 7337 22 male R 1 3 1 self immoralOther H h 1 0.5857 
01-Jun-2018_14:59:42 7337 22 male R 1 3 2 self immoralSelf J j 1 0.4752 
01-Jun-2018_14:59:45 7337 22 male R 1 3 3 self moralOther H h 1 0.6809 
01-Jun-2018_14:59:47 7337 22 male R 1 3 4 self immoralSelf J j 1 0.4843 
01-Jun-2018_14:59:48 7337 22 male R 1 3 5 self moralOther H j 0 0.4034 
01-Jun-2018_14:59:50 7337 22 male R 1 3 6 self moralSelf J j 1 0.5950 
01-Jun-2018_14:59:52 7337 22 male R 1 3 7 self moralSelf J j 1 0.3815 
01-Jun-2018_14:59:54 7337 22 male R 1 3 8 self moralOther H h 1 0.8968 
01-Jun-2018_14:59:56 7337 22 male R 1 3 9 self moralSelf J j 1 0.4804 
01-Jun-2018_14:59:58 7337 22 male R 1 3 10 self immoralSelf J j 1 0.4438 
01-Jun-2018_14:59:59 7337 22 male R 1 3 11 self immoralSelf J j 1 0.4080 
01-Jun-2018_15:00:01 7337 22 male R 1 3 12 self immoralOther H h 1 0.4669 
01-Jun-2018_15:00:03 7337 22 male R 1 3 13 self immoralOther H h 1 0.4572 
01-Jun-2018_15:00:05 7337 22 male R 1 3 14 self moralOther H j 0 0.4666 
01-Jun-2018_15:00:07 7337 22 male R 1 3 15 self immoralSelf J j 1 0.3797 
01-Jun-2018_15:00:08 7337 22 male R 1 3 16 self moralSelf J j 1 0.3839 
01-Jun-2018_15:00:10 7337 22 male R 1 3 17 self moralOther H h 1 0.5511 
01-Jun-2018_15:00:12 7337 22 male R 1 3 18 self immoralSelf J j 1 0.8240 
01-Jun-2018_15:00:14 7337 22 male R 1 3 19 self moralOther H h 1 0.6788 
01-Jun-2018_15:00:16 7337 22 male R 1 3 20 self immoralOther H h 1 0.6263 
01-Jun-2018_15:00:18 7337 22 male R 1 3 21 self immoralOther H h 1 0.4182 
01-Jun-2018_15:00:19 7337 22 male R 1 3 22 self immoralOther H h 1 0.4211 
01-Jun-2018_15:00:21 7337 22 male R 1 3 23 self moralSelf J j 1 0.3577 
01-Jun-2018_15:00:23 7337 22 male R 1 3 24 self moralSelf J j 1 0.3365 
01-Jun-2018_15:00:25 7337 22 male R 1 4 1 self moralOther H h 1 0.7037 
01-Jun-2018_15:00:27 7337 22 male R 1 4 2 self immoralOther H h 1 0.5636 
01-Jun-2018_15:00:28 7337 22 male R 1 4 3 self immoralOther H h 1 0.4116 
01-Jun-2018_15:00:30 7337 22 male R 1 4 4 self moralOther H h 1 0.6135 
01-Jun-2018_15:00:32 7337 22 male R 1 4 5 self moralSelf J j 1 0.4000 
01-Jun-2018_15:00:33 7337 22 male R 1 4 6 self immoralOther H h 1 0.4801 
01-Jun-2018_15:00:36 7337 22 male R 1 4 7 self moralOther H h 1 0.9341 
01-Jun-2018_15:00:37 7337 22 male R 1 4 8 self moralSelf J j 1 0.5343 
01-Jun-2018_15:00:39 7337 22 male R 1 4 9 self moralSelf J j 1 0.5221 
01-Jun-2018_15:00:41 7337 22 male R 1 4 10 self moralOther H h 1 0.5697 
01-Jun-2018_15:00:43 7337 22 male R 1 4 11 self moralSelf J j 1 0.5768 
01-Jun-2018_15:00:45 7337 22 male R 1 4 12 self moralOther H h 1 0.5812 
01-Jun-2018_15:00:46 7337 22 male R 1 4 13 self moralSelf J j 1 0.4066 
01-Jun-2018_15:00:48 7337 22 male R 1 4 14 self moralSelf J j 1 0.3874 
01-Jun-2018_15:00:50 7337 22 male R 1 4 15 self immoralOther H h 1 0.4215 
01-Jun-2018_15:00:52 7337 22 male R 1 4 16 self immoralSelf J j 1 0.5481 
01-Jun-2018_15:00:54 7337 22 male R 1 4 17 self immoralSelf J j 1 0.4460 
01-Jun-2018_15:00:55 7337 22 male R 1 4 18 self immoralOther H h 1 0.4771 
01-Jun-2018_15:00:57 7337 22 male R 1 4 19 self immoralSelf J j 1 0.3657 
01-Jun-2018_15:00:59 7337 22 male R 1 4 20 self immoralOther H j 0 0.7370 
01-Jun-2018_15:01:01 7337 22 male R 1 4 21 self immoralSelf J j 1 0.3423 
01-Jun-2018_15:01:02 7337 22 male R 1 4 22 self immoralSelf J j 1 0.4177 
01-Jun-2018_15:01:04 7337 22 male R 1 4 23 self immoralSelf J j 1 0.4864 
01-Jun-2018_15:01:06 7337 22 male R 1 4 24 self moralOther H h 1 0.6013 
01-Jun-2018_15:01:16 7337 22 male R 1 5 1 self immoralSelf J j 1 0.4131 
01-Jun-2018_15:01:18 7337 22 male R 1 5 2 self immoralOther H h 1 0.5316 
01-Jun-2018_15:01:20 7337 22 male R 1 5 3 self immoralOther H h 1 0.6578 
01-Jun-2018_15:01:21 7337 22 male R 1 5 4 self immoralSelf J j 1 0.4066 
01-Jun-2018_15:01:23 7337 22 male R 1 5 5 self immoralSelf J j 1 0.3799 
01-Jun-2018_15:01:25 7337 22 male R 1 5 6 self moralSelf J h 0 0.5375 
01-Jun-2018_15:01:27 7337 22 male R 1 5 7 self immoralOther H h 1 0.5212 
01-Jun-2018_15:01:29 7337 22 male R 1 5 8 self moralOther H h 1 0.5533 
01-Jun-2018_15:01:30 7337 22 male R 1 5 9 self immoralSelf J j 1 0.6207 
01-Jun-2018_15:01:32 7337 22 male R 1 5 10 self moralSelf J j 1 0.3722 
01-Jun-2018_15:01:34 7337 22 male R 1 5 11 self immoralSelf J j 1 0.4053 
01-Jun-2018_15:01:36 7337 22 male R 1 5 12 self immoralOther H h 1 0.4914 
01-Jun-2018_15:01:38 7337 22 male R 1 5 13 self immoralOther H h 1 0.5729 
01-Jun-2018_15:01:40 7337 22 male R 1 5 14 self moralOther H h 1 0.9410 
01-Jun-2018_15:01:42 7337 22 male R 1 5 15 self immoralSelf J j 1 0.3966 
01-Jun-2018_15:01:43 7337 22 male R 1 5 16 self moralSelf J j 1 0.3053 
01-Jun-2018_15:01:45 7337 22 male R 1 5 17 self immoralOther H h 1 0.4654 
01-Jun-2018_15:01:47 7337 22 male R 1 5 18 self moralSelf J j 1 0.7737 
01-Jun-2018_15:01:49 7337 22 male R 1 5 19 self moralSelf J j 1 0.3371 
01-Jun-2018_15:01:51 7337 22 male R 1 5 20 self moralOther H h 1 0.7131 
01-Jun-2018_15:01:53 7337 22 male R 1 5 21 self moralOther H NA -1 1.0841 
01-Jun-2018_15:01:55 7337 22 male R 1 5 22 self moralOther H j 0 0.4875 
01-Jun-2018_15:01:56 7337 22 male R 1 5 23 self moralOther H j 0 0.3469 
01-Jun-2018_15:01:58 7337 22 male R 1 5 24 self moralSelf J j 1 0.5549 
Date Sub Age Sex Hand Block Bin Trial Task Shape corrResp Resp ACC RT
01-Jun-2018_15:04:14 7337 22 male R 2 1 1 moral immoralSelf Y y 1 1.0805 
01-Jun-2018_15:04:16 7337 22 male R 2 1 2 moral moralSelf U u 1 0.8059 
01-Jun-2018_15:04:18 7337 22 male R 2 1 3 moral moralSelf U u 1 0.4738 
01-Jun-2018_15:04:20 7337 22 male R 2 1 4 moral immoralOther Y y 1 0.8046 
01-Jun-2018_15:04:21 7337 22 male R 2 1 5 moral moralOther U u 1 0.5666 
01-Jun-2018_15:04:24 7337 22 male R 2 1 6 moral immoralSelf Y y 1 1.0678 
01-Jun-2018_15:04:26 7337 22 male R 2 1 7 moral immoralSelf Y y 1 0.5273 
01-Jun-2018_15:04:27 7337 22 male R 2 1 8 moral moralSelf U u 1 0.5852 
01-Jun-2018_15:04:30 7337 22 male R 2 1 9 moral immoralOther Y y 1 0.7815 
01-Jun-2018_15:04:32 7337 22 male R 2 1 10 moral moralOther U u 1 0.9299 
01-Jun-2018_15:04:34 7337 22 male R 2 1 11 moral moralOther U u 1 0.9281 
01-Jun-2018_15:04:36 7337 22 male R 2 1 12 moral moralSelf U y 0 1.0627 
01-Jun-2018_15:04:38 7337 22 male R 2 1 13 moral immoralSelf Y y 1 0.7649 
01-Jun-2018_15:04:40 7337 22 male R 2 1 14 moral immoralOther Y y 1 0.5245 
01-Jun-2018_15:04:42 7337 22 male R 2 1 15 moral immoralSelf Y y 1 0.5829 
01-Jun-2018_15:04:44 7337 22 male R 2 1 16 moral moralSelf U u 1 0.3901 
01-Jun-2018_15:04:46 7337 22 male R 2 1 17 moral immoralSelf Y y 1 0.6626 
01-Jun-2018_15:04:48 7337 22 male R 2 1 18 moral moralOther U u 1 0.4472 
01-Jun-2018_15:04:50 7337 22 male R 2 1 19 moral immoralOther Y y 1 0.7259 
01-Jun-2018_15:04:52 7337 22 male R 2 1 20 moral moralSelf U u 1 0.4845 
01-Jun-2018_15:04:54 7337 22 male R 2 1 21 moral moralOther U u 1 0.7895 
01-Jun-2018_15:04:55 7337 22 male R 2 1 22 moral immoralOther Y y 1 0.3707 
01-Jun-2018_15:04:57 7337 22 male R 2 1 23 moral moralOther U y 0 0.3864 
01-Jun-2018_15:04:59 7337 22 male R 2 1 24 moral immoralOther Y y 1 0.8684 
01-Jun-2018_15:05:00 7337 22 male R 2 2 1 moral moralOther U u 1 0.3507 
01-Jun-2018_15:05:02 7337 22 male R 2 2 2 moral moralOther U u 1 0.4073 
01-Jun-2018_15:05:04 7337 22 male R 2 2 3 moral moralSelf U u 1 0.4568 
01-Jun-2018_15:05:05 7337 22 male R 2 2 4 moral moralSelf U u 1 0.3877 
01-Jun-2018_15:05:07 7337 22 male R 2 2 5 moral immoralSelf Y y 1 0.4733 
01-Jun-2018_15:05:09 7337 22 male R 2 2 6 moral immoralSelf Y y 1 0.5590 
01-Jun-2018_15:05:11 7337 22 male R 2 2 7 moral immoralSelf Y y 1 0.3822 
01-Jun-2018_15:05:12 7337 22 male R 2 2 8 moral moralSelf U u 1 0.3945 
01-Jun-2018_15:05:14 7337 22 male R 2 2 9 moral immoralSelf Y y 1 0.5517 
01-Jun-2018_15:05:16 7337 22 male R 2 2 10 moral moralOther U u 1 0.4370 
01-Jun-2018_15:05:18 7337 22 male R 2 2 11 moral immoralOther Y y 1 0.7872 
01-Jun-2018_15:05:20 7337 22 male R 2 2 12 moral moralOther U u 1 0.7741 
01-Jun-2018_15:05:22 7337 22 male R 2 2 13 moral immoralOther Y y 1 0.5431 
01-Jun-2018_15:05:24 7337 22 male R 2 2 14 moral immoralOther Y y 1 0.5154 
01-Jun-2018_15:05:25 7337 22 male R 2 2 15 moral moralSelf U u 1 0.3399 
01-Jun-2018_15:05:27 7337 22 male R 2 2 16 moral moralSelf U u 1 0.3348 
01-Jun-2018_15:05:29 7337 22 male R 2 2 17 moral immoralSelf Y y 1 0.4906 
01-Jun-2018_15:05:30 7337 22 male R 2 2 18 moral immoralOther Y u 0 0.3552 
01-Jun-2018_15:05:32 7337 22 male R 2 2 19 moral immoralOther Y y 1 0.3558 
01-Jun-2018_15:05:33 7337 22 male R 2 2 20 moral moralSelf U u 1 0.3770 
01-Jun-2018_15:05:35 7337 22 male R 2 2 21 moral immoralSelf Y y 1 0.4142 
01-Jun-2018_15:05:37 7337 22 male R 2 2 22 moral moralOther U u 1 0.4966 
01-Jun-2018_15:05:39 7337 22 male R 2 2 23 moral moralOther U u 1 0.6153 
01-Jun-2018_15:05:41 7337 22 male R 2 2 24 moral immoralOther Y y 1 0.6092 
01-Jun-2018_15:05:53 7337 22 male R 2 3 1 moral moralSelf U u 1 0.6017 
01-Jun-2018_15:05:55 7337 22 male R 2 3 2 moral moralOther U NA -1 1.0841 
01-Jun-2018_15:05:57 7337 22 male R 2 3 3 moral immoralSelf Y y 1 0.8095 
01-Jun-2018_15:05:59 7337 22 male R 2 3 4 moral moralOther U u 1 0.5550 
01-Jun-2018_15:06:01 7337 22 male R 2 3 5 moral moralSelf U u 1 0.4773 
01-Jun-2018_15:06:03 7337 22 male R 2 3 6 moral immoralSelf Y y 1 0.5456 
01-Jun-2018_15:06:04 7337 22 male R 2 3 7 moral immoralOther Y y 1 0.6648 
01-Jun-2018_15:06:06 7337 22 male R 2 3 8 moral immoralOther Y y 1 0.4389 
01-Jun-2018_15:06:07 7337 22 male R 2 3 9 moral immoralOther Y y 1 0.3840 
01-Jun-2018_15:06:09 7337 22 male R 2 3 10 moral immoralSelf Y y 1 0.9073 
01-Jun-2018_15:06:11 7337 22 male R 2 3 11 moral immoralSelf Y y 1 0.7045 
01-Jun-2018_15:06:13 7337 22 male R 2 3 12 moral immoralOther Y y 1 0.4910 
01-Jun-2018_15:06:14 7337 22 male R 2 3 13 moral immoralOther Y y 1 0.4670 
01-Jun-2018_15:06:16 7337 22 male R 2 3 14 moral immoralOther Y y 1 0.3179 
01-Jun-2018_15:06:17 7337 22 male R 2 3 15 moral immoralSelf Y y 1 0.5434 
01-Jun-2018_15:06:19 7337 22 male R 2 3 16 moral moralSelf U u 1 0.4244 
01-Jun-2018_15:06:21 7337 22 male R 2 3 17 moral moralOther U u 1 0.6626 
01-Jun-2018_15:06:23 7337 22 male R 2 3 18 moral moralSelf U u 1 0.3902 
01-Jun-2018_15:06:25 7337 22 male R 2 3 19 moral moralOther U u 1 0.7234 
01-Jun-2018_15:06:27 7337 22 male R 2 3 20 moral immoralSelf Y y 1 0.7235 
01-Jun-2018_15:06:28 7337 22 male R 2 3 21 moral moralSelf U u 1 0.3726 
01-Jun-2018_15:06:30 7337 22 male R 2 3 22 moral moralOther U u 1 0.6211 
01-Jun-2018_15:06:32 7337 22 male R 2 3 23 moral moralSelf U u 1 0.4376 
01-Jun-2018_15:06:34 7337 22 male R 2 3 24 moral moralOther U u 1 0.5920 
01-Jun-2018_15:06:35 7337 22 male R 2 4 1 moral moralOther U u 1 0.4589 
01-Jun-2018_15:06:37 7337 22 male R 2 4 2 moral moralOther U u 1 0.4863 
01-Jun-2018_15:06:39 7337 22 male R 2 4 3 moral immoralOther Y y 1 0.6036 
01-Jun-2018_15:06:41 7337 22 male R 2 4 4 moral immoralSelf Y y 1 0.5566 
01-Jun-2018_15:06:43 7337 22 male R 2 4 5 moral moralOther U u 1 0.5364 
01-Jun-2018_15:06:45 7337 22 male R 2 4 6 moral immoralSelf Y y 1 0.7365 
01-Jun-2018_15:06:46 7337 22 male R 2 4 7 moral immoralOther Y y 1 0.5717 
01-Jun-2018_15:06:48 7337 22 male R 2 4 8 moral moralSelf U u 1 0.4769 
01-Jun-2018_15:06:50 7337 22 male R 2 4 9 moral moralSelf U u 1 0.3499 
01-Jun-2018_15:06:52 7337 22 male R 2 4 10 moral moralOther U u 1 0.6511 
01-Jun-2018_15:06:53 7337 22 male R 2 4 11 moral immoralOther Y y 1 0.5199 
01-Jun-2018_15:06:55 7337 22 male R 2 4 12 moral immoralSelf Y y 1 0.4644 
01-Jun-2018_15:06:56 7337 22 male R 2 4 13 moral immoralOther Y y 1 0.4292 
01-Jun-2018_15:06:58 7337 22 male R 2 4 14 moral moralSelf U u 1 0.3459 
01-Jun-2018_15:07:00 7337 22 male R 2 4 15 moral immoralSelf Y y 1 0.5587 
01-Jun-2018_15:07:01 7337 22 male R 2 4 16 moral immoralSelf Y y 1 0.4026 
01-Jun-2018_15:07:03 7337 22 male R 2 4 17 moral immoralOther Y y 1 0.4765 
01-Jun-2018_15:07:04 7337 22 male R 2 4 18 moral immoralOther Y y 1 0.3730 
01-Jun-2018_15:07:06 7337 22 male R 2 4 19 moral moralOther U u 1 0.5153 
01-Jun-2018_15:07:08 7337 22 male R 2 4 20 moral moralSelf U u 1 0.4645 
01-Jun-2018_15:07:10 7337 22 male R 2 4 21 moral moralOther U y 0 0.5196 
01-Jun-2018_15:07:12 7337 22 male R 2 4 22 moral moralSelf U u 1 0.4759 
01-Jun-2018_15:07:14 7337 22 male R 2 4 23 moral immoralSelf Y y 1 0.4430 
01-Jun-2018_15:07:15 7337 22 male R 2 4 24 moral moralSelf U u 1 0.5203 
01-Jun-2018_15:07:29 7337 22 male R 2 5 1 moral moralSelf U u 1 0.4728 
01-Jun-2018_15:07:31 7337 22 male R 2 5 2 moral moralOther U u 1 0.6056 
01-Jun-2018_15:07:33 7337 22 male R 2 5 3 moral immoralSelf Y y 1 0.6086 
01-Jun-2018_15:07:35 7337 22 male R 2 5 4 moral moralSelf U u 1 0.5290 
01-Jun-2018_15:07:36 7337 22 male R 2 5 5 moral moralSelf U u 1 0.4053 
01-Jun-2018_15:07:38 7337 22 male R 2 5 6 moral moralSelf U u 1 0.6125 
01-Jun-2018_15:07:40 7337 22 male R 2 5 7 moral immoralSelf Y y 1 0.4746 
01-Jun-2018_15:07:42 7337 22 male R 2 5 8 moral immoralOther Y NA -1 1.0841 
01-Jun-2018_15:07:44 7337 22 male R 2 5 9 moral moralSelf U u 1 0.2875 
01-Jun-2018_15:07:46 7337 22 male R 2 5 10 moral immoralOther Y y 1 0.4457 
01-Jun-2018_15:07:47 7337 22 male R 2 5 11 moral immoralSelf Y y 1 0.4618 
01-Jun-2018_15:07:49 7337 22 male R 2 5 12 moral moralOther U u 1 0.5437 
01-Jun-2018_15:07:51 7337 22 male R 2 5 13 moral immoralOther Y y 1 0.6007 
01-Jun-2018_15:07:53 7337 22 male R 2 5 14 moral moralSelf U u 1 0.3937 
01-Jun-2018_15:07:55 7337 22 male R 2 5 15 moral immoralSelf Y y 1 0.6423 
01-Jun-2018_15:07:57 7337 22 male R 2 5 16 moral moralOther U u 1 0.5013 
01-Jun-2018_15:07:58 7337 22 male R 2 5 17 moral moralOther U u 1 0.3982 
01-Jun-2018_15:08:00 7337 22 male R 2 5 18 moral moralOther U u 1 0.3419 
01-Jun-2018_15:08:02 7337 22 male R 2 5 19 moral immoralSelf Y y 1 0.8355 
01-Jun-2018_15:08:04 7337 22 male R 2 5 20 moral immoralSelf Y y 1 0.6639 
01-Jun-2018_15:08:06 7337 22 male R 2 5 21 moral immoralOther Y y 1 0.4531 
01-Jun-2018_15:08:08 7337 22 male R 2 5 22 moral moralOther U NA -1 1.0841 
01-Jun-2018_15:08:10 7337 22 male R 2 5 23 moral immoralOther Y y 1 0.9154 
01-Jun-2018_15:08:12 7337 22 male R 2 5 24 moral immoralOther Y y 1 0.4867 
Date Sub Age Sex Hand Block Bin Trial Task Shape corrResp Resp ACC RT
01-Jun-2018_15:10:25 7337 22 male R 3 1 1 moral immoralSelf Y y 1 0.7794 
01-Jun-2018_15:10:27 7337 22 male R 3 1 2 moral moralOther U u 1 0.6807 
01-Jun-2018_15:10:29 7337 22 male R 3 1 3 moral moralOther U u 1 0.4836 
01-Jun-2018_15:10:31 7337 22 male R 3 1 4 moral immoralSelf Y y 1 0.5679 
01-Jun-2018_15:10:33 7337 22 male R 3 1 5 moral moralOther U u 1 0.5275 
01-Jun-2018_15:10:34 7337 22 male R 3 1 6 moral moralSelf U u 1 0.5295 
01-Jun-2018_15:10:36 7337 22 male R 3 1 7 moral immoralSelf Y y 1 0.5381 
01-Jun-2018_15:10:38 7337 22 male R 3 1 8 moral moralSelf U u 1 0.5447 
01-Jun-2018_15:10:40 7337 22 male R 3 1 9 moral moralSelf U u 1 0.4380 
01-Jun-2018_15:10:42 7337 22 male R 3 1 10 moral immoralOther Y y 1 0.4926 
01-Jun-2018_15:10:44 7337 22 male R 3 1 11 moral immoralOther Y y 1 0.4522 
01-Jun-2018_15:10:45 7337 22 male R 3 1 12 moral immoralOther Y y 1 0.2871 
01-Jun-2018_15:10:47 7337 22 male R 3 1 13 moral moralSelf U u 1 0.4062 
01-Jun-2018_15:10:49 7337 22 male R 3 1 14 moral immoralSelf Y y 1 0.6269 
01-Jun-2018_15:10:50 7337 22 male R 3 1 15 moral moralSelf U u 1 0.3028 
01-Jun-2018_15:10:52 7337 22 male R 3 1 16 moral immoralOther Y y 1 0.3909 
01-Jun-2018_15:10:54 7337 22 male R 3 1 17 moral moralOther U u 1 0.4244 
01-Jun-2018_15:10:55 7337 22 male R 3 1 18 moral moralSelf U u 1 0.3463 
01-Jun-2018_15:10:57 7337 22 male R 3 1 19 moral moralOther U u 1 0.3469 
01-Jun-2018_15:10:59 7337 22 male R 3 1 20 moral immoralOther Y y 1 0.4185 
01-Jun-2018_15:11:00 7337 22 male R 3 1 21 moral immoralOther Y y 1 0.3724 
01-Jun-2018_15:11:02 7337 22 male R 3 1 22 moral moralOther U u 1 0.4312 
01-Jun-2018_15:11:04 7337 22 male R 3 1 23 moral immoralSelf Y y 1 0.7042 
01-Jun-2018_15:11:05 7337 22 male R 3 1 24 moral immoralSelf Y y 1 0.3547 
01-Jun-2018_15:11:07 7337 22 male R 3 2 1 moral moralOther U u 1 0.4395 
01-Jun-2018_15:11:09 7337 22 male R 3 2 2 moral moralSelf U u 1 0.4357 
01-Jun-2018_15:11:11 7337 22 male R 3 2 3 moral immoralOther Y y 1 0.4269 
01-Jun-2018_15:11:12 7337 22 male R 3 2 4 moral moralSelf U u 1 0.3488 
01-Jun-2018_15:11:14 7337 22 male R 3 2 5 moral moralSelf U u 1 0.3149 
01-Jun-2018_15:11:16 7337 22 male R 3 2 6 moral immoralSelf Y y 1 0.5974 
01-Jun-2018_15:11:18 7337 22 male R 3 2 7 moral immoralOther Y y 1 0.4093 
01-Jun-2018_15:11:20 7337 22 male R 3 2 8 moral moralOther U u 1 0.4474 
01-Jun-2018_15:11:21 7337 22 male R 3 2 9 moral moralOther U u 1 0.4541 
01-Jun-2018_15:11:23 7337 22 male R 3 2 10 moral immoralSelf Y y 1 0.7568 
01-Jun-2018_15:11:25 7337 22 male R 3 2 11 moral immoralSelf Y y 1 0.3433 
01-Jun-2018_15:11:26 7337 22 male R 3 2 12 moral immoralSelf Y y 1 0.3951 
01-Jun-2018_15:11:27 7337 22 male R 3 2 13 moral immoralSelf Y y 1 0.1490 
01-Jun-2018_15:11:29 7337 22 male R 3 2 14 moral immoralOther Y y 1 0.5251 
01-Jun-2018_15:11:31 7337 22 male R 3 2 15 moral moralOther U u 1 0.4723 
01-Jun-2018_15:11:32 7337 22 male R 3 2 16 moral immoralOther Y y 1 0.4262 
01-Jun-2018_15:11:34 7337 22 male R 3 2 17 moral immoralOther Y y 1 0.3963 
01-Jun-2018_15:11:36 7337 22 male R 3 2 18 moral moralSelf U u 1 0.4269 
01-Jun-2018_15:11:37 7337 22 male R 3 2 19 moral moralSelf U u 1 0.3596 
01-Jun-2018_15:11:39 7337 22 male R 3 2 20 moral immoralSelf Y y 1 0.4995 
01-Jun-2018_15:11:40 7337 22 male R 3 2 21 moral moralSelf U u 1 0.3759 
01-Jun-2018_15:11:42 7337 22 male R 3 2 22 moral moralOther U u 1 0.4324 
01-Jun-2018_15:11:43 7337 22 male R 3 2 23 moral moralOther U u 1 0.3387 
01-Jun-2018_15:11:45 7337 22 male R 3 2 24 moral immoralOther Y y 1 0.3741 
01-Jun-2018_15:11:52 7337 22 male R 3 3 1 moral moralSelf U u 1 0.3598 
01-Jun-2018_15:11:53 7337 22 male R 3 3 2 moral immoralOther Y y 1 0.4197 
01-Jun-2018_15:11:55 7337 22 male R 3 3 3 moral moralOther U u 1 0.3332 
01-Jun-2018_15:11:57 7337 22 male R 3 3 4 moral immoralSelf Y y 1 0.5120 
01-Jun-2018_15:11:58 7337 22 male R 3 3 5 moral moralSelf U u 1 0.3163 
01-Jun-2018_15:12:00 7337 22 male R 3 3 6 moral immoralSelf Y y 1 0.4053 
01-Jun-2018_15:12:02 7337 22 male R 3 3 7 moral moralOther U u 1 0.3880 
01-Jun-2018_15:12:03 7337 22 male R 3 3 8 moral immoralOther Y y 1 0.4633 
01-Jun-2018_15:12:05 7337 22 male R 3 3 9 moral moralOther U u 1 0.5528 
01-Jun-2018_15:12:07 7337 22 male R 3 3 10 moral moralSelf U u 1 0.4263 
01-Jun-2018_15:12:09 7337 22 male R 3 3 11 moral immoralSelf Y y 1 0.6169 
01-Jun-2018_15:12:11 7337 22 male R 3 3 12 moral immoralOther Y y 1 0.4829 
01-Jun-2018_15:12:12 7337 22 male R 3 3 13 moral moralSelf U u 1 0.2872 
01-Jun-2018_15:12:14 7337 22 male R 3 3 14 moral moralSelf U u 1 0.2454 
01-Jun-2018_15:12:15 7337 22 male R 3 3 15 moral immoralSelf Y y 1 0.4248 
01-Jun-2018_15:12:17 7337 22 male R 3 3 16 moral immoralSelf Y y 1 0.4667 
01-Jun-2018_15:12:19 7337 22 male R 3 3 17 moral moralOther U u 1 0.3604 
01-Jun-2018_15:12:20 7337 22 male R 3 3 18 moral immoralOther Y y 1 0.4848 
01-Jun-2018_15:12:22 7337 22 male R 3 3 19 moral immoralOther Y y 1 0.4203 
01-Jun-2018_15:12:23 7337 22 male R 3 3 20 moral moralSelf U u 1 0.3206 
01-Jun-2018_15:12:25 7337 22 male R 3 3 21 moral moralOther U u 1 0.4134 
01-Jun-2018_15:12:27 7337 22 male R 3 3 22 moral immoralOther Y y 1 0.5344 
01-Jun-2018_15:12:29 7337 22 male R 3 3 23 moral immoralSelf Y y 1 0.6229 
01-Jun-2018_15:12:30 7337 22 male R 3 3 24 moral moralOther U u 1 0.3410 
01-Jun-2018_15:12:32 7337 22 male R 3 4 1 moral immoralOther Y y 1 0.3929 
01-Jun-2018_15:12:34 7337 22 male R 3 4 2 moral moralSelf U u 1 0.5934 
01-Jun-2018_15:12:35 7337 22 male R 3 4 3 moral moralSelf U u 1 0.2952 
01-Jun-2018_15:12:37 7337 22 male R 3 4 4 moral immoralOther Y y 1 0.3300 
01-Jun-2018_15:12:39 7337 22 male R 3 4 5 moral immoralSelf Y y 1 0.4233 
01-Jun-2018_15:12:41 7337 22 male R 3 4 6 moral moralOther U u 1 0.3414 
01-Jun-2018_15:12:43 7337 22 male R 3 4 7 moral immoralOther Y y 1 0.4451 
01-Jun-2018_15:12:44 7337 22 male R 3 4 8 moral immoralSelf Y y 1 0.4753 
01-Jun-2018_15:12:46 7337 22 male R 3 4 9 moral immoralSelf Y y 1 0.3789 
01-Jun-2018_15:12:48 7337 22 male R 3 4 10 moral moralSelf U u 1 0.4086 
01-Jun-2018_15:12:49 7337 22 male R 3 4 11 moral moralSelf U u 1 0.2859 
01-Jun-2018_15:12:51 7337 22 male R 3 4 12 moral immoralOther Y y 1 0.4403 
01-Jun-2018_15:12:53 7337 22 male R 3 4 13 moral moralOther U u 1 0.3783 
01-Jun-2018_15:12:54 7337 22 male R 3 4 14 moral immoralOther Y y 1 0.3943 
01-Jun-2018_15:12:56 7337 22 male R 3 4 15 moral immoralOther Y y 1 0.4027 
01-Jun-2018_15:12:57 7337 22 male R 3 4 16 moral moralOther U u 1 0.4386 
01-Jun-2018_15:12:59 7337 22 male R 3 4 17 moral moralOther U u 1 0.3093 
01-Jun-2018_15:13:01 7337 22 male R 3 4 18 moral immoralSelf Y y 1 0.4570 
01-Jun-2018_15:13:02 7337 22 male R 3 4 19 moral immoralSelf Y u 0 0.2487 
01-Jun-2018_15:13:04 7337 22 male R 3 4 20 moral immoralSelf Y y 1 0.4205 
01-Jun-2018_15:13:05 7337 22 male R 3 4 21 moral moralOther U u 1 0.3805 
01-Jun-2018_15:13:07 7337 22 male R 3 4 22 moral moralSelf U u 1 0.4564 
01-Jun-2018_15:13:09 7337 22 male R 3 4 23 moral moralSelf U u 1 0.5101 
01-Jun-2018_15:13:10 7337 22 male R 3 4 24 moral moralOther U u 1 0.4326 
01-Jun-2018_15:13:13 7337 22 male R 3 5 1 moral immoralSelf Y y 1 0.6171 
01-Jun-2018_15:13:15 7337 22 male R 3 5 2 moral moralOther U u 1 0.4812 
01-Jun-2018_15:13:17 7337 22 male R 3 5 3 moral moralSelf U u 1 0.2610 
01-Jun-2018_15:13:18 7337 22 male R 3 5 4 moral moralSelf U u 1 0.2569 
01-Jun-2018_15:13:20 7337 22 male R 3 5 5 moral moralOther U y 0 0.3397 
01-Jun-2018_15:13:22 7337 22 male R 3 5 6 moral moralSelf U u 1 0.3873 
01-Jun-2018_15:13:23 7337 22 male R 3 5 7 moral immoralSelf Y y 1 0.4109 
01-Jun-2018_15:13:25 7337 22 male R 3 5 8 moral moralSelf U u 1 0.3376 
01-Jun-2018_15:13:27 7337 22 male R 3 5 9 moral moralSelf U u 1 0.3051 
01-Jun-2018_15:13:29 7337 22 male R 3 5 10 moral immoralSelf Y u 0 0.4295 
01-Jun-2018_15:13:30 7337 22 male R 3 5 11 moral moralOther U u 1 0.3637 
01-Jun-2018_15:13:32 7337 22 male R 3 5 12 moral immoralOther Y y 1 0.4875 
01-Jun-2018_15:13:34 7337 22 male R 3 5 13 moral moralSelf U u 1 0.7294 
01-Jun-2018_15:13:35 7337 22 male R 3 5 14 moral immoralSelf Y y 1 0.4458 
01-Jun-2018_15:13:37 7337 22 male R 3 5 15 moral moralOther U u 1 0.3531 
01-Jun-2018_15:13:38 7337 22 male R 3 5 16 moral immoralOther Y y 1 0.3908 
01-Jun-2018_15:13:40 7337 22 male R 3 5 17 moral moralOther U u 1 0.2822 
01-Jun-2018_15:13:42 7337 22 male R 3 5 18 moral immoralSelf Y y 1 0.4850 
01-Jun-2018_15:13:44 7337 22 male R 3 5 19 moral immoralOther Y y 1 0.4705 
01-Jun-2018_15:13:45 7337 22 male R 3 5 20 moral immoralOther Y y 1 0.3878 
01-Jun-2018_15:13:47 7337 22 male R 3 5 21 moral immoralOther Y y 1 0.3093 
01-Jun-2018_15:13:49 7337 22 male R 3 5 22 moral moralOther U u 1 0.3911 
01-Jun-2018_15:13:50 7337 22 male R 3 5 23 moral immoralSelf Y y 1 0.5118 
01-Jun-2018_15:13:52 7337 22 male R 3 5 24 moral immoralOther Y y 1 0.4318 
Date Sub Age Sex Hand Block Bin Trial Task Shape corrResp Resp ACC RT
01-Jun-2018_15:16:09 7337 22 male R 4 1 1 self moralOther H NA -1 1.0841 
01-Jun-2018_15:16:11 7337 22 male R 4 1 2 self moralSelf J j 1 0.5830 
01-Jun-2018_15:16:13 7337 22 male R 4 1 3 self moralOther H h 1 0.6942 
01-Jun-2018_15:16:15 7337 22 male R 4 1 4 self moralOther H NA -1 1.0841 
01-Jun-2018_15:16:17 7337 22 male R 4 1 5 self immoralOther H h 1 0.9899 
01-Jun-2018_15:16:18 7337 22 male R 4 1 6 self moralOther H h 1 0.4531 
01-Jun-2018_15:16:20 7337 22 male R 4 1 7 self immoralOther H h 1 0.6207 
01-Jun-2018_15:16:22 7337 22 male R 4 1 8 self immoralOther H h 1 0.3920 
01-Jun-2018_15:16:24 7337 22 male R 4 1 9 self immoralSelf J j 1 0.6048 
01-Jun-2018_15:16:25 7337 22 male R 4 1 10 self immoralOther H h 1 0.3879 
01-Jun-2018_15:16:27 7337 22 male R 4 1 11 self immoralSelf J h 0 0.5987 
01-Jun-2018_15:16:29 7337 22 male R 4 1 12 self moralSelf J j 1 0.4680 
01-Jun-2018_15:16:31 7337 22 male R 4 1 13 self immoralOther H h 1 0.4582 
01-Jun-2018_15:16:32 7337 22 male R 4 1 14 self moralSelf J j 1 0.3072 
01-Jun-2018_15:16:34 7337 22 male R 4 1 15 self immoralSelf J j 1 0.3797 
01-Jun-2018_15:16:36 7337 22 male R 4 1 16 self immoralOther H h 1 0.2716 
01-Jun-2018_15:16:37 7337 22 male R 4 1 17 self immoralSelf J j 1 0.2985 
01-Jun-2018_15:16:39 7337 22 male R 4 1 18 self immoralSelf J j 1 0.3546 
01-Jun-2018_15:16:41 7337 22 male R 4 1 19 self immoralSelf J j 1 0.4704 
01-Jun-2018_15:16:42 7337 22 male R 4 1 20 self moralOther H h 1 0.3805 
01-Jun-2018_15:16:44 7337 22 male R 4 1 21 self moralSelf J j 1 0.4771 
01-Jun-2018_15:16:46 7337 22 male R 4 1 22 self moralSelf J j 1 0.5101 
01-Jun-2018_15:16:47 7337 22 male R 4 1 23 self moralSelf J j 1 0.4028 
01-Jun-2018_15:16:49 7337 22 male R 4 1 24 self moralOther H h 1 0.2974 
01-Jun-2018_15:16:51 7337 22 male R 4 2 1 self immoralSelf J j 1 0.5456 
01-Jun-2018_15:16:52 7337 22 male R 4 2 2 self moralSelf J j 1 0.4290 
01-Jun-2018_15:16:54 7337 22 male R 4 2 3 self moralSelf J j 1 0.3593 
01-Jun-2018_15:16:55 7337 22 male R 4 2 4 self moralSelf J j 1 0.3702 
01-Jun-2018_15:16:57 7337 22 male R 4 2 5 self moralOther H h 1 0.3175 
01-Jun-2018_15:16:59 7337 22 male R 4 2 6 self immoralOther H h 1 0.3817 
01-Jun-2018_15:17:00 7337 22 male R 4 2 7 self immoralOther H h 1 0.2697 
01-Jun-2018_15:17:02 7337 22 male R 4 2 8 self moralSelf J j 1 0.5638 
01-Jun-2018_15:17:04 7337 22 male R 4 2 9 self immoralSelf J j 1 0.6538 
01-Jun-2018_15:17:06 7337 22 male R 4 2 10 self immoralOther H h 1 0.3405 
01-Jun-2018_15:17:08 7337 22 male R 4 2 11 self immoralSelf J j 1 0.6902 
01-Jun-2018_15:17:10 7337 22 male R 4 2 12 self moralOther H h 1 0.6075 
01-Jun-2018_15:17:12 7337 22 male R 4 2 13 self moralOther H h 1 0.5487 
01-Jun-2018_15:17:13 7337 22 male R 4 2 14 self immoralSelf J j 1 0.7008 
01-Jun-2018_15:17:15 7337 22 male R 4 2 15 self immoralSelf J j 1 0.3272 
01-Jun-2018_15:17:16 7337 22 male R 4 2 16 self immoralOther H h 1 0.4011 
01-Jun-2018_15:17:18 7337 22 male R 4 2 17 self immoralOther H h 1 0.2713 
01-Jun-2018_15:17:20 7337 22 male R 4 2 18 self moralSelf J j 1 0.6225 
01-Jun-2018_15:17:22 7337 22 male R 4 2 19 self moralOther H h 1 0.7279 
01-Jun-2018_15:17:24 7337 22 male R 4 2 20 self moralOther H h 1 0.6767 
01-Jun-2018_15:17:26 7337 22 male R 4 2 21 self moralOther H h 1 0.5088 
01-Jun-2018_15:17:28 7337 22 male R 4 2 22 self immoralOther H h 1 0.5258 
01-Jun-2018_15:17:29 7337 22 male R 4 2 23 self immoralSelf J j 1 0.4172 
01-Jun-2018_15:17:31 7337 22 male R 4 2 24 self moralSelf J j 1 0.3504 
01-Jun-2018_15:17:36 7337 22 male R 4 3 1 self moralOther H j 0 0.7788 
01-Jun-2018_15:17:38 7337 22 male R 4 3 2 self moralOther H h 1 0.4307 
01-Jun-2018_15:17:40 7337 22 male R 4 3 3 self immoralSelf J j 1 0.4943 
01-Jun-2018_15:17:41 7337 22 male R 4 3 4 self immoralOther H h 1 0.4709 
01-Jun-2018_15:17:43 7337 22 male R 4 3 5 self immoralOther H h 1 0.6798 
01-Jun-2018_15:17:45 7337 22 male R 4 3 6 self immoralOther H h 1 0.3463 
01-Jun-2018_15:17:47 7337 22 male R 4 3 7 self moralSelf J j 1 0.6216 
01-Jun-2018_15:17:49 7337 22 male R 4 3 8 self moralOther H j 0 0.3483 
01-Jun-2018_15:17:50 7337 22 male R 4 3 9 self moralSelf J j 1 0.4293 
01-Jun-2018_15:17:52 7337 22 male R 4 3 10 self moralSelf J j 1 0.3409 
01-Jun-2018_15:17:54 7337 22 male R 4 3 11 self moralOther H h 1 0.5630 
01-Jun-2018_15:17:56 7337 22 male R 4 3 12 self immoralSelf J j 1 0.6107 
01-Jun-2018_15:17:58 7337 22 male R 4 3 13 self immoralOther H h 1 0.4518 
01-Jun-2018_15:17:59 7337 22 male R 4 3 14 self immoralSelf J j 1 0.6414 
01-Jun-2018_15:18:01 7337 22 male R 4 3 15 self immoralSelf J j 1 0.4871 
01-Jun-2018_15:18:03 7337 22 male R 4 3 16 self moralOther H j 0 0.3959 
01-Jun-2018_15:18:05 7337 22 male R 4 3 17 self immoralSelf J j 1 0.5908 
01-Jun-2018_15:18:07 7337 22 male R 4 3 18 self moralSelf J j 1 0.5000 
01-Jun-2018_15:18:09 7337 22 male R 4 3 19 self moralSelf J j 1 0.3994 
01-Jun-2018_15:18:10 7337 22 male R 4 3 20 self moralSelf J j 1 0.3713 
01-Jun-2018_15:18:12 7337 22 male R 4 3 21 self immoralSelf J j 1 0.5294 
01-Jun-2018_15:18:14 7337 22 male R 4 3 22 self moralOther H h 1 0.7794 
01-Jun-2018_15:18:15 7337 22 male R 4 3 23 self immoralOther H h 1 0.5367 
01-Jun-2018_15:18:17 7337 22 male R 4 3 24 self immoralOther H h 1 0.4609 
01-Jun-2018_15:18:19 7337 22 male R 4 4 1 self moralSelf J j 1 0.4643 
01-Jun-2018_15:18:21 7337 22 male R 4 4 2 self immoralSelf J j 1 0.4596 
01-Jun-2018_15:18:22 7337 22 male R 4 4 3 self immoralSelf J j 1 0.3562 
01-Jun-2018_15:18:24 7337 22 male R 4 4 4 self immoralSelf J j 1 0.3403 
01-Jun-2018_15:18:25 7337 22 male R 4 4 5 self moralSelf J j 1 0.3808 
01-Jun-2018_15:18:27 7337 22 male R 4 4 6 self immoralSelf J j 1 0.4811 
01-Jun-2018_15:18:29 7337 22 male R 4 4 7 self moralOther H j 0 0.4234 
01-Jun-2018_15:18:30 7337 22 male R 4 4 8 self immoralOther H h 1 0.5075 
01-Jun-2018_15:18:32 7337 22 male R 4 4 9 self moralOther H h 1 0.6465 
01-Jun-2018_15:18:34 7337 22 male R 4 4 10 self moralSelf J j 1 0.4263 
01-Jun-2018_15:18:36 7337 22 male R 4 4 11 self immoralSelf J j 1 0.6488 
01-Jun-2018_15:18:38 7337 22 male R 4 4 12 self immoralOther H h 1 0.5996 
01-Jun-2018_15:18:39 7337 22 male R 4 4 13 self moralSelf J j 1 0.6124 
01-Jun-2018_15:18:41 7337 22 male R 4 4 14 self immoralOther H h 1 0.6177 
01-Jun-2018_15:18:43 7337 22 male R 4 4 15 self moralOther H j 0 0.3745 
01-Jun-2018_15:18:45 7337 22 male R 4 4 16 self immoralSelf J j 1 0.4450 
01-Jun-2018_15:18:46 7337 22 male R 4 4 17 self moralOther H h 1 0.6885 
01-Jun-2018_15:18:48 7337 22 male R 4 4 18 self moralOther H h 1 0.5035 
01-Jun-2018_15:18:50 7337 22 male R 4 4 19 self moralSelf J j 1 0.4500 
01-Jun-2018_15:18:52 7337 22 male R 4 4 20 self immoralOther H h 1 0.6176 
01-Jun-2018_15:18:53 7337 22 male R 4 4 21 self moralSelf J j 1 0.4868 
01-Jun-2018_15:18:55 7337 22 male R 4 4 22 self immoralOther H h 1 0.4294 
01-Jun-2018_15:18:57 7337 22 male R 4 4 23 self immoralOther H h 1 0.4517 
01-Jun-2018_15:18:58 7337 22 male R 4 4 24 self moralOther H j 0 0.4169 
01-Jun-2018_15:19:01 7337 22 male R 4 5 1 self immoralSelf J j 1 0.6340 
01-Jun-2018_15:19:03 7337 22 male R 4 5 2 self moralOther H j 0 0.3799 
01-Jun-2018_15:19:05 7337 22 male R 4 5 3 self immoralSelf J j 1 0.4510 
01-Jun-2018_15:19:07 7337 22 male R 4 5 4 self immoralSelf J j 1 0.7805 
01-Jun-2018_15:19:09 7337 22 male R 4 5 5 self immoralSelf J j 1 0.5539 
01-Jun-2018_15:19:11 7337 22 male R 4 5 6 self moralOther H h 1 0.6677 
01-Jun-2018_15:19:13 7337 22 male R 4 5 7 self moralOther H h 1 0.9228 
01-Jun-2018_15:19:15 7337 22 male R 4 5 8 self moralSelf J j 1 0.5114 
01-Jun-2018_15:19:16 7337 22 male R 4 5 9 self immoralSelf J j 1 0.5325 
01-Jun-2018_15:19:18 7337 22 male R 4 5 10 self moralSelf J j 1 0.4060 
01-Jun-2018_15:19:20 7337 22 male R 4 5 11 self moralOther H h 1 0.3237 
01-Jun-2018_15:19:21 7337 22 male R 4 5 12 self moralSelf J j 1 0.5510 
01-Jun-2018_15:19:23 7337 22 male R 4 5 13 self moralSelf J j 1 0.5534 
01-Jun-2018_15:19:25 7337 22 male R 4 5 14 self moralOther H h 1 0.3907 
01-Jun-2018_15:19:27 7337 22 male R 4 5 15 self immoralOther H h 1 0.5648 
01-Jun-2018_15:19:28 7337 22 male R 4 5 16 self immoralOther H h 1 0.4868 
01-Jun-2018_15:19:30 7337 22 male R 4 5 17 self immoralOther H h 1 0.4808 
01-Jun-2018_15:19:32 7337 22 male R 4 5 18 self immoralOther H h 1 0.3998 
01-Jun-2018_15:19:34 7337 22 male R 4 5 19 self moralSelf J j 1 0.4109 
01-Jun-2018_15:19:35 7337 22 male R 4 5 20 self moralSelf J j 1 0.5313 
01-Jun-2018_15:19:37 7337 22 male R 4 5 21 self immoralSelf J h 0 0.5846 
01-Jun-2018_15:19:39 7337 22 male R 4 5 22 self moralOther H h 1 0.4985 
01-Jun-2018_15:19:41 7337 22 male R 4 5 23 self immoralOther H h 1 0.4938 
01-Jun-2018_15:19:42 7337 22 male R 4 5 24 self immoralOther H h 1 0.3692 
Date Sub Age Sex Hand Block Bin Trial Task Shape corrResp Resp ACC RT
01-Jun-2018_15:21:55 7337 22 male R 5 1 1 self immoralOther H h 1 0.4538 
01-Jun-2018_15:21:57 7337 22 male R 5 1 2 self immoralOther H h 1 0.6149 
01-Jun-2018_15:21:58 7337 22 male R 5 1 3 self moralOther H j 0 0.4725 
01-Jun-2018_15:22:00 7337 22 male R 5 1 4 self moralOther H h 1 0.5948 
01-Jun-2018_15:22:02 7337 22 male R 5 1 5 self moralOther H h 1 0.3968 
01-Jun-2018_15:22:04 7337 22 male R 5 1 6 self immoralSelf J j 1 0.9606 
01-Jun-2018_15:22:06 7337 22 male R 5 1 7 self moralSelf J j 1 0.6430 
01-Jun-2018_15:22:08 7337 22 male R 5 1 8 self immoralOther H h 1 0.4718 
01-Jun-2018_15:22:10 7337 22 male R 5 1 9 self moralOther H h 1 0.9068 
01-Jun-2018_15:22:12 7337 22 male R 5 1 10 self moralOther H h 1 0.5134 
01-Jun-2018_15:22:14 7337 22 male R 5 1 11 self immoralOther H h 1 0.5620 
01-Jun-2018_15:22:15 7337 22 male R 5 1 12 self immoralSelf J j 1 0.3903 
01-Jun-2018_15:22:17 7337 22 male R 5 1 13 self moralSelf J j 1 0.5772 
01-Jun-2018_15:22:19 7337 22 male R 5 1 14 self moralSelf J h 0 0.5264 
01-Jun-2018_15:22:21 7337 22 male R 5 1 15 self moralSelf J j 1 0.3844 
01-Jun-2018_15:22:22 7337 22 male R 5 1 16 self immoralOther H h 1 0.4432 
01-Jun-2018_15:22:24 7337 22 male R 5 1 17 self immoralSelf J j 1 0.4160 
01-Jun-2018_15:22:26 7337 22 male R 5 1 18 self immoralSelf J j 1 0.6782 
01-Jun-2018_15:22:29 7337 22 male R 5 1 19 self moralOther H NA -1 1.0833 
01-Jun-2018_15:22:31 7337 22 male R 5 1 20 self immoralSelf J j 1 0.3993 
01-Jun-2018_15:22:32 7337 22 male R 5 1 21 self immoralSelf J j 1 0.3407 
01-Jun-2018_15:22:34 7337 22 male R 5 1 22 self moralSelf J j 1 0.5012 
01-Jun-2018_15:22:36 7337 22 male R 5 1 23 self moralSelf J j 1 0.4556 
01-Jun-2018_15:22:37 7337 22 male R 5 1 24 self immoralOther H h 1 0.5967 
01-Jun-2018_15:22:39 7337 22 male R 5 2 1 self moralOther H j 0 0.4251 
01-Jun-2018_15:22:41 7337 22 male R 5 2 2 self moralSelf J j 1 0.6788 
01-Jun-2018_15:22:43 7337 22 male R 5 2 3 self moralSelf J j 1 0.3612 
01-Jun-2018_15:22:45 7337 22 male R 5 2 4 self immoralOther H h 1 0.5570 
01-Jun-2018_15:22:46 7337 22 male R 5 2 5 self immoralSelf J j 1 0.4079 
01-Jun-2018_15:22:48 7337 22 male R 5 2 6 self moralSelf J j 1 0.5848 
01-Jun-2018_15:22:50 7337 22 male R 5 2 7 self moralOther H h 1 0.6137 
01-Jun-2018_15:22:52 7337 22 male R 5 2 8 self moralOther H h 1 0.4830 
01-Jun-2018_15:22:54 7337 22 male R 5 2 9 self immoralOther H h 1 0.4939 
01-Jun-2018_15:22:55 7337 22 male R 5 2 10 self immoralSelf J j 1 0.3970 
01-Jun-2018_15:22:57 7337 22 male R 5 2 11 self moralSelf J j 1 0.3317 
01-Jun-2018_15:22:58 7337 22 male R 5 2 12 self immoralOther H h 1 0.4235 
01-Jun-2018_15:23:00 7337 22 male R 5 2 13 self immoralOther H h 1 0.3769 
01-Jun-2018_15:23:01 7337 22 male R 5 2 14 self moralSelf J j 1 0.3577 
01-Jun-2018_15:23:03 7337 22 male R 5 2 15 self moralOther H j 0 0.3554 
01-Jun-2018_15:23:05 7337 22 male R 5 2 16 self immoralOther H h 1 0.4755 
01-Jun-2018_15:23:07 7337 22 male R 5 2 17 self moralOther H h 1 0.5644 
01-Jun-2018_15:23:09 7337 22 male R 5 2 18 self immoralSelf J j 1 0.4168 
01-Jun-2018_15:23:11 7337 22 male R 5 2 19 self moralOther H h 1 0.6907 
01-Jun-2018_15:23:12 7337 22 male R 5 2 20 self immoralOther H h 1 0.3901 
01-Jun-2018_15:23:14 7337 22 male R 5 2 21 self immoralSelf J j 1 0.4222 
01-Jun-2018_15:23:16 7337 22 male R 5 2 22 self immoralSelf J j 1 0.3568 
01-Jun-2018_15:23:18 7337 22 male R 5 2 23 self moralSelf J j 1 0.3988 
01-Jun-2018_15:23:19 7337 22 male R 5 2 24 self immoralSelf J j 1 0.4200 
01-Jun-2018_15:23:24 7337 22 male R 5 3 1 self moralOther H h 1 0.6824 
01-Jun-2018_15:23:26 7337 22 male R 5 3 2 self moralOther H h 1 0.4302 
01-Jun-2018_15:23:28 7337 22 male R 5 3 3 self immoralOther H h 1 0.5738 
01-Jun-2018_15:23:30 7337 22 male R 5 3 4 self immoralSelf J j 1 0.4482 
01-Jun-2018_15:23:31 7337 22 male R 5 3 5 self immoralOther H h 1 0.3900 
01-Jun-2018_15:23:33 7337 22 male R 5 3 6 self moralSelf J j 1 0.4074 
01-Jun-2018_15:23:35 7337 22 male R 5 3 7 self moralOther H h 1 0.6992 
01-Jun-2018_15:23:37 7337 22 male R 5 3 8 self moralSelf J j 1 0.3600 
01-Jun-2018_15:23:38 7337 22 male R 5 3 9 self moralSelf J j 1 0.3780 
01-Jun-2018_15:23:40 7337 22 male R 5 3 10 self immoralOther H h 1 0.3945 
01-Jun-2018_15:23:42 7337 22 male R 5 3 11 self immoralSelf J j 1 0.4755 
01-Jun-2018_15:23:44 7337 22 male R 5 3 12 self immoralSelf J j 1 0.5711 
01-Jun-2018_15:23:45 7337 22 male R 5 3 13 self immoralOther H h 1 0.5311 
01-Jun-2018_15:23:47 7337 22 male R 5 3 14 self immoralSelf J j 1 0.4865 
01-Jun-2018_15:23:49 7337 22 male R 5 3 15 self immoralOther H h 1 0.7049 
01-Jun-2018_15:23:51 7337 22 male R 5 3 16 self moralOther H NA -1 1.0841 
01-Jun-2018_15:23:53 7337 22 male R 5 3 17 self immoralSelf J j 1 0.4835 
01-Jun-2018_15:23:55 7337 22 male R 5 3 18 self moralSelf J j 1 0.5029 
01-Jun-2018_15:23:57 7337 22 male R 5 3 19 self moralSelf J j 1 0.3005 
01-Jun-2018_15:23:59 7337 22 male R 5 3 20 self moralOther H h 1 0.4310 
01-Jun-2018_15:24:00 7337 22 male R 5 3 21 self immoralSelf J j 1 0.3859 
01-Jun-2018_15:24:02 7337 22 male R 5 3 22 self moralSelf J j 1 0.3620 
01-Jun-2018_15:24:04 7337 22 male R 5 3 23 self moralOther H h 1 0.4176 
01-Jun-2018_15:24:05 7337 22 male R 5 3 24 self immoralOther H j 0 0.5546 
01-Jun-2018_15:24:07 7337 22 male R 5 4 1 self moralSelf J j 1 0.3367 
01-Jun-2018_15:24:09 7337 22 male R 5 4 2 self immoralSelf J j 1 0.3820 
01-Jun-2018_15:24:10 7337 22 male R 5 4 3 self immoralOther H h 1 0.3853 
01-Jun-2018_15:24:12 7337 22 male R 5 4 4 self moralOther H h 1 0.4156 
01-Jun-2018_15:24:14 7337 22 male R 5 4 5 self immoralOther H h 1 0.5121 
01-Jun-2018_15:24:15 7337 22 male R 5 4 6 self moralOther H j 0 0.4298 
01-Jun-2018_15:24:17 7337 22 male R 5 4 7 self immoralSelf J j 1 0.3414 
01-Jun-2018_15:24:19 7337 22 male R 5 4 8 self immoralOther H h 1 0.4623 
01-Jun-2018_15:24:21 7337 22 male R 5 4 9 self moralSelf J j 1 0.7801 
01-Jun-2018_15:24:22 7337 22 male R 5 4 10 self moralSelf J j 1 0.4568 
01-Jun-2018_15:24:24 7337 22 male R 5 4 11 self moralOther H h 1 0.5906 
01-Jun-2018_15:24:25 7337 22 male R 5 4 12 self moralOther H h 1 0.4476 
01-Jun-2018_15:24:27 7337 22 male R 5 4 13 self moralSelf J j 1 0.4956 
01-Jun-2018_15:24:29 7337 22 male R 5 4 14 self moralSelf J j 1 0.9893 
01-Jun-2018_15:24:31 7337 22 male R 5 4 15 self immoralSelf J j 1 0.6562 
01-Jun-2018_15:24:33 7337 22 male R 5 4 16 self moralOther H j 0 0.4436 
01-Jun-2018_15:24:34 7337 22 male R 5 4 17 self immoralOther H h 1 0.4286 
01-Jun-2018_15:24:36 7337 22 male R 5 4 18 self moralSelf J j 1 0.4084 
01-Jun-2018_15:24:38 7337 22 male R 5 4 19 self immoralSelf J j 1 0.4189 
01-Jun-2018_15:24:39 7337 22 male R 5 4 20 self immoralSelf J j 1 0.3502 
01-Jun-2018_15:24:41 7337 22 male R 5 4 21 self immoralSelf J j 1 0.3781 
01-Jun-2018_15:24:43 7337 22 male R 5 4 22 self immoralOther H h 1 0.5103 
01-Jun-2018_15:24:44 7337 22 male R 5 4 23 self moralOther H h 1 0.6587 
01-Jun-2018_15:24:46 7337 22 male R 5 4 24 self immoralOther H h 1 0.3740 
01-Jun-2018_15:24:51 7337 22 male R 5 5 1 self moralSelf J j 1 0.6603 
01-Jun-2018_15:24:52 7337 22 male R 5 5 2 self moralSelf J j 1 0.3503 
01-Jun-2018_15:24:54 7337 22 male R 5 5 3 self immoralOther H NA -1 1.0841 
01-Jun-2018_15:24:56 7337 22 male R 5 5 4 self moralSelf J j 1 0.4766 
01-Jun-2018_15:24:58 7337 22 male R 5 5 5 self moralOther H h 1 0.4864 
01-Jun-2018_15:25:00 7337 22 male R 5 5 6 self immoralSelf J j 1 0.5943 
01-Jun-2018_15:25:03 7337 22 male R 5 5 7 self moralOther H h 1 0.8598 
01-Jun-2018_15:25:05 7337 22 male R 5 5 8 self immoralSelf J h 0 0.5987 
01-Jun-2018_15:25:06 7337 22 male R 5 5 9 self moralSelf J j 1 0.4026 
01-Jun-2018_15:25:08 7337 22 male R 5 5 10 self immoralSelf J j 1 0.5406 
01-Jun-2018_15:25:10 7337 22 male R 5 5 11 self immoralOther H h 1 0.4173 
01-Jun-2018_15:25:12 7337 22 male R 5 5 12 self immoralOther H h 1 0.5101 
01-Jun-2018_15:25:14 7337 22 male R 5 5 13 self immoralSelf J j 1 0.5102 
01-Jun-2018_15:25:16 7337 22 male R 5 5 14 self moralOther H j 0 1.0312 
01-Jun-2018_15:25:18 7337 22 male R 5 5 15 self immoralOther H h 1 0.9118 
01-Jun-2018_15:25:20 7337 22 male R 5 5 16 self moralSelf J j 1 0.5151 
01-Jun-2018_15:25:22 7337 22 male R 5 5 17 self moralOther H h 1 0.6470 
01-Jun-2018_15:25:24 7337 22 male R 5 5 18 self moralOther H h 1 0.7925 
01-Jun-2018_15:25:26 7337 22 male R 5 5 19 self immoralOther H h 1 0.5582 
01-Jun-2018_15:25:27 7337 22 male R 5 5 20 self moralSelf J j 1 0.2863 
01-Jun-2018_15:25:29 7337 22 male R 5 5 21 self immoralSelf J j 1 0.4337 
01-Jun-2018_15:25:30 7337 22 male R 5 5 22 self immoralSelf J j 1 0.3833 
01-Jun-2018_15:25:32 7337 22 male R 5 5 23 self moralOther H h 1 0.5137 
01-Jun-2018_15:25:34 7337 22 male R 5 5 24 self immoralOther H h 1 0.4531 
Date Sub Age Sex Hand Block Bin Trial Task Shape corrResp Resp ACC RT
01-Jun-2018_15:27:49 7337 22 male R 6 1 1 moral immoralOther Y u 0 0.5406 
01-Jun-2018_15:27:51 7337 22 male R 6 1 2 moral immoralOther Y y 1 0.5059 
01-Jun-2018_15:27:52 7337 22 male R 6 1 3 moral immoralSelf Y y 1 0.6730 
01-Jun-2018_15:27:54 7337 22 male R 6 1 4 moral immoralOther Y y 1 0.8670 
01-Jun-2018_15:27:56 7337 22 male R 6 1 5 moral moralOther U u 1 0.6426 
01-Jun-2018_15:27:58 7337 22 male R 6 1 6 moral immoralSelf Y y 1 0.6215 
01-Jun-2018_15:28:00 7337 22 male R 6 1 7 moral moralSelf U u 1 0.5868 
01-Jun-2018_15:28:02 7337 22 male R 6 1 8 moral moralOther U u 1 0.5982 
01-Jun-2018_15:28:04 7337 22 male R 6 1 9 moral immoralSelf Y y 1 0.5159 
01-Jun-2018_15:28:06 7337 22 male R 6 1 10 moral moralOther U u 1 0.4430 
01-Jun-2018_15:28:07 7337 22 male R 6 1 11 moral immoralSelf Y y 1 0.5052 
01-Jun-2018_15:28:09 7337 22 male R 6 1 12 moral moralOther U u 1 0.3613 
01-Jun-2018_15:28:11 7337 22 male R 6 1 13 moral moralSelf U u 1 0.3067 
01-Jun-2018_15:28:12 7337 22 male R 6 1 14 moral moralOther U u 1 0.3510 
01-Jun-2018_15:28:13 7337 22 male R 6 1 15 moral moralSelf U u 1 0.2839 
01-Jun-2018_15:28:15 7337 22 male R 6 1 16 moral immoralSelf Y y 1 0.4062 
01-Jun-2018_15:28:17 7337 22 male R 6 1 17 moral immoralSelf Y y 1 0.4933 
01-Jun-2018_15:28:18 7337 22 male R 6 1 18 moral moralSelf U u 1 0.2976 
01-Jun-2018_15:28:20 7337 22 male R 6 1 19 moral immoralOther Y y 1 0.5621 
01-Jun-2018_15:28:22 7337 22 male R 6 1 20 moral moralSelf U u 1 0.2941 
01-Jun-2018_15:28:24 7337 22 male R 6 1 21 moral immoralOther Y y 1 0.5745 
01-Jun-2018_15:28:25 7337 22 male R 6 1 22 moral immoralOther Y u 0 0.2320 
01-Jun-2018_15:28:26 7337 22 male R 6 1 23 moral moralSelf U u 1 0.3502 
01-Jun-2018_15:28:28 7337 22 male R 6 1 24 moral moralOther U u 1 0.5512 
01-Jun-2018_15:28:30 7337 22 male R 6 2 1 moral immoralSelf Y y 1 0.5145 
01-Jun-2018_15:28:31 7337 22 male R 6 2 2 moral moralOther U y 0 0.3697 
01-Jun-2018_15:28:33 7337 22 male R 6 2 3 moral moralSelf U u 1 0.4361 
01-Jun-2018_15:28:35 7337 22 male R 6 2 4 moral immoralOther Y y 1 0.4320 
01-Jun-2018_15:28:37 7337 22 male R 6 2 5 moral immoralSelf Y y 1 0.5444 
01-Jun-2018_15:28:38 7337 22 male R 6 2 6 moral immoralOther Y y 1 0.3854 
01-Jun-2018_15:28:40 7337 22 male R 6 2 7 moral immoralSelf Y y 1 0.4505 
01-Jun-2018_15:28:42 7337 22 male R 6 2 8 moral moralOther U u 1 0.3983 
01-Jun-2018_15:28:43 7337 22 male R 6 2 9 moral moralOther U u 1 0.3188 
01-Jun-2018_15:28:45 7337 22 male R 6 2 10 moral immoralOther Y y 1 0.7904 
01-Jun-2018_15:28:47 7337 22 male R 6 2 11 moral immoralOther Y y 1 0.4400 
01-Jun-2018_15:28:49 7337 22 male R 6 2 12 moral immoralSelf Y y 1 0.6330 
01-Jun-2018_15:28:51 7337 22 male R 6 2 13 moral moralOther U u 1 0.4574 
01-Jun-2018_15:28:52 7337 22 male R 6 2 14 moral immoralSelf Y y 1 0.5484 
01-Jun-2018_15:28:54 7337 22 male R 6 2 15 moral immoralSelf Y y 1 0.4359 
01-Jun-2018_15:28:56 7337 22 male R 6 2 16 moral moralSelf U u 1 0.4765 
01-Jun-2018_15:28:57 7337 22 male R 6 2 17 moral moralSelf U u 1 0.3631 
01-Jun-2018_15:28:59 7337 22 male R 6 2 18 moral moralSelf U u 1 0.3647 
01-Jun-2018_15:29:01 7337 22 male R 6 2 19 moral moralSelf U u 1 0.3256 
01-Jun-2018_15:29:02 7337 22 male R 6 2 20 moral immoralOther Y y 1 0.4735 
01-Jun-2018_15:29:04 7337 22 male R 6 2 21 moral moralOther U u 1 0.7855 
01-Jun-2018_15:29:06 7337 22 male R 6 2 22 moral moralOther U u 1 0.3672 
01-Jun-2018_15:29:08 7337 22 male R 6 2 23 moral moralSelf U u 1 0.5725 
01-Jun-2018_15:29:10 7337 22 male R 6 2 24 moral immoralOther Y y 1 0.4536 
01-Jun-2018_15:29:14 7337 22 male R 6 3 1 moral immoralOther Y u 0 0.9304 
01-Jun-2018_15:29:16 7337 22 male R 6 3 2 moral moralSelf U u 1 0.4331 
01-Jun-2018_15:29:17 7337 22 male R 6 3 3 moral immoralSelf Y y 1 0.3583 
01-Jun-2018_15:29:19 7337 22 male R 6 3 4 moral immoralOther Y y 1 0.4483 
01-Jun-2018_15:29:21 7337 22 male R 6 3 5 moral moralSelf U u 1 0.6544 
01-Jun-2018_15:29:23 7337 22 male R 6 3 6 moral moralOther U y 0 0.6149 
01-Jun-2018_15:29:25 7337 22 male R 6 3 7 moral moralSelf U u 1 0.3073 
01-Jun-2018_15:29:26 7337 22 male R 6 3 8 moral immoralOther Y y 1 0.3963 
01-Jun-2018_15:29:28 7337 22 male R 6 3 9 moral immoralSelf Y y 1 0.5149 
01-Jun-2018_15:29:30 7337 22 male R 6 3 10 moral immoralOther Y y 1 0.3894 
01-Jun-2018_15:29:32 7337 22 male R 6 3 11 moral immoralOther Y y 1 0.6298 
01-Jun-2018_15:29:34 7337 22 male R 6 3 12 moral immoralSelf Y y 1 0.6695 
01-Jun-2018_15:29:35 7337 22 male R 6 3 13 moral immoralSelf Y y 1 0.5016 
01-Jun-2018_15:29:37 7337 22 male R 6 3 14 moral immoralSelf Y y 1 0.5473 
01-Jun-2018_15:29:39 7337 22 male R 6 3 15 moral moralOther U u 1 0.5163 
01-Jun-2018_15:29:41 7337 22 male R 6 3 16 moral immoralOther Y y 1 0.4350 
01-Jun-2018_15:29:43 7337 22 male R 6 3 17 moral moralSelf U u 1 0.3866 
01-Jun-2018_15:29:44 7337 22 male R 6 3 18 moral moralOther U u 1 0.4755 
01-Jun-2018_15:29:46 7337 22 male R 6 3 19 moral moralSelf U u 1 0.4135 
01-Jun-2018_15:29:48 7337 22 male R 6 3 20 moral immoralSelf Y y 1 0.5787 
01-Jun-2018_15:29:50 7337 22 male R 6 3 21 moral moralOther U u 1 0.4795 
01-Jun-2018_15:29:51 7337 22 male R 6 3 22 moral moralSelf U u 1 0.4791 
01-Jun-2018_15:29:53 7337 22 male R 6 3 23 moral moralOther U u 1 0.4030 
01-Jun-2018_15:29:54 7337 22 male R 6 3 24 moral moralOther U u 1 0.4167 
01-Jun-2018_15:29:56 7337 22 male R 6 4 1 moral moralOther U u 1 0.4087 
01-Jun-2018_15:29:58 7337 22 male R 6 4 2 moral moralSelf U u 1 0.4093 
01-Jun-2018_15:29:59 7337 22 male R 6 4 3 moral moralOther U u 1 0.5689 
01-Jun-2018_15:30:01 7337 22 male R 6 4 4 moral immoralSelf Y y 1 0.5892 
01-Jun-2018_15:30:03 7337 22 male R 6 4 5 moral moralSelf U u 1 0.3728 
01-Jun-2018_15:30:05 7337 22 male R 6 4 6 moral moralOther U u 1 0.6166 
01-Jun-2018_15:30:07 7337 22 male R 6 4 7 moral moralSelf U u 1 0.3254 
01-Jun-2018_15:30:08 7337 22 male R 6 4 8 moral moralOther U u 1 0.4078 
01-Jun-2018_15:30:10 7337 22 male R 6 4 9 moral immoralOther Y y 1 0.4474 
01-Jun-2018_15:30:12 7337 22 male R 6 4 10 moral immoralSelf Y y 1 0.4786 
01-Jun-2018_15:30:14 7337 22 male R 6 4 11 moral moralOther U u 1 0.3916 
01-Jun-2018_15:30:15 7337 22 male R 6 4 12 moral moralSelf U u 1 0.3238 
01-Jun-2018_15:30:17 7337 22 male R 6 4 13 moral immoralSelf Y y 1 0.5074 
01-Jun-2018_15:30:19 7337 22 male R 6 4 14 moral moralSelf U u 1 0.4972 
01-Jun-2018_15:30:20 7337 22 male R 6 4 15 moral immoralOther Y y 1 0.5217 
01-Jun-2018_15:30:22 7337 22 male R 6 4 16 moral immoralSelf Y u 0 0.3890 
01-Jun-2018_15:30:24 7337 22 male R 6 4 17 moral immoralOther Y y 1 0.4983 
01-Jun-2018_15:30:25 7337 22 male R 6 4 18 moral immoralOther Y y 1 0.3463 
01-Jun-2018_15:30:27 7337 22 male R 6 4 19 moral moralSelf U u 1 0.3704 
01-Jun-2018_15:30:28 7337 22 male R 6 4 20 moral immoralSelf Y y 1 0.4303 
01-Jun-2018_15:30:30 7337 22 male R 6 4 21 moral immoralOther Y y 1 0.3677 
01-Jun-2018_15:30:31 7337 22 male R 6 4 22 moral immoralOther Y y 1 0.3527 
01-Jun-2018_15:30:33 7337 22 male R 6 4 23 moral moralOther U u 1 0.4291 
01-Jun-2018_15:30:35 7337 22 male R 6 4 24 moral immoralSelf Y y 1 0.5985 
01-Jun-2018_15:30:38 7337 22 male R 6 5 1 moral moralSelf U u 1 0.4024 
01-Jun-2018_15:30:40 7337 22 male R 6 5 2 moral moralOther U y 0 0.5935 
01-Jun-2018_15:30:42 7337 22 male R 6 5 3 moral moralOther U u 1 0.4373 
01-Jun-2018_15:30:43 7337 22 male R 6 5 4 moral immoralOther Y y 1 0.4713 
01-Jun-2018_15:30:46 7337 22 male R 6 5 5 moral immoralSelf Y NA -1 1.0841 
01-Jun-2018_15:30:48 7337 22 male R 6 5 6 moral moralSelf U u 1 0.9401 
01-Jun-2018_15:30:50 7337 22 male R 6 5 7 moral immoralOther Y y 1 0.6748 
01-Jun-2018_15:30:51 7337 22 male R 6 5 8 moral moralSelf U u 1 0.3290 
01-Jun-2018_15:30:53 7337 22 male R 6 5 9 moral immoralOther Y y 1 0.5296 
01-Jun-2018_15:30:55 7337 22 male R 6 5 10 moral immoralOther Y y 1 0.4279 
01-Jun-2018_15:30:57 7337 22 male R 6 5 11 moral moralOther U u 1 0.3781 
01-Jun-2018_15:30:58 7337 22 male R 6 5 12 moral moralOther U u 1 0.3153 
01-Jun-2018_15:31:00 7337 22 male R 6 5 13 moral moralSelf U u 1 0.3364 
01-Jun-2018_15:31:02 7337 22 male R 6 5 14 moral immoralSelf Y y 1 0.4659 
01-Jun-2018_15:31:03 7337 22 male R 6 5 15 moral moralSelf U u 1 0.3192 
01-Jun-2018_15:31:05 7337 22 male R 6 5 16 moral immoralSelf Y y 1 0.4279 
01-Jun-2018_15:31:07 7337 22 male R 6 5 17 moral immoralSelf Y y 1 0.4562 
01-Jun-2018_15:31:08 7337 22 male R 6 5 18 moral immoralOther Y y 1 0.4652 
01-Jun-2018_15:31:10 7337 22 male R 6 5 19 moral immoralSelf Y y 1 0.4398 
01-Jun-2018_15:31:12 7337 22 male R 6 5 20 moral immoralSelf Y y 1 0.4390 
01-Jun-2018_15:31:14 7337 22 male R 6 5 21 moral moralSelf U u 1 0.4724 
01-Jun-2018_15:31:15 7337 22 male R 6 5 22 moral moralOther U u 1 0.4735 
01-Jun-2018_15:31:17 7337 22 male R 6 5 23 moral moralOther U u 1 0.3577 
01-Jun-2018_15:31:18 7337 22 male R 6 5 24 moral immoralOther Y y 1 0.4741 
