Date Sub Age Sex Hand Block Bin Trial Task Shape corrResp Resp ACC RT
07-Jun-2018_15:54:04 7345 19 male R 1 1 1 moral immoralSelf Y NA -1 1.1081 
07-Jun-2018_15:54:06 7345 19 male R 1 1 2 moral immoralSelf Y y 1 0.9595 
07-Jun-2018_15:54:08 7345 19 male R 1 1 3 moral moralSelf U u 1 0.7262 
07-Jun-2018_15:54:10 7345 19 male R 1 1 4 moral moralOther U u 1 0.7502 
07-Jun-2018_15:54:11 7345 19 male R 1 1 5 moral moralOther U u 1 0.4957 
07-Jun-2018_15:54:13 7345 19 male R 1 1 6 moral immoralOther Y y 1 0.8689 
07-Jun-2018_15:54:15 7345 19 male R 1 1 7 moral moralOther U u 1 0.5895 
07-Jun-2018_15:54:17 7345 19 male R 1 1 8 moral moralOther U u 1 0.5255 
07-Jun-2018_15:54:19 7345 19 male R 1 1 9 moral immoralOther Y y 1 0.7124 
07-Jun-2018_15:54:20 7345 19 male R 1 1 10 moral moralOther U u 1 0.6075 
07-Jun-2018_15:54:22 7345 19 male R 1 1 11 moral immoralSelf Y y 1 0.7516 
07-Jun-2018_15:54:24 7345 19 male R 1 1 12 moral immoralSelf Y y 1 0.5762 
07-Jun-2018_15:54:26 7345 19 male R 1 1 13 moral moralSelf U u 1 0.5278 
07-Jun-2018_15:54:27 7345 19 male R 1 1 14 moral moralSelf U u 1 0.3472 
07-Jun-2018_15:54:29 7345 19 male R 1 1 15 moral immoralSelf Y y 1 0.5354 
07-Jun-2018_15:54:31 7345 19 male R 1 1 16 moral immoralOther Y y 1 0.6150 
07-Jun-2018_15:54:33 7345 19 male R 1 1 17 moral immoralOther Y y 1 0.7065 
07-Jun-2018_15:54:35 7345 19 male R 1 1 18 moral moralOther U u 1 0.4919 
07-Jun-2018_15:54:37 7345 19 male R 1 1 19 moral moralSelf U u 1 0.6016 
07-Jun-2018_15:54:39 7345 19 male R 1 1 20 moral immoralOther Y y 1 0.5283 
07-Jun-2018_15:54:40 7345 19 male R 1 1 21 moral moralSelf U u 1 0.5190 
07-Jun-2018_15:54:42 7345 19 male R 1 1 22 moral immoralSelf Y y 1 0.5373 
07-Jun-2018_15:54:44 7345 19 male R 1 1 23 moral moralSelf U u 1 0.4852 
07-Jun-2018_15:54:46 7345 19 male R 1 1 24 moral immoralOther Y y 1 0.4114 
07-Jun-2018_15:54:47 7345 19 male R 1 2 1 moral immoralOther Y y 1 0.4746 
07-Jun-2018_15:54:49 7345 19 male R 1 2 2 moral immoralSelf Y u 0 0.4045 
07-Jun-2018_15:54:50 7345 19 male R 1 2 3 moral immoralOther Y y 1 0.5387 
07-Jun-2018_15:54:52 7345 19 male R 1 2 4 moral immoralSelf Y y 1 0.3453 
07-Jun-2018_15:54:54 7345 19 male R 1 2 5 moral moralSelf U u 1 0.4310 
07-Jun-2018_15:54:55 7345 19 male R 1 2 6 moral immoralSelf Y y 1 0.4862 
07-Jun-2018_15:54:57 7345 19 male R 1 2 7 moral moralSelf U u 1 0.4326 
07-Jun-2018_15:54:58 7345 19 male R 1 2 8 moral moralOther U y 0 0.4101 
07-Jun-2018_15:55:00 7345 19 male R 1 2 9 moral moralOther U u 1 0.3461 
07-Jun-2018_15:55:01 7345 19 male R 1 2 10 moral immoralSelf Y u 0 0.2616 
07-Jun-2018_15:55:03 7345 19 male R 1 2 11 moral moralOther U y 0 0.3741 
07-Jun-2018_15:55:05 7345 19 male R 1 2 12 moral immoralOther Y NA -1 1.1081 
07-Jun-2018_15:55:07 7345 19 male R 1 2 13 moral moralSelf U u 1 0.6005 
07-Jun-2018_15:55:09 7345 19 male R 1 2 14 moral immoralSelf Y y 1 0.5060 
07-Jun-2018_15:55:10 7345 19 male R 1 2 15 moral moralSelf U u 1 0.3353 
07-Jun-2018_15:55:12 7345 19 male R 1 2 16 moral immoralSelf Y y 1 0.3885 
07-Jun-2018_15:55:13 7345 19 male R 1 2 17 moral immoralOther Y u 0 0.3509 
07-Jun-2018_15:55:15 7345 19 male R 1 2 18 moral immoralOther Y y 1 0.5307 
07-Jun-2018_15:55:16 7345 19 male R 1 2 19 moral immoralOther Y y 1 0.4669 
07-Jun-2018_15:55:18 7345 19 male R 1 2 20 moral moralOther U u 1 0.4711 
07-Jun-2018_15:55:20 7345 19 male R 1 2 21 moral moralOther U u 1 0.4782 
07-Jun-2018_15:55:21 7345 19 male R 1 2 22 moral moralSelf U u 1 0.4731 
07-Jun-2018_15:55:23 7345 19 male R 1 2 23 moral moralSelf U u 1 0.3156 
07-Jun-2018_15:55:25 7345 19 male R 1 2 24 moral moralOther U u 1 0.2600 
07-Jun-2018_15:55:34 7345 19 male R 1 3 1 moral moralOther U u 1 0.4237 
07-Jun-2018_15:55:36 7345 19 male R 1 3 2 moral immoralSelf Y y 1 0.5118 
07-Jun-2018_15:55:38 7345 19 male R 1 3 3 moral immoralSelf Y y 1 0.5608 
07-Jun-2018_15:55:39 7345 19 male R 1 3 4 moral moralSelf U u 1 0.4263 
07-Jun-2018_15:55:41 7345 19 male R 1 3 5 moral moralOther U u 1 0.4033 
07-Jun-2018_15:55:42 7345 19 male R 1 3 6 moral immoralOther Y y 1 0.4030 
07-Jun-2018_15:55:44 7345 19 male R 1 3 7 moral moralSelf U u 1 0.3893 
07-Jun-2018_15:55:46 7345 19 male R 1 3 8 moral immoralSelf Y y 1 0.3282 
07-Jun-2018_15:55:48 7345 19 male R 1 3 9 moral immoralSelf Y y 1 0.5334 
07-Jun-2018_15:55:49 7345 19 male R 1 3 10 moral immoralOther Y u 0 0.3849 
07-Jun-2018_15:55:51 7345 19 male R 1 3 11 moral moralSelf U u 1 0.4333 
07-Jun-2018_15:55:52 7345 19 male R 1 3 12 moral moralOther U u 1 0.3285 
07-Jun-2018_15:55:54 7345 19 male R 1 3 13 moral moralOther U u 1 0.2834 
07-Jun-2018_15:55:56 7345 19 male R 1 3 14 moral immoralSelf Y y 1 0.3531 
07-Jun-2018_15:55:57 7345 19 male R 1 3 15 moral immoralOther Y u 0 0.3037 
07-Jun-2018_15:55:59 7345 19 male R 1 3 16 moral moralSelf U u 1 0.3755 
07-Jun-2018_15:56:00 7345 19 male R 1 3 17 moral moralOther U u 1 0.2808 
07-Jun-2018_15:56:02 7345 19 male R 1 3 18 moral immoralOther Y y 1 0.3533 
07-Jun-2018_15:56:03 7345 19 male R 1 3 19 moral immoralOther Y y 1 0.3464 
07-Jun-2018_15:56:05 7345 19 male R 1 3 20 moral moralSelf U u 1 0.3690 
07-Jun-2018_15:56:07 7345 19 male R 1 3 21 moral immoralSelf Y y 1 0.3531 
07-Jun-2018_15:56:09 7345 19 male R 1 3 22 moral immoralOther Y u 0 0.2919 
07-Jun-2018_15:56:10 7345 19 male R 1 3 23 moral moralSelf U u 1 0.2948 
07-Jun-2018_15:56:12 7345 19 male R 1 3 24 moral moralOther U u 1 0.3405 
07-Jun-2018_15:56:13 7345 19 male R 1 4 1 moral moralOther U u 1 0.3435 
07-Jun-2018_15:56:14 7345 19 male R 1 4 2 moral moralSelf U u 1 0.2225 
07-Jun-2018_15:56:16 7345 19 male R 1 4 3 moral moralOther U u 1 0.2386 
07-Jun-2018_15:56:17 7345 19 male R 1 4 4 moral moralSelf U u 1 0.3125 
07-Jun-2018_15:56:18 7345 19 male R 1 4 5 moral immoralSelf Y u 0 0.2580 
07-Jun-2018_15:56:20 7345 19 male R 1 4 6 moral immoralSelf Y y 1 0.4674 
07-Jun-2018_15:56:21 7345 19 male R 1 4 7 moral moralOther U y 0 0.3268 
07-Jun-2018_15:56:23 7345 19 male R 1 4 8 moral moralSelf U u 1 0.4534 
07-Jun-2018_15:56:25 7345 19 male R 1 4 9 moral immoralOther Y u 0 0.3548 
07-Jun-2018_15:56:27 7345 19 male R 1 4 10 moral moralOther U u 1 0.4330 
07-Jun-2018_15:56:28 7345 19 male R 1 4 11 moral immoralOther Y y 1 0.4404 
07-Jun-2018_15:56:30 7345 19 male R 1 4 12 moral moralOther U u 1 0.3652 
07-Jun-2018_15:56:31 7345 19 male R 1 4 13 moral moralSelf U u 1 0.4223 
07-Jun-2018_15:56:33 7345 19 male R 1 4 14 moral immoralOther Y y 1 0.4628 
07-Jun-2018_15:56:35 7345 19 male R 1 4 15 moral immoralSelf Y y 1 0.5439 
07-Jun-2018_15:56:37 7345 19 male R 1 4 16 moral immoralSelf Y y 1 0.3594 
07-Jun-2018_15:56:38 7345 19 male R 1 4 17 moral immoralOther Y y 1 0.4267 
07-Jun-2018_15:56:40 7345 19 male R 1 4 18 moral moralSelf U u 1 0.3248 
07-Jun-2018_15:56:41 7345 19 male R 1 4 19 moral immoralSelf Y y 1 0.5068 
07-Jun-2018_15:56:43 7345 19 male R 1 4 20 moral moralSelf U u 1 0.3329 
07-Jun-2018_15:56:44 7345 19 male R 1 4 21 moral moralOther U u 1 0.5442 
07-Jun-2018_15:56:46 7345 19 male R 1 4 22 moral immoralSelf Y y 1 0.4543 
07-Jun-2018_15:56:47 7345 19 male R 1 4 23 moral immoralOther Y u 0 0.3334 
07-Jun-2018_15:56:49 7345 19 male R 1 4 24 moral immoralOther Y y 1 0.3806 
07-Jun-2018_15:56:59 7345 19 male R 1 5 1 moral moralOther U u 1 0.4479 
07-Jun-2018_15:57:01 7345 19 male R 1 5 2 moral immoralOther Y y 1 0.4036 
07-Jun-2018_15:57:03 7345 19 male R 1 5 3 moral immoralOther Y y 1 0.4165 
07-Jun-2018_15:57:04 7345 19 male R 1 5 4 moral moralSelf U u 1 0.3855 
07-Jun-2018_15:57:06 7345 19 male R 1 5 5 moral immoralSelf Y y 1 0.3836 
07-Jun-2018_15:57:07 7345 19 male R 1 5 6 moral moralOther U u 1 0.4317 
07-Jun-2018_15:57:09 7345 19 male R 1 5 7 moral moralSelf U u 1 0.4661 
07-Jun-2018_15:57:11 7345 19 male R 1 5 8 moral moralOther U u 1 0.3358 
07-Jun-2018_15:57:12 7345 19 male R 1 5 9 moral moralSelf U u 1 0.3881 
07-Jun-2018_15:57:14 7345 19 male R 1 5 10 moral moralSelf U u 1 0.2616 
07-Jun-2018_15:57:15 7345 19 male R 1 5 11 moral moralOther U y 0 0.3497 
07-Jun-2018_15:57:17 7345 19 male R 1 5 12 moral immoralSelf Y y 1 0.4189 
07-Jun-2018_15:57:18 7345 19 male R 1 5 13 moral immoralOther Y y 1 0.5286 
07-Jun-2018_15:57:20 7345 19 male R 1 5 14 moral immoralSelf Y y 1 0.4176 
07-Jun-2018_15:57:22 7345 19 male R 1 5 15 moral moralSelf U u 1 0.4920 
07-Jun-2018_15:57:24 7345 19 male R 1 5 16 moral immoralOther Y y 1 0.4263 
07-Jun-2018_15:57:25 7345 19 male R 1 5 17 moral immoralOther Y y 1 0.3133 
07-Jun-2018_15:57:27 7345 19 male R 1 5 18 moral immoralSelf Y y 1 0.4894 
07-Jun-2018_15:57:28 7345 19 male R 1 5 19 moral moralOther U u 1 0.4640 
07-Jun-2018_15:57:30 7345 19 male R 1 5 20 moral immoralOther Y y 1 0.4039 
07-Jun-2018_15:57:32 7345 19 male R 1 5 21 moral immoralSelf Y y 1 0.4072 
07-Jun-2018_15:57:34 7345 19 male R 1 5 22 moral immoralSelf Y y 1 0.3433 
07-Jun-2018_15:57:35 7345 19 male R 1 5 23 moral moralSelf U u 1 0.4672 
07-Jun-2018_15:57:36 7345 19 male R 1 5 24 moral moralOther U u 1 0.3839 
Date Sub Age Sex Hand Block Bin Trial Task Shape corrResp Resp ACC RT
07-Jun-2018_16:00:00 7345 19 male R 2 1 1 self immoralSelf J NA -1 1.1081 
07-Jun-2018_16:00:02 7345 19 male R 2 1 2 self moralOther H h 1 0.7008 
07-Jun-2018_16:00:04 7345 19 male R 2 1 3 self immoralOther H h 1 0.5390 
07-Jun-2018_16:00:06 7345 19 male R 2 1 4 self immoralSelf J j 1 0.6421 
07-Jun-2018_16:00:08 7345 19 male R 2 1 5 self immoralOther H h 1 0.4286 
07-Jun-2018_16:00:09 7345 19 male R 2 1 6 self moralOther H h 1 0.6478 
07-Jun-2018_16:00:11 7345 19 male R 2 1 7 self moralSelf J j 1 0.4503 
07-Jun-2018_16:00:13 7345 19 male R 2 1 8 self moralOther H j 0 0.5026 
07-Jun-2018_16:00:15 7345 19 male R 2 1 9 self moralSelf J j 1 0.5690 
07-Jun-2018_16:00:16 7345 19 male R 2 1 10 self moralSelf J j 1 0.4911 
07-Jun-2018_16:00:18 7345 19 male R 2 1 11 self moralSelf J j 1 0.4205 
07-Jun-2018_16:00:19 7345 19 male R 2 1 12 self immoralOther H h 1 0.4497 
07-Jun-2018_16:00:21 7345 19 male R 2 1 13 self immoralSelf J j 1 0.4874 
07-Jun-2018_16:00:22 7345 19 male R 2 1 14 self moralSelf J j 1 0.5218 
07-Jun-2018_16:00:24 7345 19 male R 2 1 15 self immoralOther H h 1 0.4862 
07-Jun-2018_16:00:26 7345 19 male R 2 1 16 self immoralOther H h 1 0.4194 
07-Jun-2018_16:00:27 7345 19 male R 2 1 17 self moralOther H j 0 0.4581 
07-Jun-2018_16:00:29 7345 19 male R 2 1 18 self moralSelf J j 1 0.3414 
07-Jun-2018_16:00:30 7345 19 male R 2 1 19 self moralOther H h 1 0.4719 
07-Jun-2018_16:00:32 7345 19 male R 2 1 20 self immoralSelf J j 1 0.4304 
07-Jun-2018_16:00:33 7345 19 male R 2 1 21 self immoralOther H h 1 0.4903 
07-Jun-2018_16:00:35 7345 19 male R 2 1 22 self moralOther H h 1 0.4014 
07-Jun-2018_16:00:37 7345 19 male R 2 1 23 self immoralSelf J j 1 0.5540 
07-Jun-2018_16:00:38 7345 19 male R 2 1 24 self immoralSelf J j 1 0.3522 
07-Jun-2018_16:00:40 7345 19 male R 2 2 1 self immoralOther H h 1 0.4303 
07-Jun-2018_16:00:41 7345 19 male R 2 2 2 self moralSelf J j 1 0.4201 
07-Jun-2018_16:00:43 7345 19 male R 2 2 3 self immoralSelf J j 1 0.4873 
07-Jun-2018_16:00:44 7345 19 male R 2 2 4 self immoralOther H h 1 0.4492 
07-Jun-2018_16:00:46 7345 19 male R 2 2 5 self immoralSelf J j 1 0.4409 
07-Jun-2018_16:00:48 7345 19 male R 2 2 6 self moralSelf J j 1 0.4824 
07-Jun-2018_16:00:50 7345 19 male R 2 2 7 self immoralSelf J j 1 0.3549 
07-Jun-2018_16:00:51 7345 19 male R 2 2 8 self immoralOther H h 1 0.3550 
07-Jun-2018_16:00:53 7345 19 male R 2 2 9 self moralOther H h 1 0.6562 
07-Jun-2018_16:00:54 7345 19 male R 2 2 10 self moralOther H h 1 0.4416 
07-Jun-2018_16:00:56 7345 19 male R 2 2 11 self moralOther H h 1 0.3053 
07-Jun-2018_16:00:58 7345 19 male R 2 2 12 self immoralOther H h 1 0.4400 
07-Jun-2018_16:00:59 7345 19 male R 2 2 13 self moralOther H h 1 0.3699 
07-Jun-2018_16:01:01 7345 19 male R 2 2 14 self immoralSelf J j 1 0.4415 
07-Jun-2018_16:01:02 7345 19 male R 2 2 15 self immoralSelf J j 1 0.3164 
07-Jun-2018_16:01:03 7345 19 male R 2 2 16 self moralOther H h 1 0.4233 
07-Jun-2018_16:01:05 7345 19 male R 2 2 17 self moralSelf J j 1 0.3283 
07-Jun-2018_16:01:06 7345 19 male R 2 2 18 self immoralOther H h 1 0.3871 
07-Jun-2018_16:01:08 7345 19 male R 2 2 19 self moralSelf J j 1 0.2930 
07-Jun-2018_16:01:09 7345 19 male R 2 2 20 self moralOther H j 0 0.3266 
07-Jun-2018_16:01:11 7345 19 male R 2 2 21 self moralSelf J j 1 0.3332 
07-Jun-2018_16:01:12 7345 19 male R 2 2 22 self immoralSelf J j 1 0.2857 
07-Jun-2018_16:01:14 7345 19 male R 2 2 23 self moralSelf J j 1 0.3922 
07-Jun-2018_16:01:16 7345 19 male R 2 2 24 self immoralOther H h 1 0.4030 
07-Jun-2018_16:01:21 7345 19 male R 2 3 1 self immoralOther H h 1 0.5153 
07-Jun-2018_16:01:23 7345 19 male R 2 3 2 self immoralOther H h 1 0.3901 
07-Jun-2018_16:01:25 7345 19 male R 2 3 3 self moralOther H h 1 0.2903 
07-Jun-2018_16:01:26 7345 19 male R 2 3 4 self moralOther H h 1 0.3517 
07-Jun-2018_16:01:28 7345 19 male R 2 3 5 self moralSelf J j 1 0.2858 
07-Jun-2018_16:01:30 7345 19 male R 2 3 6 self moralOther H h 1 0.3998 
07-Jun-2018_16:01:31 7345 19 male R 2 3 7 self immoralSelf J j 1 0.4136 
07-Jun-2018_16:01:33 7345 19 male R 2 3 8 self immoralSelf J j 1 0.4405 
07-Jun-2018_16:01:34 7345 19 male R 2 3 9 self immoralSelf J j 1 0.2922 
07-Jun-2018_16:01:36 7345 19 male R 2 3 10 self moralOther H h 1 0.4894 
07-Jun-2018_16:01:38 7345 19 male R 2 3 11 self moralSelf J j 1 0.3729 
07-Jun-2018_16:01:39 7345 19 male R 2 3 12 self moralSelf J j 1 0.3517 
07-Jun-2018_16:01:41 7345 19 male R 2 3 13 self immoralSelf J j 1 0.4393 
07-Jun-2018_16:01:42 7345 19 male R 2 3 14 self immoralOther H h 1 0.4705 
07-Jun-2018_16:01:44 7345 19 male R 2 3 15 self moralSelf J j 1 0.3702 
07-Jun-2018_16:01:46 7345 19 male R 2 3 16 self moralSelf J j 1 0.3134 
07-Jun-2018_16:01:47 7345 19 male R 2 3 17 self immoralOther H h 1 0.4000 
07-Jun-2018_16:01:49 7345 19 male R 2 3 18 self immoralOther H h 1 0.3064 
07-Jun-2018_16:01:50 7345 19 male R 2 3 19 self immoralOther H h 1 0.2929 
07-Jun-2018_16:01:52 7345 19 male R 2 3 20 self immoralSelf J j 1 0.3583 
07-Jun-2018_16:01:53 7345 19 male R 2 3 21 self moralOther H j 0 0.4092 
07-Jun-2018_16:01:55 7345 19 male R 2 3 22 self immoralSelf J j 1 0.3791 
07-Jun-2018_16:01:57 7345 19 male R 2 3 23 self moralSelf J j 1 0.3246 
07-Jun-2018_16:01:58 7345 19 male R 2 3 24 self moralOther H h 1 0.4231 
07-Jun-2018_16:02:00 7345 19 male R 2 4 1 self moralOther H h 1 0.3493 
07-Jun-2018_16:02:02 7345 19 male R 2 4 2 self immoralOther H h 1 0.4487 
07-Jun-2018_16:02:03 7345 19 male R 2 4 3 self immoralSelf J h 0 0.2878 
07-Jun-2018_16:02:05 7345 19 male R 2 4 4 self moralSelf J j 1 0.3001 
07-Jun-2018_16:02:06 7345 19 male R 2 4 5 self immoralSelf J j 1 0.4060 
07-Jun-2018_16:02:08 7345 19 male R 2 4 6 self moralOther H h 1 0.4823 
07-Jun-2018_16:02:10 7345 19 male R 2 4 7 self immoralOther H j 0 0.3548 
07-Jun-2018_16:02:11 7345 19 male R 2 4 8 self moralSelf J j 1 0.5506 
07-Jun-2018_16:02:13 7345 19 male R 2 4 9 self moralOther H h 1 0.4490 
07-Jun-2018_16:02:14 7345 19 male R 2 4 10 self moralSelf J j 1 0.3423 
07-Jun-2018_16:02:15 7345 19 male R 2 4 11 self immoralSelf J j 1 0.4855 
07-Jun-2018_16:02:17 7345 19 male R 2 4 12 self moralSelf J j 1 0.4953 
07-Jun-2018_16:02:19 7345 19 male R 2 4 13 self immoralSelf J j 1 0.3576 
07-Jun-2018_16:02:21 7345 19 male R 2 4 14 self moralOther H h 1 0.4263 
07-Jun-2018_16:02:22 7345 19 male R 2 4 15 self immoralSelf J j 1 0.4710 
07-Jun-2018_16:02:24 7345 19 male R 2 4 16 self immoralOther H h 1 0.4420 
07-Jun-2018_16:02:26 7345 19 male R 2 4 17 self moralSelf J j 1 0.3663 
07-Jun-2018_16:02:27 7345 19 male R 2 4 18 self immoralSelf J j 1 0.4802 
07-Jun-2018_16:02:29 7345 19 male R 2 4 19 self moralOther H h 1 0.5391 
07-Jun-2018_16:02:30 7345 19 male R 2 4 20 self immoralOther H h 1 0.4827 
07-Jun-2018_16:02:32 7345 19 male R 2 4 21 self moralSelf J j 1 0.4569 
07-Jun-2018_16:02:33 7345 19 male R 2 4 22 self moralOther H h 1 0.3516 
07-Jun-2018_16:02:35 7345 19 male R 2 4 23 self immoralOther H h 1 0.5686 
07-Jun-2018_16:02:37 7345 19 male R 2 4 24 self immoralOther H h 1 0.3709 
07-Jun-2018_16:02:42 7345 19 male R 2 5 1 self immoralOther H h 1 0.4126 
07-Jun-2018_16:02:44 7345 19 male R 2 5 2 self immoralSelf J j 1 0.3848 
07-Jun-2018_16:02:45 7345 19 male R 2 5 3 self moralSelf J j 1 0.3934 
07-Jun-2018_16:02:47 7345 19 male R 2 5 4 self moralOther H h 1 0.3837 
07-Jun-2018_16:02:48 7345 19 male R 2 5 5 self moralOther H h 1 0.3055 
07-Jun-2018_16:02:50 7345 19 male R 2 5 6 self moralSelf J j 1 0.3508 
07-Jun-2018_16:02:51 7345 19 male R 2 5 7 self moralSelf J j 1 0.3174 
07-Jun-2018_16:02:53 7345 19 male R 2 5 8 self moralSelf J j 1 0.2266 
07-Jun-2018_16:02:54 7345 19 male R 2 5 9 self immoralOther H h 1 0.3548 
07-Jun-2018_16:02:56 7345 19 male R 2 5 10 self moralOther H j 0 0.3369 
07-Jun-2018_16:02:58 7345 19 male R 2 5 11 self immoralSelf J j 1 0.5214 
07-Jun-2018_16:02:59 7345 19 male R 2 5 12 self immoralSelf J j 1 0.3629 
07-Jun-2018_16:03:01 7345 19 male R 2 5 13 self moralOther H h 1 0.4147 
07-Jun-2018_16:03:02 7345 19 male R 2 5 14 self immoralOther H h 1 0.4825 
07-Jun-2018_16:03:04 7345 19 male R 2 5 15 self moralSelf J j 1 0.3776 
07-Jun-2018_16:03:05 7345 19 male R 2 5 16 self immoralOther H h 1 0.4140 
07-Jun-2018_16:03:07 7345 19 male R 2 5 17 self immoralOther H h 1 0.3740 
07-Jun-2018_16:03:08 7345 19 male R 2 5 18 self immoralSelf J j 1 0.3746 
07-Jun-2018_16:03:10 7345 19 male R 2 5 19 self immoralSelf J j 1 0.3276 
07-Jun-2018_16:03:12 7345 19 male R 2 5 20 self moralOther H h 1 0.4410 
07-Jun-2018_16:03:13 7345 19 male R 2 5 21 self moralOther H h 1 0.3391 
07-Jun-2018_16:03:15 7345 19 male R 2 5 22 self immoralSelf J j 1 0.4143 
07-Jun-2018_16:03:16 7345 19 male R 2 5 23 self immoralOther H h 1 0.4408 
07-Jun-2018_16:03:18 7345 19 male R 2 5 24 self moralSelf J j 1 0.3683 
Date Sub Age Sex Hand Block Bin Trial Task Shape corrResp Resp ACC RT
07-Jun-2018_16:05:22 7345 19 male R 3 1 1 self moralOther H h 1 0.6263 
07-Jun-2018_16:05:23 7345 19 male R 3 1 2 self immoralSelf J j 1 0.5098 
07-Jun-2018_16:05:25 7345 19 male R 3 1 3 self moralSelf J j 1 0.3889 
07-Jun-2018_16:05:27 7345 19 male R 3 1 4 self moralSelf J j 1 0.4069 
07-Jun-2018_16:05:28 7345 19 male R 3 1 5 self moralOther H h 1 0.4389 
07-Jun-2018_16:05:30 7345 19 male R 3 1 6 self immoralOther H h 1 0.5274 
07-Jun-2018_16:05:31 7345 19 male R 3 1 7 self immoralOther H h 1 0.3162 
07-Jun-2018_16:05:33 7345 19 male R 3 1 8 self moralOther H j 0 0.3464 
07-Jun-2018_16:05:35 7345 19 male R 3 1 9 self immoralSelf J j 1 0.3108 
07-Jun-2018_16:05:36 7345 19 male R 3 1 10 self moralOther H h 1 0.4708 
07-Jun-2018_16:05:38 7345 19 male R 3 1 11 self immoralSelf J j 1 0.4281 
07-Jun-2018_16:05:40 7345 19 male R 3 1 12 self moralSelf J j 1 0.3927 
07-Jun-2018_16:05:41 7345 19 male R 3 1 13 self immoralSelf J j 1 0.2451 
07-Jun-2018_16:05:43 7345 19 male R 3 1 14 self immoralSelf J j 1 0.2738 
07-Jun-2018_16:05:44 7345 19 male R 3 1 15 self moralSelf J j 1 0.4386 
07-Jun-2018_16:05:46 7345 19 male R 3 1 16 self immoralOther H h 1 0.3347 
07-Jun-2018_16:05:47 7345 19 male R 3 1 17 self moralOther H h 1 0.3475 
07-Jun-2018_16:05:49 7345 19 male R 3 1 18 self moralSelf J j 1 0.4210 
07-Jun-2018_16:05:50 7345 19 male R 3 1 19 self moralOther H h 1 0.4323 
07-Jun-2018_16:05:52 7345 19 male R 3 1 20 self moralSelf J j 1 0.3650 
07-Jun-2018_16:05:54 7345 19 male R 3 1 21 self immoralSelf J j 1 0.4489 
07-Jun-2018_16:05:55 7345 19 male R 3 1 22 self immoralOther H h 1 0.4607 
07-Jun-2018_16:05:57 7345 19 male R 3 1 23 self immoralOther H h 1 0.3558 
07-Jun-2018_16:05:58 7345 19 male R 3 1 24 self immoralOther H h 1 0.2862 
07-Jun-2018_16:05:59 7345 19 male R 3 2 1 self moralOther H j 0 0.3353 
07-Jun-2018_16:06:01 7345 19 male R 3 2 2 self moralSelf J j 1 0.4332 
07-Jun-2018_16:06:03 7345 19 male R 3 2 3 self moralSelf J j 1 0.2746 
07-Jun-2018_16:06:04 7345 19 male R 3 2 4 self immoralOther H h 1 0.4084 
07-Jun-2018_16:06:06 7345 19 male R 3 2 5 self immoralSelf J j 1 0.4710 
07-Jun-2018_16:06:08 7345 19 male R 3 2 6 self immoralSelf J j 1 0.4664 
07-Jun-2018_16:06:09 7345 19 male R 3 2 7 self moralSelf J j 1 0.4001 
07-Jun-2018_16:06:11 7345 19 male R 3 2 8 self moralOther H h 1 0.4829 
07-Jun-2018_16:06:13 7345 19 male R 3 2 9 self moralSelf J j 1 0.5466 
07-Jun-2018_16:06:15 7345 19 male R 3 2 10 self immoralSelf J j 1 0.4944 
07-Jun-2018_16:06:17 7345 19 male R 3 2 11 self moralOther H h 1 0.5749 
07-Jun-2018_16:06:18 7345 19 male R 3 2 12 self moralOther H h 1 0.4635 
07-Jun-2018_16:06:20 7345 19 male R 3 2 13 self immoralOther H h 1 0.4753 
07-Jun-2018_16:06:21 7345 19 male R 3 2 14 self immoralOther H h 1 0.2923 
07-Jun-2018_16:06:23 7345 19 male R 3 2 15 self moralOther H h 1 0.3155 
07-Jun-2018_16:06:25 7345 19 male R 3 2 16 self immoralOther H h 1 0.2807 
07-Jun-2018_16:06:26 7345 19 male R 3 2 17 self moralSelf J h 0 0.2394 
07-Jun-2018_16:06:28 7345 19 male R 3 2 18 self immoralSelf J j 1 0.4577 
07-Jun-2018_16:06:30 7345 19 male R 3 2 19 self moralOther H h 1 0.4852 
07-Jun-2018_16:06:31 7345 19 male R 3 2 20 self immoralSelf J j 1 0.4085 
07-Jun-2018_16:06:33 7345 19 male R 3 2 21 self immoralOther H h 1 0.5036 
07-Jun-2018_16:06:35 7345 19 male R 3 2 22 self immoralOther H h 1 0.4377 
07-Jun-2018_16:06:37 7345 19 male R 3 2 23 self immoralSelf J j 1 0.3871 
07-Jun-2018_16:06:38 7345 19 male R 3 2 24 self moralSelf J j 1 0.2793 
07-Jun-2018_16:06:42 7345 19 male R 3 3 1 self moralSelf J j 1 0.4089 
07-Jun-2018_16:06:44 7345 19 male R 3 3 2 self moralSelf J j 1 0.2820 
07-Jun-2018_16:06:45 7345 19 male R 3 3 3 self immoralOther H h 1 0.3309 
07-Jun-2018_16:06:47 7345 19 male R 3 3 4 self moralOther H j 0 0.3917 
07-Jun-2018_16:06:49 7345 19 male R 3 3 5 self immoralOther H h 1 0.4252 
07-Jun-2018_16:06:50 7345 19 male R 3 3 6 self immoralOther H h 1 0.3179 
07-Jun-2018_16:06:52 7345 19 male R 3 3 7 self moralOther H h 1 0.3311 
07-Jun-2018_16:06:53 7345 19 male R 3 3 8 self immoralSelf J j 1 0.3726 
07-Jun-2018_16:06:54 7345 19 male R 3 3 9 self moralSelf J j 1 0.3449 
07-Jun-2018_16:06:56 7345 19 male R 3 3 10 self immoralSelf J j 1 0.2994 
07-Jun-2018_16:06:58 7345 19 male R 3 3 11 self immoralOther H h 1 0.3822 
07-Jun-2018_16:06:59 7345 19 male R 3 3 12 self immoralSelf J j 1 0.3159 
07-Jun-2018_16:07:00 7345 19 male R 3 3 13 self moralOther H j 0 0.3390 
07-Jun-2018_16:07:02 7345 19 male R 3 3 14 self moralOther H h 1 0.4469 
07-Jun-2018_16:07:04 7345 19 male R 3 3 15 self immoralOther H h 1 0.4273 
07-Jun-2018_16:07:05 7345 19 male R 3 3 16 self moralOther H h 1 0.3948 
07-Jun-2018_16:07:07 7345 19 male R 3 3 17 self immoralSelf J h 0 0.3431 
07-Jun-2018_16:07:08 7345 19 male R 3 3 18 self moralSelf J j 1 0.3502 
07-Jun-2018_16:07:10 7345 19 male R 3 3 19 self moralSelf J j 1 0.3221 
07-Jun-2018_16:07:11 7345 19 male R 3 3 20 self immoralOther H h 1 0.3442 
07-Jun-2018_16:07:13 7345 19 male R 3 3 21 self immoralSelf J j 1 0.3786 
07-Jun-2018_16:07:14 7345 19 male R 3 3 22 self moralSelf J j 1 0.3415 
07-Jun-2018_16:07:16 7345 19 male R 3 3 23 self moralOther H h 1 0.4277 
07-Jun-2018_16:07:17 7345 19 male R 3 3 24 self immoralSelf J j 1 0.4047 
07-Jun-2018_16:07:19 7345 19 male R 3 4 1 self moralSelf J j 1 0.3022 
07-Jun-2018_16:07:20 7345 19 male R 3 4 2 self moralOther H h 1 0.4081 
07-Jun-2018_16:07:22 7345 19 male R 3 4 3 self moralOther H h 1 0.3559 
07-Jun-2018_16:07:23 7345 19 male R 3 4 4 self moralOther H h 1 0.2764 
07-Jun-2018_16:07:25 7345 19 male R 3 4 5 self immoralOther H h 1 0.3852 
07-Jun-2018_16:07:27 7345 19 male R 3 4 6 self immoralOther H h 1 0.2898 
07-Jun-2018_16:07:28 7345 19 male R 3 4 7 self immoralSelf J j 1 0.4394 
07-Jun-2018_16:07:30 7345 19 male R 3 4 8 self moralSelf J j 1 0.5134 
07-Jun-2018_16:07:32 7345 19 male R 3 4 9 self moralOther H h 1 0.4843 
07-Jun-2018_16:07:34 7345 19 male R 3 4 10 self immoralOther H h 1 0.4612 
07-Jun-2018_16:07:35 7345 19 male R 3 4 11 self moralOther H h 1 0.3893 
07-Jun-2018_16:07:37 7345 19 male R 3 4 12 self immoralSelf J j 1 0.5175 
07-Jun-2018_16:07:38 7345 19 male R 3 4 13 self immoralSelf J j 1 0.4060 
07-Jun-2018_16:07:40 7345 19 male R 3 4 14 self immoralSelf J j 1 0.2653 
07-Jun-2018_16:07:42 7345 19 male R 3 4 15 self immoralOther H h 1 0.3967 
07-Jun-2018_16:07:43 7345 19 male R 3 4 16 self moralSelf J j 1 0.3284 
07-Jun-2018_16:07:45 7345 19 male R 3 4 17 self immoralSelf J j 1 0.4349 
07-Jun-2018_16:07:46 7345 19 male R 3 4 18 self immoralOther H h 1 0.3719 
07-Jun-2018_16:07:48 7345 19 male R 3 4 19 self moralOther H h 1 0.3673 
07-Jun-2018_16:07:50 7345 19 male R 3 4 20 self moralSelf J j 1 0.3104 
07-Jun-2018_16:07:51 7345 19 male R 3 4 21 self immoralOther H h 1 0.4300 
07-Jun-2018_16:07:52 7345 19 male R 3 4 22 self immoralSelf J j 1 0.2978 
07-Jun-2018_16:07:54 7345 19 male R 3 4 23 self moralSelf J j 1 0.4517 
07-Jun-2018_16:07:56 7345 19 male R 3 4 24 self moralSelf J j 1 0.3366 
07-Jun-2018_16:08:00 7345 19 male R 3 5 1 self immoralSelf J j 1 0.4462 
07-Jun-2018_16:08:01 7345 19 male R 3 5 2 self immoralOther H h 1 0.4013 
07-Jun-2018_16:08:03 7345 19 male R 3 5 3 self moralSelf J j 1 0.2723 
07-Jun-2018_16:08:05 7345 19 male R 3 5 4 self moralOther H h 1 0.3317 
07-Jun-2018_16:08:06 7345 19 male R 3 5 5 self moralOther H h 1 0.4429 
07-Jun-2018_16:08:08 7345 19 male R 3 5 6 self moralSelf J j 1 0.3060 
07-Jun-2018_16:08:09 7345 19 male R 3 5 7 self immoralSelf J h 0 0.3747 
07-Jun-2018_16:08:11 7345 19 male R 3 5 8 self moralSelf J j 1 0.3066 
07-Jun-2018_16:08:12 7345 19 male R 3 5 9 self moralOther H h 1 0.4383 
07-Jun-2018_16:08:14 7345 19 male R 3 5 10 self immoralOther H h 1 0.4845 
07-Jun-2018_16:08:16 7345 19 male R 3 5 11 self moralOther H h 1 0.4041 
07-Jun-2018_16:08:17 7345 19 male R 3 5 12 self immoralOther H h 1 0.4047 
07-Jun-2018_16:08:19 7345 19 male R 3 5 13 self immoralOther H h 1 0.3379 
07-Jun-2018_16:08:20 7345 19 male R 3 5 14 self immoralSelf J j 1 0.4048 
07-Jun-2018_16:08:22 7345 19 male R 3 5 15 self immoralOther H h 1 0.3898 
07-Jun-2018_16:08:23 7345 19 male R 3 5 16 self moralOther H h 1 0.4849 
07-Jun-2018_16:08:25 7345 19 male R 3 5 17 self moralSelf J j 1 0.3748 
07-Jun-2018_16:08:26 7345 19 male R 3 5 18 self immoralSelf J h 0 0.3331 
07-Jun-2018_16:08:28 7345 19 male R 3 5 19 self moralOther H h 1 0.4465 
07-Jun-2018_16:08:30 7345 19 male R 3 5 20 self moralSelf J j 1 0.3106 
07-Jun-2018_16:08:32 7345 19 male R 3 5 21 self immoralSelf J j 1 0.6048 
07-Jun-2018_16:08:34 7345 19 male R 3 5 22 self immoralSelf J j 1 0.3851 
07-Jun-2018_16:08:35 7345 19 male R 3 5 23 self moralSelf J j 1 0.3117 
07-Jun-2018_16:08:36 7345 19 male R 3 5 24 self immoralOther H j 0 0.3720 
Date Sub Age Sex Hand Block Bin Trial Task Shape corrResp Resp ACC RT
07-Jun-2018_16:10:34 7345 19 male R 4 1 1 moral moralOther U y 0 0.5230 
07-Jun-2018_16:10:36 7345 19 male R 4 1 2 moral immoralOther Y y 1 0.7415 
07-Jun-2018_16:10:38 7345 19 male R 4 1 3 moral immoralOther Y y 1 0.9011 
07-Jun-2018_16:10:40 7345 19 male R 4 1 4 moral moralOther U u 1 0.6937 
07-Jun-2018_16:10:42 7345 19 male R 4 1 5 moral moralSelf U u 1 0.5708 
07-Jun-2018_16:10:43 7345 19 male R 4 1 6 moral immoralOther Y y 1 0.5004 
07-Jun-2018_16:10:45 7345 19 male R 4 1 7 moral moralSelf U u 1 0.4717 
07-Jun-2018_16:10:46 7345 19 male R 4 1 8 moral moralSelf U u 1 0.4619 
07-Jun-2018_16:10:48 7345 19 male R 4 1 9 moral immoralSelf Y y 1 0.4666 
07-Jun-2018_16:10:50 7345 19 male R 4 1 10 moral immoralSelf Y y 1 0.5829 
07-Jun-2018_16:10:51 7345 19 male R 4 1 11 moral immoralOther Y y 1 0.5181 
07-Jun-2018_16:10:53 7345 19 male R 4 1 12 moral immoralOther Y y 1 0.3854 
07-Jun-2018_16:10:55 7345 19 male R 4 1 13 moral moralSelf U u 1 0.4688 
07-Jun-2018_16:10:56 7345 19 male R 4 1 14 moral moralSelf U u 1 0.4073 
07-Jun-2018_16:10:58 7345 19 male R 4 1 15 moral moralSelf U u 1 0.3744 
07-Jun-2018_16:11:00 7345 19 male R 4 1 16 moral moralOther U y 0 0.4539 
07-Jun-2018_16:11:02 7345 19 male R 4 1 17 moral moralOther U NA -1 1.1081 
07-Jun-2018_16:11:03 7345 19 male R 4 1 18 moral moralOther U u 1 0.2601 
07-Jun-2018_16:11:05 7345 19 male R 4 1 19 moral immoralSelf Y y 1 0.7215 
07-Jun-2018_16:11:07 7345 19 male R 4 1 20 moral immoralSelf Y u 0 0.6608 
07-Jun-2018_16:11:09 7345 19 male R 4 1 21 moral immoralSelf Y y 1 0.4336 
07-Jun-2018_16:11:10 7345 19 male R 4 1 22 moral immoralSelf Y y 1 0.3796 
07-Jun-2018_16:11:12 7345 19 male R 4 1 23 moral immoralOther Y y 1 0.4784 
07-Jun-2018_16:11:14 7345 19 male R 4 1 24 moral moralOther U u 1 0.7180 
07-Jun-2018_16:11:15 7345 19 male R 4 2 1 moral moralOther U u 1 0.3999 
07-Jun-2018_16:11:17 7345 19 male R 4 2 2 moral immoralOther Y y 1 0.4654 
07-Jun-2018_16:11:19 7345 19 male R 4 2 3 moral moralSelf U u 1 0.4439 
07-Jun-2018_16:11:20 7345 19 male R 4 2 4 moral moralOther U u 1 0.3164 
07-Jun-2018_16:11:22 7345 19 male R 4 2 5 moral moralSelf U u 1 0.4915 
07-Jun-2018_16:11:24 7345 19 male R 4 2 6 moral immoralSelf Y y 1 0.7174 
07-Jun-2018_16:11:25 7345 19 male R 4 2 7 moral moralSelf U u 1 0.4705 
07-Jun-2018_16:11:27 7345 19 male R 4 2 8 moral immoralOther Y y 1 0.5011 
07-Jun-2018_16:11:29 7345 19 male R 4 2 9 moral immoralSelf Y u 0 0.4542 
07-Jun-2018_16:11:30 7345 19 male R 4 2 10 moral moralOther U u 1 0.4527 
07-Jun-2018_16:11:32 7345 19 male R 4 2 11 moral immoralSelf Y y 1 0.4651 
07-Jun-2018_16:11:34 7345 19 male R 4 2 12 moral moralSelf U u 1 0.4835 
07-Jun-2018_16:11:35 7345 19 male R 4 2 13 moral immoralOther Y y 1 0.5494 
07-Jun-2018_16:11:38 7345 19 male R 4 2 14 moral immoralSelf Y y 1 1.0351 
07-Jun-2018_16:11:39 7345 19 male R 4 2 15 moral immoralOther Y y 1 0.5958 
07-Jun-2018_16:11:41 7345 19 male R 4 2 16 moral immoralSelf Y y 1 0.4735 
07-Jun-2018_16:11:43 7345 19 male R 4 2 17 moral moralSelf U u 1 0.4697 
07-Jun-2018_16:11:44 7345 19 male R 4 2 18 moral moralOther U u 1 0.6072 
07-Jun-2018_16:11:46 7345 19 male R 4 2 19 moral immoralOther Y y 1 0.4708 
07-Jun-2018_16:11:47 7345 19 male R 4 2 20 moral moralOther U y 0 0.6374 
07-Jun-2018_16:11:49 7345 19 male R 4 2 21 moral immoralSelf Y y 1 0.6582 
07-Jun-2018_16:11:51 7345 19 male R 4 2 22 moral immoralOther Y y 1 0.5355 
07-Jun-2018_16:11:52 7345 19 male R 4 2 23 moral moralSelf U u 1 0.4898 
07-Jun-2018_16:11:54 7345 19 male R 4 2 24 moral moralOther U y 0 0.6748 
07-Jun-2018_16:11:58 7345 19 male R 4 3 1 moral immoralOther Y y 1 0.4332 
07-Jun-2018_16:12:00 7345 19 male R 4 3 2 moral immoralOther Y y 1 0.4328 
07-Jun-2018_16:12:02 7345 19 male R 4 3 3 moral moralOther U y 0 0.4178 
07-Jun-2018_16:12:03 7345 19 male R 4 3 4 moral moralOther U u 1 0.4659 
07-Jun-2018_16:12:05 7345 19 male R 4 3 5 moral moralOther U u 1 0.3582 
07-Jun-2018_16:12:06 7345 19 male R 4 3 6 moral moralOther U u 1 0.2782 
07-Jun-2018_16:12:08 7345 19 male R 4 3 7 moral immoralOther Y y 1 0.5394 
07-Jun-2018_16:12:10 7345 19 male R 4 3 8 moral immoralSelf Y y 1 0.6326 
07-Jun-2018_16:12:11 7345 19 male R 4 3 9 moral immoralOther Y y 1 0.5739 
07-Jun-2018_16:12:13 7345 19 male R 4 3 10 moral immoralSelf Y y 1 0.3589 
07-Jun-2018_16:12:14 7345 19 male R 4 3 11 moral moralOther U u 1 0.5209 
07-Jun-2018_16:12:16 7345 19 male R 4 3 12 moral immoralOther Y y 1 0.4489 
07-Jun-2018_16:12:18 7345 19 male R 4 3 13 moral moralSelf U u 1 0.4951 
07-Jun-2018_16:12:19 7345 19 male R 4 3 14 moral moralSelf U u 1 0.4383 
07-Jun-2018_16:12:21 7345 19 male R 4 3 15 moral immoralSelf Y y 1 0.6138 
07-Jun-2018_16:12:23 7345 19 male R 4 3 16 moral moralSelf U u 1 0.4991 
07-Jun-2018_16:12:25 7345 19 male R 4 3 17 moral immoralSelf Y y 1 0.5368 
07-Jun-2018_16:12:26 7345 19 male R 4 3 18 moral immoralOther Y y 1 0.5458 
07-Jun-2018_16:12:28 7345 19 male R 4 3 19 moral moralSelf U u 1 0.5529 
07-Jun-2018_16:12:30 7345 19 male R 4 3 20 moral moralOther U y 0 0.3808 
07-Jun-2018_16:12:32 7345 19 male R 4 3 21 moral immoralSelf Y y 1 0.6208 
07-Jun-2018_16:12:34 7345 19 male R 4 3 22 moral moralSelf U u 1 0.4425 
07-Jun-2018_16:12:36 7345 19 male R 4 3 23 moral immoralSelf Y y 1 0.6069 
07-Jun-2018_16:12:37 7345 19 male R 4 3 24 moral moralSelf U u 1 0.4705 
07-Jun-2018_16:12:39 7345 19 male R 4 4 1 moral immoralOther Y y 1 0.5980 
07-Jun-2018_16:12:41 7345 19 male R 4 4 2 moral moralSelf U u 1 0.4334 
07-Jun-2018_16:12:42 7345 19 male R 4 4 3 moral moralSelf U u 1 0.3822 
07-Jun-2018_16:12:44 7345 19 male R 4 4 4 moral moralOther U u 1 0.5569 
07-Jun-2018_16:12:45 7345 19 male R 4 4 5 moral moralOther U u 1 0.3000 
07-Jun-2018_16:12:47 7345 19 male R 4 4 6 moral immoralOther Y y 1 0.3730 
07-Jun-2018_16:12:49 7345 19 male R 4 4 7 moral immoralSelf Y y 1 0.4907 
07-Jun-2018_16:12:50 7345 19 male R 4 4 8 moral moralSelf U u 1 0.4489 
07-Jun-2018_16:12:52 7345 19 male R 4 4 9 moral immoralSelf Y u 0 0.4729 
07-Jun-2018_16:12:54 7345 19 male R 4 4 10 moral immoralOther Y y 1 0.4824 
07-Jun-2018_16:12:56 7345 19 male R 4 4 11 moral immoralSelf Y y 1 0.5107 
07-Jun-2018_16:12:57 7345 19 male R 4 4 12 moral immoralSelf Y y 1 0.3556 
07-Jun-2018_16:12:59 7345 19 male R 4 4 13 moral moralOther U u 1 0.5857 
07-Jun-2018_16:13:01 7345 19 male R 4 4 14 moral moralOther U u 1 0.3434 
07-Jun-2018_16:13:03 7345 19 male R 4 4 15 moral moralSelf U u 1 0.4587 
07-Jun-2018_16:13:04 7345 19 male R 4 4 16 moral moralSelf U u 1 0.3408 
07-Jun-2018_16:13:06 7345 19 male R 4 4 17 moral immoralOther Y y 1 0.4260 
07-Jun-2018_16:13:07 7345 19 male R 4 4 18 moral immoralOther Y y 1 0.3164 
07-Jun-2018_16:13:09 7345 19 male R 4 4 19 moral immoralOther Y y 1 0.4551 
07-Jun-2018_16:13:10 7345 19 male R 4 4 20 moral moralOther U u 1 0.5951 
07-Jun-2018_16:13:12 7345 19 male R 4 4 21 moral moralOther U u 1 0.3593 
07-Jun-2018_16:13:13 7345 19 male R 4 4 22 moral moralSelf U u 1 0.3830 
07-Jun-2018_16:13:15 7345 19 male R 4 4 23 moral immoralSelf Y y 1 0.4790 
07-Jun-2018_16:13:17 7345 19 male R 4 4 24 moral immoralSelf Y u 0 0.5304 
07-Jun-2018_16:13:22 7345 19 male R 4 5 1 moral immoralOther Y NA -1 1.1081 
07-Jun-2018_16:13:23 7345 19 male R 4 5 2 moral immoralSelf Y y 1 0.4149 
07-Jun-2018_16:13:25 7345 19 male R 4 5 3 moral immoralSelf Y y 1 0.4263 
07-Jun-2018_16:13:27 7345 19 male R 4 5 4 moral moralOther U u 1 0.6574 
07-Jun-2018_16:13:29 7345 19 male R 4 5 5 moral moralSelf U u 1 0.3708 
07-Jun-2018_16:13:30 7345 19 male R 4 5 6 moral moralSelf U u 1 0.3328 
07-Jun-2018_16:13:32 7345 19 male R 4 5 7 moral immoralSelf Y u 0 0.5442 
07-Jun-2018_16:13:33 7345 19 male R 4 5 8 moral moralSelf U u 1 0.4167 
07-Jun-2018_16:13:35 7345 19 male R 4 5 9 moral immoralOther Y y 1 0.4421 
07-Jun-2018_16:13:37 7345 19 male R 4 5 10 moral moralOther U y 0 0.4299 
07-Jun-2018_16:13:39 7345 19 male R 4 5 11 moral moralOther U u 1 0.5209 
07-Jun-2018_16:13:40 7345 19 male R 4 5 12 moral immoralOther Y y 1 0.5003 
07-Jun-2018_16:13:42 7345 19 male R 4 5 13 moral immoralOther Y y 1 0.5224 
07-Jun-2018_16:13:43 7345 19 male R 4 5 14 moral moralOther U u 1 0.4434 
07-Jun-2018_16:13:45 7345 19 male R 4 5 15 moral immoralOther Y y 1 0.4012 
07-Jun-2018_16:13:46 7345 19 male R 4 5 16 moral immoralSelf Y y 1 0.5913 
07-Jun-2018_16:13:48 7345 19 male R 4 5 17 moral moralOther U u 1 0.4399 
07-Jun-2018_16:13:50 7345 19 male R 4 5 18 moral moralSelf U u 1 0.4333 
07-Jun-2018_16:13:51 7345 19 male R 4 5 19 moral moralOther U u 1 0.4532 
07-Jun-2018_16:13:53 7345 19 male R 4 5 20 moral immoralSelf Y u 0 0.3497 
07-Jun-2018_16:13:55 7345 19 male R 4 5 21 moral immoralSelf Y u 0 0.4636 
07-Jun-2018_16:13:56 7345 19 male R 4 5 22 moral moralSelf U u 1 0.4924 
07-Jun-2018_16:13:58 7345 19 male R 4 5 23 moral immoralOther Y y 1 0.4709 
07-Jun-2018_16:14:00 7345 19 male R 4 5 24 moral moralSelf U u 1 0.4027 
Date Sub Age Sex Hand Block Bin Trial Task Shape corrResp Resp ACC RT
07-Jun-2018_16:16:00 7345 19 male R 5 1 1 self moralSelf J j 1 0.4544 
07-Jun-2018_16:16:01 7345 19 male R 5 1 2 self immoralSelf J j 1 0.4569 
07-Jun-2018_16:16:03 7345 19 male R 5 1 3 self immoralSelf J j 1 0.4768 
07-Jun-2018_16:16:05 7345 19 male R 5 1 4 self moralSelf J j 1 0.3130 
07-Jun-2018_16:16:06 7345 19 male R 5 1 5 self immoralOther H h 1 0.5235 
07-Jun-2018_16:16:08 7345 19 male R 5 1 6 self immoralSelf J j 1 0.5456 
07-Jun-2018_16:16:09 7345 19 male R 5 1 7 self moralOther H j 0 0.4055 
07-Jun-2018_16:16:11 7345 19 male R 5 1 8 self immoralSelf J j 1 0.4366 
07-Jun-2018_16:16:13 7345 19 male R 5 1 9 self moralOther H h 1 0.4861 
07-Jun-2018_16:16:15 7345 19 male R 5 1 10 self immoralOther H h 1 0.4583 
07-Jun-2018_16:16:16 7345 19 male R 5 1 11 self moralOther H h 1 0.5611 
07-Jun-2018_16:16:18 7345 19 male R 5 1 12 self moralSelf J j 1 0.4763 
07-Jun-2018_16:16:20 7345 19 male R 5 1 13 self immoralSelf J j 1 0.4091 
07-Jun-2018_16:16:21 7345 19 male R 5 1 14 self immoralSelf J j 1 0.3180 
07-Jun-2018_16:16:23 7345 19 male R 5 1 15 self moralOther H h 1 0.4785 
07-Jun-2018_16:16:25 7345 19 male R 5 1 16 self moralSelf J j 1 0.4267 
07-Jun-2018_16:16:26 7345 19 male R 5 1 17 self moralSelf J j 1 0.3491 
07-Jun-2018_16:16:27 7345 19 male R 5 1 18 self moralSelf J j 1 0.2710 
07-Jun-2018_16:16:29 7345 19 male R 5 1 19 self immoralOther H h 1 0.4844 
07-Jun-2018_16:16:31 7345 19 male R 5 1 20 self moralOther H h 1 0.6962 
07-Jun-2018_16:16:32 7345 19 male R 5 1 21 self immoralOther H h 1 0.5719 
07-Jun-2018_16:16:34 7345 19 male R 5 1 22 self immoralOther H h 1 0.3344 
07-Jun-2018_16:16:35 7345 19 male R 5 1 23 self moralOther H h 1 0.3415 
07-Jun-2018_16:16:37 7345 19 male R 5 1 24 self immoralOther H h 1 0.3877 
07-Jun-2018_16:16:38 7345 19 male R 5 2 1 self moralSelf J j 1 0.2701 
07-Jun-2018_16:16:40 7345 19 male R 5 2 2 self immoralSelf J j 1 0.3869 
07-Jun-2018_16:16:41 7345 19 male R 5 2 3 self moralSelf J j 1 0.2608 
07-Jun-2018_16:16:43 7345 19 male R 5 2 4 self moralSelf J j 1 0.2821 
07-Jun-2018_16:16:45 7345 19 male R 5 2 5 self moralOther H h 1 0.5192 
07-Jun-2018_16:16:46 7345 19 male R 5 2 6 self immoralSelf J j 1 0.3618 
07-Jun-2018_16:16:48 7345 19 male R 5 2 7 self immoralSelf J j 1 0.4375 
07-Jun-2018_16:16:50 7345 19 male R 5 2 8 self immoralOther H h 1 0.4616 
07-Jun-2018_16:16:52 7345 19 male R 5 2 9 self immoralOther H h 1 0.3107 
07-Jun-2018_16:16:53 7345 19 male R 5 2 10 self immoralSelf J j 1 0.4524 
07-Jun-2018_16:16:55 7345 19 male R 5 2 11 self immoralOther H h 1 0.3757 
07-Jun-2018_16:16:56 7345 19 male R 5 2 12 self moralOther H j 0 0.3245 
07-Jun-2018_16:16:58 7345 19 male R 5 2 13 self moralOther H h 1 0.2784 
07-Jun-2018_16:16:59 7345 19 male R 5 2 14 self immoralOther H h 1 0.3670 
07-Jun-2018_16:17:01 7345 19 male R 5 2 15 self moralSelf J j 1 0.4220 
07-Jun-2018_16:17:02 7345 19 male R 5 2 16 self moralOther H h 1 0.3411 
07-Jun-2018_16:17:03 7345 19 male R 5 2 17 self moralSelf J j 1 0.3445 
07-Jun-2018_16:17:05 7345 19 male R 5 2 18 self immoralSelf J h 0 0.3907 
07-Jun-2018_16:17:06 7345 19 male R 5 2 19 self immoralSelf J j 1 0.2534 
07-Jun-2018_16:17:08 7345 19 male R 5 2 20 self moralSelf J j 1 0.2845 
07-Jun-2018_16:17:09 7345 19 male R 5 2 21 self immoralOther H h 1 0.4732 
07-Jun-2018_16:17:11 7345 19 male R 5 2 22 self moralOther H h 1 0.5434 
07-Jun-2018_16:17:13 7345 19 male R 5 2 23 self moralOther H h 1 0.3999 
07-Jun-2018_16:17:15 7345 19 male R 5 2 24 self immoralOther H h 1 0.3638 
07-Jun-2018_16:17:21 7345 19 male R 5 3 1 self immoralOther H h 1 0.3937 
07-Jun-2018_16:17:23 7345 19 male R 5 3 2 self immoralOther H h 1 0.3091 
07-Jun-2018_16:17:24 7345 19 male R 5 3 3 self moralSelf J j 1 0.4502 
07-Jun-2018_16:17:25 7345 19 male R 5 3 4 self moralSelf J j 1 0.3304 
07-Jun-2018_16:17:27 7345 19 male R 5 3 5 self moralOther H h 1 0.4414 
07-Jun-2018_16:17:28 7345 19 male R 5 3 6 self moralSelf J j 1 0.3248 
07-Jun-2018_16:17:30 7345 19 male R 5 3 7 self immoralOther H h 1 0.3653 
07-Jun-2018_16:17:31 7345 19 male R 5 3 8 self moralSelf J j 1 0.2972 
07-Jun-2018_16:17:33 7345 19 male R 5 3 9 self immoralSelf J j 1 0.4727 
07-Jun-2018_16:17:34 7345 19 male R 5 3 10 self moralSelf J j 1 0.2357 
07-Jun-2018_16:17:36 7345 19 male R 5 3 11 self moralOther H j 0 0.3702 
07-Jun-2018_16:17:37 7345 19 male R 5 3 12 self moralOther H h 1 0.2917 
07-Jun-2018_16:17:39 7345 19 male R 5 3 13 self immoralSelf J h 0 0.2621 
07-Jun-2018_16:17:40 7345 19 male R 5 3 14 self immoralOther H h 1 0.4782 
07-Jun-2018_16:17:42 7345 19 male R 5 3 15 self moralSelf J j 1 0.3954 
07-Jun-2018_16:17:44 7345 19 male R 5 3 16 self immoralSelf J j 1 0.3950 
07-Jun-2018_16:17:45 7345 19 male R 5 3 17 self moralOther H h 1 0.5297 
07-Jun-2018_16:17:47 7345 19 male R 5 3 18 self immoralSelf J j 1 0.4220 
07-Jun-2018_16:17:49 7345 19 male R 5 3 19 self immoralOther H h 1 0.4400 
07-Jun-2018_16:17:50 7345 19 male R 5 3 20 self immoralSelf J j 1 0.3892 
07-Jun-2018_16:17:52 7345 19 male R 5 3 21 self immoralSelf J j 1 0.3342 
07-Jun-2018_16:17:53 7345 19 male R 5 3 22 self immoralOther H h 1 0.4378 
07-Jun-2018_16:17:55 7345 19 male R 5 3 23 self moralOther H j 0 0.4186 
07-Jun-2018_16:17:56 7345 19 male R 5 3 24 self moralOther H h 1 0.3434 
07-Jun-2018_16:17:58 7345 19 male R 5 4 1 self moralOther H h 1 0.2958 
07-Jun-2018_16:18:00 7345 19 male R 5 4 2 self immoralSelf J h 0 0.2325 
07-Jun-2018_16:18:01 7345 19 male R 5 4 3 self immoralSelf J j 1 0.2936 
07-Jun-2018_16:18:02 7345 19 male R 5 4 4 self moralSelf J j 1 0.2579 
07-Jun-2018_16:18:04 7345 19 male R 5 4 5 self immoralSelf J j 1 0.3459 
07-Jun-2018_16:18:05 7345 19 male R 5 4 6 self moralOther H j 0 0.3493 
07-Jun-2018_16:18:07 7345 19 male R 5 4 7 self moralOther H h 1 0.4505 
07-Jun-2018_16:18:08 7345 19 male R 5 4 8 self moralOther H h 1 0.3160 
07-Jun-2018_16:18:10 7345 19 male R 5 4 9 self immoralSelf J h 0 0.2869 
07-Jun-2018_16:18:11 7345 19 male R 5 4 10 self moralSelf J j 1 0.2931 
07-Jun-2018_16:18:13 7345 19 male R 5 4 11 self immoralSelf J j 1 0.3111 
07-Jun-2018_16:18:14 7345 19 male R 5 4 12 self moralSelf J j 1 0.3360 
07-Jun-2018_16:18:16 7345 19 male R 5 4 13 self immoralOther H h 1 0.4419 
07-Jun-2018_16:18:17 7345 19 male R 5 4 14 self moralOther H h 1 0.4034 
07-Jun-2018_16:18:19 7345 19 male R 5 4 15 self immoralOther H h 1 0.3156 
07-Jun-2018_16:18:20 7345 19 male R 5 4 16 self moralSelf J h 0 0.3142 
07-Jun-2018_16:18:22 7345 19 male R 5 4 17 self immoralOther H h 1 0.5439 
07-Jun-2018_16:18:24 7345 19 male R 5 4 18 self immoralSelf J j 1 0.4014 
07-Jun-2018_16:18:25 7345 19 male R 5 4 19 self moralSelf J j 1 0.3299 
07-Jun-2018_16:18:27 7345 19 male R 5 4 20 self moralOther H h 1 0.5233 
07-Jun-2018_16:18:29 7345 19 male R 5 4 21 self immoralOther H h 1 0.4336 
07-Jun-2018_16:18:31 7345 19 male R 5 4 22 self immoralOther H h 1 0.3221 
07-Jun-2018_16:18:32 7345 19 male R 5 4 23 self immoralOther H h 1 0.2925 
07-Jun-2018_16:18:34 7345 19 male R 5 4 24 self moralSelf J j 1 0.4464 
07-Jun-2018_16:18:41 7345 19 male R 5 5 1 self moralOther H h 1 0.4321 
07-Jun-2018_16:18:42 7345 19 male R 5 5 2 self moralOther H h 1 0.4274 
07-Jun-2018_16:18:44 7345 19 male R 5 5 3 self immoralSelf J j 1 0.5014 
07-Jun-2018_16:18:46 7345 19 male R 5 5 4 self immoralOther H h 1 0.4318 
07-Jun-2018_16:18:48 7345 19 male R 5 5 5 self immoralSelf J j 1 0.5392 
07-Jun-2018_16:18:49 7345 19 male R 5 5 6 self moralSelf J j 1 0.3971 
07-Jun-2018_16:18:51 7345 19 male R 5 5 7 self immoralOther H h 1 0.3822 
07-Jun-2018_16:18:53 7345 19 male R 5 5 8 self moralOther H j 0 0.4086 
07-Jun-2018_16:18:54 7345 19 male R 5 5 9 self immoralOther H h 1 0.3696 
07-Jun-2018_16:18:56 7345 19 male R 5 5 10 self moralSelf J j 1 0.4238 
07-Jun-2018_16:18:58 7345 19 male R 5 5 11 self immoralSelf J j 1 0.3279 
07-Jun-2018_16:18:59 7345 19 male R 5 5 12 self immoralSelf J j 1 0.3142 
07-Jun-2018_16:19:01 7345 19 male R 5 5 13 self moralSelf J j 1 0.2682 
07-Jun-2018_16:19:02 7345 19 male R 5 5 14 self moralSelf J j 1 0.3440 
07-Jun-2018_16:19:04 7345 19 male R 5 5 15 self moralSelf J j 1 0.3159 
07-Jun-2018_16:19:05 7345 19 male R 5 5 16 self moralOther H h 1 0.4180 
07-Jun-2018_16:19:07 7345 19 male R 5 5 17 self moralSelf J j 1 0.3936 
07-Jun-2018_16:19:08 7345 19 male R 5 5 18 self immoralOther H h 1 0.3768 
07-Jun-2018_16:19:10 7345 19 male R 5 5 19 self immoralOther H h 1 0.3740 
07-Jun-2018_16:19:12 7345 19 male R 5 5 20 self moralOther H h 1 0.3472 
07-Jun-2018_16:19:13 7345 19 male R 5 5 21 self immoralSelf J j 1 0.4249 
07-Jun-2018_16:19:15 7345 19 male R 5 5 22 self immoralSelf J j 1 0.3351 
07-Jun-2018_16:19:16 7345 19 male R 5 5 23 self immoralOther H h 1 0.4232 
07-Jun-2018_16:19:18 7345 19 male R 5 5 24 self moralOther H h 1 0.4049 
Date Sub Age Sex Hand Block Bin Trial Task Shape corrResp Resp ACC RT
07-Jun-2018_16:21:47 7345 19 male R 6 1 1 moral moralSelf U u 1 0.5217 
07-Jun-2018_16:21:49 7345 19 male R 6 1 2 moral moralSelf U u 1 0.4018 
07-Jun-2018_16:21:50 7345 19 male R 6 1 3 moral immoralOther Y y 1 0.5270 
07-Jun-2018_16:21:52 7345 19 male R 6 1 4 moral moralOther U u 1 0.6057 
07-Jun-2018_16:21:54 7345 19 male R 6 1 5 moral moralSelf U u 1 0.4674 
07-Jun-2018_16:21:56 7345 19 male R 6 1 6 moral moralOther U u 1 0.4873 
07-Jun-2018_16:21:57 7345 19 male R 6 1 7 moral moralOther U u 1 0.3146 
07-Jun-2018_16:21:59 7345 19 male R 6 1 8 moral immoralOther Y u 0 0.2631 
07-Jun-2018_16:22:00 7345 19 male R 6 1 9 moral immoralOther Y y 1 0.2898 
07-Jun-2018_16:22:01 7345 19 male R 6 1 10 moral immoralSelf Y y 1 0.3064 
07-Jun-2018_16:22:03 7345 19 male R 6 1 11 moral immoralSelf Y y 1 0.3314 
07-Jun-2018_16:22:05 7345 19 male R 6 1 12 moral immoralOther Y y 1 0.4189 
07-Jun-2018_16:22:06 7345 19 male R 6 1 13 moral moralOther U y 0 0.4613 
07-Jun-2018_16:22:08 7345 19 male R 6 1 14 moral moralOther U u 1 0.3216 
07-Jun-2018_16:22:10 7345 19 male R 6 1 15 moral immoralSelf Y u 0 0.5123 
07-Jun-2018_16:22:11 7345 19 male R 6 1 16 moral immoralSelf Y y 1 0.4385 
07-Jun-2018_16:22:13 7345 19 male R 6 1 17 moral immoralSelf Y y 1 0.4682 
07-Jun-2018_16:22:14 7345 19 male R 6 1 18 moral immoralOther Y y 1 0.4626 
07-Jun-2018_16:22:16 7345 19 male R 6 1 19 moral immoralSelf Y y 1 0.3488 
07-Jun-2018_16:22:18 7345 19 male R 6 1 20 moral moralOther U u 1 0.4467 
07-Jun-2018_16:22:19 7345 19 male R 6 1 21 moral moralSelf U u 1 0.4232 
07-Jun-2018_16:22:21 7345 19 male R 6 1 22 moral moralSelf U u 1 0.4751 
07-Jun-2018_16:22:23 7345 19 male R 6 1 23 moral moralSelf U u 1 0.2409 
07-Jun-2018_16:22:24 7345 19 male R 6 1 24 moral immoralOther Y y 1 0.4922 
07-Jun-2018_16:22:26 7345 19 male R 6 2 1 moral moralOther U u 1 0.6080 
07-Jun-2018_16:22:28 7345 19 male R 6 2 2 moral moralOther U u 1 0.3314 
07-Jun-2018_16:22:29 7345 19 male R 6 2 3 moral immoralOther Y u 0 0.2209 
07-Jun-2018_16:22:31 7345 19 male R 6 2 4 moral immoralSelf Y y 1 0.4821 
07-Jun-2018_16:22:32 7345 19 male R 6 2 5 moral moralSelf U y 0 0.3311 
07-Jun-2018_16:22:34 7345 19 male R 6 2 6 moral moralOther U y 0 0.5641 
07-Jun-2018_16:22:36 7345 19 male R 6 2 7 moral immoralOther Y y 1 0.6027 
07-Jun-2018_16:22:37 7345 19 male R 6 2 8 moral moralOther U u 1 0.4320 
07-Jun-2018_16:22:39 7345 19 male R 6 2 9 moral immoralSelf Y y 1 0.6532 
07-Jun-2018_16:22:41 7345 19 male R 6 2 10 moral moralSelf U u 1 0.3992 
07-Jun-2018_16:22:42 7345 19 male R 6 2 11 moral immoralSelf Y y 1 0.5606 
07-Jun-2018_16:22:44 7345 19 male R 6 2 12 moral immoralOther Y y 1 0.5693 
07-Jun-2018_16:22:46 7345 19 male R 6 2 13 moral moralSelf U u 1 0.3801 
07-Jun-2018_16:22:47 7345 19 male R 6 2 14 moral moralSelf U u 1 0.2879 
07-Jun-2018_16:22:49 7345 19 male R 6 2 15 moral immoralOther Y u 0 0.4335 
07-Jun-2018_16:22:50 7345 19 male R 6 2 16 moral moralSelf U u 1 0.4325 
07-Jun-2018_16:22:52 7345 19 male R 6 2 17 moral immoralSelf Y u 0 0.6307 
07-Jun-2018_16:22:54 7345 19 male R 6 2 18 moral moralOther U u 1 0.4392 
07-Jun-2018_16:22:55 7345 19 male R 6 2 19 moral moralOther U u 1 0.3602 
07-Jun-2018_16:22:57 7345 19 male R 6 2 20 moral immoralOther Y y 1 0.4822 
07-Jun-2018_16:22:59 7345 19 male R 6 2 21 moral moralSelf U u 1 0.4705 
07-Jun-2018_16:23:01 7345 19 male R 6 2 22 moral immoralSelf Y y 1 0.7496 
07-Jun-2018_16:23:03 7345 19 male R 6 2 23 moral immoralSelf Y y 1 0.4899 
07-Jun-2018_16:23:04 7345 19 male R 6 2 24 moral immoralOther Y y 1 0.6519 
07-Jun-2018_16:23:08 7345 19 male R 6 3 1 moral moralSelf U u 1 0.5721 
07-Jun-2018_16:23:10 7345 19 male R 6 3 2 moral moralOther U y 0 0.6206 
07-Jun-2018_16:23:12 7345 19 male R 6 3 3 moral moralOther U u 1 0.3994 
07-Jun-2018_16:23:13 7345 19 male R 6 3 4 moral moralSelf U u 1 0.3440 
07-Jun-2018_16:23:15 7345 19 male R 6 3 5 moral moralOther U u 1 0.3172 
07-Jun-2018_16:23:16 7345 19 male R 6 3 6 moral moralOther U u 1 0.3268 
07-Jun-2018_16:23:18 7345 19 male R 6 3 7 moral moralSelf U u 1 0.1062 
07-Jun-2018_16:23:19 7345 19 male R 6 3 8 moral immoralSelf Y y 1 0.4158 
07-Jun-2018_16:23:21 7345 19 male R 6 3 9 moral moralSelf U u 1 0.4412 
07-Jun-2018_16:23:22 7345 19 male R 6 3 10 moral immoralOther Y y 1 0.5038 
07-Jun-2018_16:23:24 7345 19 male R 6 3 11 moral immoralSelf Y y 1 0.5016 
07-Jun-2018_16:23:25 7345 19 male R 6 3 12 moral immoralSelf Y y 1 0.3849 
07-Jun-2018_16:23:27 7345 19 male R 6 3 13 moral moralSelf U u 1 0.4222 
07-Jun-2018_16:23:29 7345 19 male R 6 3 14 moral immoralOther Y y 1 0.4665 
07-Jun-2018_16:23:31 7345 19 male R 6 3 15 moral moralOther U u 1 0.4924 
07-Jun-2018_16:23:32 7345 19 male R 6 3 16 moral immoralSelf Y y 1 0.5146 
07-Jun-2018_16:23:34 7345 19 male R 6 3 17 moral moralSelf U u 1 0.4182 
07-Jun-2018_16:23:35 7345 19 male R 6 3 18 moral immoralOther Y y 1 0.4560 
07-Jun-2018_16:23:37 7345 19 male R 6 3 19 moral immoralSelf Y u 0 0.4932 
07-Jun-2018_16:23:39 7345 19 male R 6 3 20 moral immoralOther Y y 1 0.4876 
07-Jun-2018_16:23:40 7345 19 male R 6 3 21 moral moralOther U u 1 0.4486 
07-Jun-2018_16:23:42 7345 19 male R 6 3 22 moral immoralOther Y y 1 0.5394 
07-Jun-2018_16:23:44 7345 19 male R 6 3 23 moral immoralSelf Y y 1 0.7089 
07-Jun-2018_16:23:46 7345 19 male R 6 3 24 moral immoralOther Y y 1 0.4620 
07-Jun-2018_16:23:48 7345 19 male R 6 4 1 moral immoralSelf Y y 1 0.5999 
07-Jun-2018_16:23:49 7345 19 male R 6 4 2 moral moralOther U u 1 0.4202 
07-Jun-2018_16:23:51 7345 19 male R 6 4 3 moral moralOther U u 1 0.3511 
07-Jun-2018_16:23:53 7345 19 male R 6 4 4 moral moralSelf U u 1 0.4166 
07-Jun-2018_16:23:54 7345 19 male R 6 4 5 moral moralOther U u 1 0.3620 
07-Jun-2018_16:23:56 7345 19 male R 6 4 6 moral immoralOther Y y 1 0.5075 
07-Jun-2018_16:23:57 7345 19 male R 6 4 7 moral moralOther U u 1 0.5038 
07-Jun-2018_16:23:59 7345 19 male R 6 4 8 moral moralSelf U u 1 0.3994 
07-Jun-2018_16:24:00 7345 19 male R 6 4 9 moral immoralSelf Y y 1 0.4108 
07-Jun-2018_16:24:02 7345 19 male R 6 4 10 moral immoralSelf Y y 1 0.5431 
07-Jun-2018_16:24:04 7345 19 male R 6 4 11 moral immoralOther Y u 0 0.3512 
07-Jun-2018_16:24:05 7345 19 male R 6 4 12 moral immoralSelf Y y 1 0.3550 
07-Jun-2018_16:24:07 7345 19 male R 6 4 13 moral immoralOther Y u 0 0.7480 
07-Jun-2018_16:24:09 7345 19 male R 6 4 14 moral immoralOther Y y 1 0.3443 
07-Jun-2018_16:24:10 7345 19 male R 6 4 15 moral immoralOther Y y 1 0.4173 
07-Jun-2018_16:24:12 7345 19 male R 6 4 16 moral immoralSelf Y y 1 0.3806 
07-Jun-2018_16:24:13 7345 19 male R 6 4 17 moral moralSelf U y 0 0.2650 
07-Jun-2018_16:24:15 7345 19 male R 6 4 18 moral immoralOther Y y 1 0.4735 
07-Jun-2018_16:24:16 7345 19 male R 6 4 19 moral moralOther U u 1 0.4086 
07-Jun-2018_16:24:18 7345 19 male R 6 4 20 moral moralOther U u 1 0.2896 
07-Jun-2018_16:24:19 7345 19 male R 6 4 21 moral moralSelf U u 1 0.2266 
07-Jun-2018_16:24:21 7345 19 male R 6 4 22 moral moralSelf U u 1 0.3378 
07-Jun-2018_16:24:22 7345 19 male R 6 4 23 moral immoralSelf Y y 1 0.4855 
07-Jun-2018_16:24:24 7345 19 male R 6 4 24 moral moralSelf U u 1 0.4174 
07-Jun-2018_16:24:28 7345 19 male R 6 5 1 moral moralOther U u 1 0.4335 
07-Jun-2018_16:24:30 7345 19 male R 6 5 2 moral immoralSelf Y u 0 0.3847 
07-Jun-2018_16:24:32 7345 19 male R 6 5 3 moral moralOther U u 1 0.3969 
07-Jun-2018_16:24:34 7345 19 male R 6 5 4 moral moralSelf U u 1 0.4135 
07-Jun-2018_16:24:35 7345 19 male R 6 5 5 moral immoralOther Y y 1 0.4225 
07-Jun-2018_16:24:36 7345 19 male R 6 5 6 moral moralSelf U u 1 0.5354 
07-Jun-2018_16:24:38 7345 19 male R 6 5 7 moral immoralOther Y y 1 0.5252 
07-Jun-2018_16:24:40 7345 19 male R 6 5 8 moral immoralOther Y y 1 0.4730 
07-Jun-2018_16:24:41 7345 19 male R 6 5 9 moral moralSelf U u 1 0.4608 
07-Jun-2018_16:24:43 7345 19 male R 6 5 10 moral immoralOther Y y 1 0.4312 
07-Jun-2018_16:24:44 7345 19 male R 6 5 11 moral immoralOther Y y 1 0.5345 
07-Jun-2018_16:24:46 7345 19 male R 6 5 12 moral immoralSelf Y u 0 0.6022 
07-Jun-2018_16:24:48 7345 19 male R 6 5 13 moral moralSelf U u 1 0.5256 
07-Jun-2018_16:24:49 7345 19 male R 6 5 14 moral moralSelf U u 1 0.4014 
07-Jun-2018_16:24:51 7345 19 male R 6 5 15 moral immoralSelf Y y 1 0.4598 
07-Jun-2018_16:24:53 7345 19 male R 6 5 16 moral immoralOther Y y 1 0.5290 
07-Jun-2018_16:24:54 7345 19 male R 6 5 17 moral moralOther U y 0 0.3909 
07-Jun-2018_16:24:56 7345 19 male R 6 5 18 moral moralOther U u 1 0.3268 
07-Jun-2018_16:24:57 7345 19 male R 6 5 19 moral immoralSelf Y y 1 0.5203 
07-Jun-2018_16:24:59 7345 19 male R 6 5 20 moral moralSelf U u 1 0.4139 
07-Jun-2018_16:25:01 7345 19 male R 6 5 21 moral moralOther U u 1 0.5393 
07-Jun-2018_16:25:03 7345 19 male R 6 5 22 moral immoralSelf Y y 1 0.4664 
07-Jun-2018_16:25:04 7345 19 male R 6 5 23 moral moralOther U u 1 0.4763 
07-Jun-2018_16:25:06 7345 19 male R 6 5 24 moral immoralSelf Y y 1 0.5884 
