"Date","Prac","Sub","Age","Sex","Hand","Block","Bin","Trial","Shape","Label","Match","CorrResp","Resp","ACC","RT"
NA,"Exp",7302,22,"female","R",1,1,1,"immoralSelf","immoralOther","mismatch","n","m",0,0.7561
NA,"Exp",7302,22,"female","R",1,1,2,"moralOther","moralSelf","mismatch","n","n",1,0.7043
NA,"Exp",7302,22,"female","R",1,1,3,"immoralOther","moralOther","mismatch","n","n",1,0.9903
NA,"Exp",7302,22,"female","R",1,1,4,"moralSelf","immoralSelf","mismatch","n",NA,-1,1.042
NA,"Exp",7302,22,"female","R",1,1,5,"immoralSelf","immoralSelf","match","m","m",1,0.8207
NA,"Exp",7302,22,"female","R",1,1,6,"immoralSelf","immoralSelf","match","m","m",1,0.7547
NA,"Exp",7302,22,"female","R",1,1,7,"moralOther","moralOther","match","m","m",1,0.5429
NA,"Exp",7302,22,"female","R",1,1,8,"moralSelf","moralSelf","match","m","m",1,0.9009
NA,"Exp",7302,22,"female","R",1,1,9,"moralOther","immoralSelf","mismatch","n","n",1,0.9551
NA,"Exp",7302,22,"female","R",1,1,10,"immoralSelf","moralOther","mismatch","n","n",1,0.6952
NA,"Exp",7302,22,"female","R",1,1,11,"moralOther","moralSelf","mismatch","n","n",1,0.7593
NA,"Exp",7302,22,"female","R",1,1,12,"immoralOther","immoralOther","match","m","m",1,0.7135
NA,"Exp",7302,22,"female","R",1,1,13,"moralOther","moralOther","match","m","m",1,0.5656
NA,"Exp",7302,22,"female","R",1,1,14,"moralSelf","immoralSelf","mismatch","n","m",0,0.5357
NA,"Exp",7302,22,"female","R",1,1,15,"immoralOther","immoralOther","match","m","m",1,0.8078
NA,"Exp",7302,22,"female","R",1,1,16,"immoralSelf","moralSelf","mismatch","n","n",1,0.96
NA,"Exp",7302,22,"female","R",1,1,17,"moralSelf","immoralSelf","mismatch","n","n",1,0.6661
NA,"Exp",7302,22,"female","R",1,1,18,"moralSelf","moralSelf","match","m","m",1,0.6962
NA,"Exp",7302,22,"female","R",1,1,19,"immoralSelf","immoralSelf","match","m","n",0,0.8803
NA,"Exp",7302,22,"female","R",1,1,20,"moralOther","moralOther","match","m","m",1,0.5785
NA,"Exp",7302,22,"female","R",1,1,21,"immoralOther","moralOther","mismatch","n","n",1,0.7845
NA,"Exp",7302,22,"female","R",1,1,22,"moralSelf","moralSelf","match","m","m",1,0.8146
NA,"Exp",7302,22,"female","R",1,1,23,"immoralOther","immoralOther","match","m","m",1,0.6548
NA,"Exp",7302,22,"female","R",1,1,24,"immoralOther","moralOther","mismatch","n","n",1,0.8789
NA,"Exp",7302,22,"female","R",1,2,1,"moralSelf","moralSelf","match","m","m",1,0.7131
NA,"Exp",7302,22,"female","R",1,2,2,"moralSelf","immoralSelf","mismatch","n","m",0,0.8211
NA,"Exp",7302,22,"female","R",1,2,3,"immoralOther","immoralOther","match","m","m",1,0.8033
NA,"Exp",7302,22,"female","R",1,2,4,"immoralOther","immoralSelf","mismatch","n","m",0,0.6294
NA,"Exp",7302,22,"female","R",1,2,5,"immoralSelf","immoralOther","mismatch","n","n",1,0.8095
NA,"Exp",7302,22,"female","R",1,2,6,"immoralOther","immoralOther","match","m","m",1,0.6176
NA,"Exp",7302,22,"female","R",1,2,7,"moralSelf","moralSelf","match","m","m",1,0.7917
NA,"Exp",7302,22,"female","R",1,2,8,"moralOther","moralOther","match","m","m",1,0.5559
NA,"Exp",7302,22,"female","R",1,2,9,"immoralSelf","immoralOther","mismatch","n","m",0,0.96
NA,"Exp",7302,22,"female","R",1,2,10,"moralOther","moralOther","match","m","m",1,0.5381
NA,"Exp",7302,22,"female","R",1,2,11,"immoralSelf","moralSelf","mismatch","n",NA,-1,1.042
NA,"Exp",7302,22,"female","R",1,2,12,"moralSelf","immoralSelf","mismatch","n","m",0,0.8264
NA,"Exp",7302,22,"female","R",1,2,13,"immoralSelf","immoralSelf","match","m","m",1,0.7125
NA,"Exp",7302,22,"female","R",1,2,14,"moralOther","immoralOther","mismatch","n","m",0,0.4609
NA,"Exp",7302,22,"female","R",1,2,15,"moralOther","immoralOther","mismatch","n","n",1,0.8027
NA,"Exp",7302,22,"female","R",1,2,16,"immoralSelf","immoralSelf","match","m","m",1,0.7808
NA,"Exp",7302,22,"female","R",1,2,17,"moralOther","immoralOther","mismatch","n","n",1,0.8749
NA,"Exp",7302,22,"female","R",1,2,18,"moralSelf","immoralOther","mismatch","n","m",0,0.871
NA,"Exp",7302,22,"female","R",1,2,19,"moralSelf","moralSelf","match","m","m",1,0.6512
NA,"Exp",7302,22,"female","R",1,2,20,"immoralOther","moralOther","mismatch","n","n",1,0.7554
NA,"Exp",7302,22,"female","R",1,2,21,"immoralOther","immoralOther","match","m","m",1,0.6715
NA,"Exp",7302,22,"female","R",1,2,22,"immoralSelf","immoralSelf","match","m","m",1,0.9076
NA,"Exp",7302,22,"female","R",1,2,23,"immoralOther","moralOther","mismatch","n","n",1,0.5997
NA,"Exp",7302,22,"female","R",1,2,24,"moralOther","moralOther","match","m","m",1,0.5218
NA,"Exp",7302,22,"female","R",1,3,1,"immoralOther","immoralOther","match","m","m",1,0.7319
NA,"Exp",7302,22,"female","R",1,3,2,"moralOther","immoralOther","mismatch","n","n",1,0.764
NA,"Exp",7302,22,"female","R",1,3,3,"moralSelf","moralOther","mismatch","n",NA,-1,1.042
NA,"Exp",7302,22,"female","R",1,3,4,"immoralSelf","moralSelf","mismatch","n","n",1,0.7443
NA,"Exp",7302,22,"female","R",1,3,5,"moralOther","moralOther","match","m","m",1,0.5104
NA,"Exp",7302,22,"female","R",1,3,6,"moralOther","moralOther","match","m","m",1,0.7706
NA,"Exp",7302,22,"female","R",1,3,7,"immoralOther","immoralSelf","mismatch","n","n",1,0.6026
NA,"Exp",7302,22,"female","R",1,3,8,"moralSelf","immoralOther","mismatch","n","n",1,0.7648
NA,"Exp",7302,22,"female","R",1,3,9,"immoralOther","immoralOther","match","m","m",1,0.7109
NA,"Exp",7302,22,"female","R",1,3,10,"moralSelf","moralOther","mismatch","n","n",1,0.827
NA,"Exp",7302,22,"female","R",1,3,11,"immoralSelf","immoralSelf","match","m","m",1,0.8571
NA,"Exp",7302,22,"female","R",1,3,12,"moralSelf","moralSelf","match","m","n",0,0.8092
NA,"Exp",7302,22,"female","R",1,3,13,"immoralSelf","immoralSelf","match","m","m",1,0.7213
NA,"Exp",7302,22,"female","R",1,3,14,"immoralOther","immoralSelf","mismatch","n","n",1,0.8195
NA,"Exp",7302,22,"female","R",1,3,15,"immoralSelf","moralSelf","mismatch","n","n",1,0.8896
NA,"Exp",7302,22,"female","R",1,3,16,"moralOther","moralOther","match","m","m",1,0.5778
NA,"Exp",7302,22,"female","R",1,3,17,"immoralSelf","immoralSelf","match","m","n",0,0.8799
NA,"Exp",7302,22,"female","R",1,3,18,"moralOther","moralSelf","mismatch","n","n",1,0.666
NA,"Exp",7302,22,"female","R",1,3,19,"immoralSelf","moralSelf","mismatch","n","n",1,1.0081
NA,"Exp",7302,22,"female","R",1,3,20,"immoralOther","immoralSelf","mismatch","n","n",1,0.8562
NA,"Exp",7302,22,"female","R",1,3,21,"moralOther","moralSelf","mismatch","n","n",1,0.5444
NA,"Exp",7302,22,"female","R",1,3,22,"moralSelf","moralSelf","match","m","m",1,0.6625
NA,"Exp",7302,22,"female","R",1,3,23,"immoralOther","immoralOther","match","m","n",0,0.6846
NA,"Exp",7302,22,"female","R",1,3,24,"moralSelf","moralSelf","match","m","m",1,0.9027
NA,"Exp",7302,22,"female","R",1,4,1,"immoralSelf","immoralSelf","match","m","m",1,0.8236
NA,"Exp",7302,22,"female","R",1,4,2,"moralOther","immoralOther","mismatch","n","n",1,0.6137
NA,"Exp",7302,22,"female","R",1,4,3,"moralSelf","moralOther","mismatch","n","m",0,0.7338
NA,"Exp",7302,22,"female","R",1,4,4,"moralSelf","moralSelf","match","m","n",0,0.7419
NA,"Exp",7302,22,"female","R",1,4,5,"immoralOther","immoralOther","match","m","m",1,0.684
NA,"Exp",7302,22,"female","R",1,4,6,"immoralOther","immoralOther","match","m","m",1,0.6062
NA,"Exp",7302,22,"female","R",1,4,7,"immoralSelf","moralOther","mismatch","n","n",1,0.7842
NA,"Exp",7302,22,"female","R",1,4,8,"moralOther","moralOther","match","m","m",1,0.5824
NA,"Exp",7302,22,"female","R",1,4,9,"moralOther","moralOther","match","m","m",1,0.4126
NA,"Exp",7302,22,"female","R",1,4,10,"moralSelf","moralSelf","match","m","m",1,0.5006
NA,"Exp",7302,22,"female","R",1,4,11,"immoralSelf","moralSelf","mismatch","n","n",1,0.8507
NA,"Exp",7302,22,"female","R",1,4,12,"moralSelf","moralOther","mismatch","n","n",1,0.9069
NA,"Exp",7302,22,"female","R",1,4,13,"moralOther","moralSelf","mismatch","n","n",1,0.721
NA,"Exp",7302,22,"female","R",1,4,14,"immoralOther","moralSelf","mismatch","n","n",1,0.6351
NA,"Exp",7302,22,"female","R",1,4,15,"immoralOther","moralOther","mismatch","n","n",1,0.8553
NA,"Exp",7302,22,"female","R",1,4,16,"immoralSelf","moralOther","mismatch","n","n",1,0.7194
NA,"Exp",7302,22,"female","R",1,4,17,"moralSelf","moralOther","mismatch","n","m",0,0.5214
NA,"Exp",7302,22,"female","R",1,4,18,"moralSelf","moralSelf","match","m","m",1,0.6597
NA,"Exp",7302,22,"female","R",1,4,19,"immoralSelf","immoralSelf","match","m","m",1,0.8097
NA,"Exp",7302,22,"female","R",1,4,20,"immoralOther","moralOther","mismatch","n","n",1,0.6738
NA,"Exp",7302,22,"female","R",1,4,21,"moralOther","moralOther","match","m","m",1,0.534
NA,"Exp",7302,22,"female","R",1,4,22,"moralOther","immoralSelf","mismatch","n","n",1,0.6141
NA,"Exp",7302,22,"female","R",1,4,23,"immoralOther","immoralOther","match","m","m",1,0.6462
NA,"Exp",7302,22,"female","R",1,4,24,"immoralSelf","immoralSelf","match","m","m",1,0.7763
NA,"Exp",7302,22,"female","R",1,5,1,"moralOther","immoralSelf","mismatch","n","n",1,0.6964
NA,"Exp",7302,22,"female","R",1,5,2,"moralOther","moralOther","match","m","n",0,0.8805
NA,"Exp",7302,22,"female","R",1,5,3,"immoralOther","immoralOther","match","m","m",1,0.5546
NA,"Exp",7302,22,"female","R",1,5,4,"moralSelf","moralSelf","match","m","m",1,0.9747
NA,"Exp",7302,22,"female","R",1,5,5,"immoralSelf","immoralSelf","match","m","m",1,0.6149
NA,"Exp",7302,22,"female","R",1,5,6,"moralOther","moralOther","match","m","m",1,0.615
NA,"Exp",7302,22,"female","R",1,5,7,"immoralOther","immoralSelf","mismatch","n","m",0,0.6552
NA,"Exp",7302,22,"female","R",1,5,8,"immoralOther","immoralOther","match","m","m",1,0.6552
NA,"Exp",7302,22,"female","R",1,5,9,"immoralOther","moralSelf","mismatch","n","n",1,0.5994
NA,"Exp",7302,22,"female","R",1,5,10,"moralSelf","immoralSelf","mismatch","n","m",0,0.6495
NA,"Exp",7302,22,"female","R",1,5,11,"moralOther","immoralOther","mismatch","n","n",1,0.6736
NA,"Exp",7302,22,"female","R",1,5,12,"immoralOther","moralSelf","mismatch","n","n",1,0.7737
NA,"Exp",7302,22,"female","R",1,5,13,"immoralSelf","moralOther","mismatch","n","n",1,0.7338
NA,"Exp",7302,22,"female","R",1,5,14,"moralSelf","immoralOther","mismatch","n","n",1,0.734
NA,"Exp",7302,22,"female","R",1,5,15,"immoralSelf","immoralSelf","match","m","m",1,0.6221
NA,"Exp",7302,22,"female","R",1,5,16,"immoralSelf","immoralSelf","match","m","m",1,0.5482
NA,"Exp",7302,22,"female","R",1,5,17,"immoralSelf","moralOther","mismatch","n","n",1,0.5923
NA,"Exp",7302,22,"female","R",1,5,18,"moralOther","immoralOther","mismatch","n","n",1,0.6445
NA,"Exp",7302,22,"female","R",1,5,19,"immoralSelf","immoralOther","mismatch","n","n",1,0.4385
NA,"Exp",7302,22,"female","R",1,5,20,"immoralOther","immoralOther","match","m","m",1,0.7766
NA,"Exp",7302,22,"female","R",1,5,21,"moralSelf","moralSelf","match","m","m",1,0.7527
NA,"Exp",7302,22,"female","R",1,5,22,"moralSelf","moralSelf","match","m","m",1,0.5169
NA,"Exp",7302,22,"female","R",1,5,23,"moralOther","moralOther","match","m","m",1,0.657
NA,"Exp",7302,22,"female","R",1,5,24,"moralSelf","moralOther","mismatch","n","n",1,0.8091
NA,"Exp",7302,22,"female","R",2,1,1,"moralOther","moralOther","match","m","m",1,0.7233
NA,"Exp",7302,22,"female","R",2,1,2,"moralOther","immoralSelf","mismatch","n","n",1,0.9175
NA,"Exp",7302,22,"female","R",2,1,3,"immoralSelf","moralOther","mismatch","n","n",1,0.7036
NA,"Exp",7302,22,"female","R",2,1,4,"immoralOther","moralOther","mismatch","n","n",1,0.6777
NA,"Exp",7302,22,"female","R",2,1,5,"immoralSelf","moralOther","mismatch","n","n",1,0.7278
NA,"Exp",7302,22,"female","R",2,1,6,"moralOther","immoralSelf","mismatch","n","n",1,0.696
NA,"Exp",7302,22,"female","R",2,1,7,"immoralOther","moralSelf","mismatch","n","n",1,0.8401
NA,"Exp",7302,22,"female","R",2,1,8,"immoralSelf","moralSelf","mismatch","n","n",1,0.7543
NA,"Exp",7302,22,"female","R",2,1,9,"moralSelf","moralSelf","match","m","m",1,0.6304
NA,"Exp",7302,22,"female","R",2,1,10,"moralOther","moralOther","match","m","m",1,0.5224
NA,"Exp",7302,22,"female","R",2,1,11,"immoralSelf","immoralSelf","match","m","n",0,0.6446
NA,"Exp",7302,22,"female","R",2,1,12,"moralSelf","moralOther","mismatch","n","n",1,0.8867
NA,"Exp",7302,22,"female","R",2,1,13,"immoralOther","immoralOther","match","m","m",1,0.7048
NA,"Exp",7302,22,"female","R",2,1,14,"immoralSelf","immoralSelf","match","m","n",0,0.703
NA,"Exp",7302,22,"female","R",2,1,15,"moralOther","moralSelf","mismatch","n","n",1,0.669
NA,"Exp",7302,22,"female","R",2,1,16,"immoralSelf","immoralSelf","match","m","m",1,0.6172
NA,"Exp",7302,22,"female","R",2,1,17,"moralOther","moralOther","match","m","m",1,0.6233
NA,"Exp",7302,22,"female","R",2,1,18,"immoralOther","immoralOther","match","m","m",1,0.5735
NA,"Exp",7302,22,"female","R",2,1,19,"moralSelf","moralSelf","match","m","m",1,0.6936
NA,"Exp",7302,22,"female","R",2,1,20,"moralSelf","immoralSelf","mismatch","n","m",0,1.0136
NA,"Exp",7302,22,"female","R",2,1,21,"immoralOther","immoralSelf","mismatch","n","n",1,0.8218
NA,"Exp",7302,22,"female","R",2,1,22,"immoralOther","immoralOther","match","m","m",1,0.6439
NA,"Exp",7302,22,"female","R",2,1,23,"moralSelf","moralOther","mismatch","n","m",0,0.71
NA,"Exp",7302,22,"female","R",2,1,24,"moralSelf","moralSelf","match","m","m",1,0.9141
NA,"Exp",7302,22,"female","R",2,2,1,"immoralOther","moralSelf","mismatch","n","n",1,0.7343
NA,"Exp",7302,22,"female","R",2,2,2,"moralSelf","immoralOther","mismatch","n","n",1,0.6464
NA,"Exp",7302,22,"female","R",2,2,3,"moralOther","immoralOther","mismatch","n","m",0,0.5765
NA,"Exp",7302,22,"female","R",2,2,4,"moralSelf","moralSelf","match","m","m",1,0.6566
NA,"Exp",7302,22,"female","R",2,2,5,"immoralSelf","immoralSelf","match","m","m",1,0.8089
NA,"Exp",7302,22,"female","R",2,2,6,"immoralOther","immoralOther","match","m","m",1,0.6248
NA,"Exp",7302,22,"female","R",2,2,7,"moralSelf","moralSelf","match","m","m",1,0.7109
NA,"Exp",7302,22,"female","R",2,2,8,"moralOther","moralOther","match","m","m",1,0.6191
NA,"Exp",7302,22,"female","R",2,2,9,"moralOther","moralOther","match","m","m",1,0.4171
NA,"Exp",7302,22,"female","R",2,2,10,"moralOther","moralOther","match","m","m",1,0.4333
NA,"Exp",7302,22,"female","R",2,2,11,"immoralSelf","immoralOther","mismatch","n","n",1,0.6934
NA,"Exp",7302,22,"female","R",2,2,12,"moralOther","moralSelf","mismatch","n","n",1,0.7015
NA,"Exp",7302,22,"female","R",2,2,13,"immoralOther","immoralOther","match","m","m",1,0.5717
NA,"Exp",7302,22,"female","R",2,2,14,"immoralOther","moralOther","mismatch","n","n",1,0.9557
NA,"Exp",7302,22,"female","R",2,2,15,"moralSelf","moralOther","mismatch","n","n",1,0.7838
NA,"Exp",7302,22,"female","R",2,2,16,"immoralSelf","moralSelf","mismatch","n","n",1,0.854
NA,"Exp",7302,22,"female","R",2,2,17,"immoralSelf","immoralSelf","match","m","n",0,0.9501
NA,"Exp",7302,22,"female","R",2,2,18,"moralSelf","immoralOther","mismatch","n","n",1,0.7062
NA,"Exp",7302,22,"female","R",2,2,19,"immoralSelf","immoralSelf","match","m","m",1,0.6644
NA,"Exp",7302,22,"female","R",2,2,20,"moralSelf","moralSelf","match","m","m",1,0.7664
NA,"Exp",7302,22,"female","R",2,2,21,"immoralSelf","moralOther","mismatch","n","n",1,0.6406
NA,"Exp",7302,22,"female","R",2,2,22,"moralOther","immoralSelf","mismatch","n","n",1,0.6827
NA,"Exp",7302,22,"female","R",2,2,23,"immoralOther","immoralSelf","mismatch","n","n",1,0.8848
NA,"Exp",7302,22,"female","R",2,2,24,"immoralOther","immoralOther","match","m","m",1,0.6469
NA,"Exp",7302,22,"female","R",2,3,1,"immoralOther","immoralOther","match","m","m",1,0.4731
NA,"Exp",7302,22,"female","R",2,3,2,"moralOther","immoralOther","mismatch","n","m",0,0.3812
NA,"Exp",7302,22,"female","R",2,3,3,"moralSelf","moralSelf","match","m","m",1,0.5952
NA,"Exp",7302,22,"female","R",2,3,4,"immoralOther","immoralOther","match","m","m",1,0.8074
NA,"Exp",7302,22,"female","R",2,3,5,"immoralSelf","immoralOther","mismatch","n","n",1,0.5675
NA,"Exp",7302,22,"female","R",2,3,6,"moralSelf","immoralSelf","mismatch","n","n",1,0.8476
NA,"Exp",7302,22,"female","R",2,3,7,"immoralOther","moralOther","mismatch","n","n",1,0.7278
NA,"Exp",7302,22,"female","R",2,3,8,"immoralSelf","immoralSelf","match","m","m",1,0.6079
NA,"Exp",7302,22,"female","R",2,3,9,"immoralSelf","immoralSelf","match","m",NA,-1,1.042
NA,"Exp",7302,22,"female","R",2,3,10,"moralSelf","immoralOther","mismatch","n","n",1,0.6901
NA,"Exp",7302,22,"female","R",2,3,11,"immoralOther","moralSelf","mismatch","n","n",1,0.9862
NA,"Exp",7302,22,"female","R",2,3,12,"moralOther","moralSelf","mismatch","n","n",1,0.7924
NA,"Exp",7302,22,"female","R",2,3,13,"immoralSelf","immoralOther","mismatch","n","n",1,0.7325
NA,"Exp",7302,22,"female","R",2,3,14,"immoralOther","immoralOther","match","m","n",0,0.5727
NA,"Exp",7302,22,"female","R",2,3,15,"moralOther","immoralSelf","mismatch","n","n",1,0.8048
NA,"Exp",7302,22,"female","R",2,3,16,"moralSelf","moralOther","mismatch","n","n",1,0.6549
NA,"Exp",7302,22,"female","R",2,3,17,"moralSelf","moralSelf","match","m","m",1,0.6631
NA,"Exp",7302,22,"female","R",2,3,18,"immoralOther","immoralSelf","mismatch","n",NA,-1,1.042
NA,"Exp",7302,22,"female","R",2,3,19,"immoralSelf","immoralOther","mismatch","n","n",1,0.7672
NA,"Exp",7302,22,"female","R",2,3,20,"moralSelf","moralSelf","match","m","m",1,0.7353
NA,"Exp",7302,22,"female","R",2,3,21,"moralOther","moralOther","match","m","m",1,0.5515
NA,"Exp",7302,22,"female","R",2,3,22,"immoralSelf","immoralSelf","match","m","m",1,0.6276
NA,"Exp",7302,22,"female","R",2,3,23,"moralOther","moralOther","match","m","m",1,0.5277
NA,"Exp",7302,22,"female","R",2,3,24,"moralOther","moralOther","match","m","m",1,0.4878
NA,"Exp",7302,22,"female","R",2,4,1,"moralSelf","moralSelf","match","m","m",1,0.5327
NA,"Exp",7302,22,"female","R",2,4,2,"immoralSelf","immoralSelf","match","m","m",1,0.6848
NA,"Exp",7302,22,"female","R",2,4,3,"moralOther","moralOther","match","m","m",1,0.4549
NA,"Exp",7302,22,"female","R",2,4,4,"immoralOther","immoralOther","match","m","m",1,0.535
NA,"Exp",7302,22,"female","R",2,4,5,"moralOther","immoralOther","mismatch","n","n",1,0.5831
NA,"Exp",7302,22,"female","R",2,4,6,"moralSelf","immoralSelf","mismatch","n","n",1,0.7973
NA,"Exp",7302,22,"female","R",2,4,7,"immoralOther","immoralOther","match","m","m",1,0.5433
NA,"Exp",7302,22,"female","R",2,4,8,"moralSelf","immoralOther","mismatch","n","n",1,0.5974
NA,"Exp",7302,22,"female","R",2,4,9,"immoralOther","moralSelf","mismatch","n","n",1,0.6796
NA,"Exp",7302,22,"female","R",2,4,10,"moralSelf","immoralOther","mismatch","n","n",1,0.8337
NA,"Exp",7302,22,"female","R",2,4,11,"immoralSelf","moralSelf","mismatch","n","m",0,0.5898
NA,"Exp",7302,22,"female","R",2,4,12,"moralOther","immoralOther","mismatch","n","n",1,0.6259
NA,"Exp",7302,22,"female","R",2,4,13,"immoralSelf","immoralSelf","match","m","m",1,0.76
NA,"Exp",7302,22,"female","R",2,4,14,"immoralOther","moralOther","mismatch","n","n",1,0.6662
NA,"Exp",7302,22,"female","R",2,4,15,"moralOther","moralOther","match","m","m",1,0.6003
NA,"Exp",7302,22,"female","R",2,4,16,"moralSelf","moralSelf","match","m","n",0,0.7144
NA,"Exp",7302,22,"female","R",2,4,17,"moralOther","moralOther","match","m","m",1,0.7025
NA,"Exp",7302,22,"female","R",2,4,18,"immoralOther","moralSelf","mismatch","n","n",1,0.6766
NA,"Exp",7302,22,"female","R",2,4,19,"immoralSelf","immoralOther","mismatch","n","n",1,0.8327
NA,"Exp",7302,22,"female","R",2,4,20,"immoralOther","immoralOther","match","m","m",1,0.7649
NA,"Exp",7302,22,"female","R",2,4,21,"immoralSelf","immoralSelf","match","m","m",1,0.7991
NA,"Exp",7302,22,"female","R",2,4,22,"moralSelf","moralSelf","match","m","m",1,0.6411
NA,"Exp",7302,22,"female","R",2,4,23,"immoralSelf","moralOther","mismatch","n","n",1,0.6912
NA,"Exp",7302,22,"female","R",2,4,24,"moralOther","immoralOther","mismatch","n","n",1,0.6434
NA,"Exp",7302,22,"female","R",2,5,1,"moralOther","moralOther","match","m","m",1,0.8215
NA,"Exp",7302,22,"female","R",2,5,2,"moralSelf","immoralSelf","mismatch","n","n",1,0.7476
NA,"Exp",7302,22,"female","R",2,5,3,"moralSelf","immoralOther","mismatch","n","n",1,0.8797
NA,"Exp",7302,22,"female","R",2,5,4,"moralOther","moralOther","match","m","m",1,0.6258
NA,"Exp",7302,22,"female","R",2,5,5,"immoralOther","moralOther","mismatch","n","m",0,0.616
NA,"Exp",7302,22,"female","R",2,5,6,"immoralOther","immoralOther","match","m","n",0,0.9041
NA,"Exp",7302,22,"female","R",2,5,7,"moralOther","immoralSelf","mismatch","n","n",1,0.6702
NA,"Exp",7302,22,"female","R",2,5,8,"moralSelf","moralSelf","match","m","m",1,0.6423
NA,"Exp",7302,22,"female","R",2,5,9,"immoralSelf","moralSelf","mismatch","n","n",1,0.7164
NA,"Exp",7302,22,"female","R",2,5,10,"immoralSelf","immoralOther","mismatch","n","n",1,0.8245
NA,"Exp",7302,22,"female","R",2,5,11,"immoralSelf","moralOther","mismatch","n","n",1,0.6947
NA,"Exp",7302,22,"female","R",2,5,12,"immoralSelf","immoralSelf","match","m","n",0,0.6229
NA,"Exp",7302,22,"female","R",2,5,13,"immoralOther","moralSelf","mismatch","n","n",1,0.6849
NA,"Exp",7302,22,"female","R",2,5,14,"immoralOther","immoralOther","match","m","m",1,0.751
NA,"Exp",7302,22,"female","R",2,5,15,"immoralOther","moralSelf","mismatch","n","n",1,0.8111
NA,"Exp",7302,22,"female","R",2,5,16,"moralSelf","moralOther","mismatch","n","n",1,0.7233
NA,"Exp",7302,22,"female","R",2,5,17,"moralOther","immoralSelf","mismatch","n","n",1,0.8134
NA,"Exp",7302,22,"female","R",2,5,18,"moralOther","moralOther","match","m","m",1,0.7335
NA,"Exp",7302,22,"female","R",2,5,19,"immoralSelf","immoralSelf","match","m","m",1,0.7816
NA,"Exp",7302,22,"female","R",2,5,20,"moralSelf","moralSelf","match","m","m",1,0.6757
NA,"Exp",7302,22,"female","R",2,5,21,"moralSelf","moralSelf","match","m","m",1,0.5516
NA,"Exp",7302,22,"female","R",2,5,22,"immoralSelf","immoralSelf","match","m","m",1,0.78
NA,"Exp",7302,22,"female","R",2,5,23,"moralOther","immoralOther","mismatch","n","n",1,0.8421
NA,"Exp",7302,22,"female","R",2,5,24,"immoralOther","immoralOther","match","m","m",1,0.6523
NA,"Exp",7302,22,"female","R",3,1,1,"moralOther","moralOther","match","m","m",1,0.5825
NA,"Exp",7302,22,"female","R",3,1,2,"immoralOther","immoralOther","match","m","m",1,0.7726
NA,"Exp",7302,22,"female","R",3,1,3,"immoralOther","immoralOther","match","m","m",1,0.5407
NA,"Exp",7302,22,"female","R",3,1,4,"moralSelf","moralOther","mismatch","n","n",1,0.7548
NA,"Exp",7302,22,"female","R",3,1,5,"immoralSelf","immoralSelf","match","m","m",1,0.823
NA,"Exp",7302,22,"female","R",3,1,6,"immoralSelf","moralOther","mismatch","n","n",1,0.8051
NA,"Exp",7302,22,"female","R",3,1,7,"immoralOther","moralOther","mismatch","n","n",1,0.7352
NA,"Exp",7302,22,"female","R",3,1,8,"immoralSelf","immoralSelf","match","m","m",1,0.6634
NA,"Exp",7302,22,"female","R",3,1,9,"immoralOther","immoralSelf","mismatch","n","n",1,0.7255
NA,"Exp",7302,22,"female","R",3,1,10,"moralOther","moralSelf","mismatch","n","n",1,0.7596
NA,"Exp",7302,22,"female","R",3,1,11,"immoralOther","immoralOther","match","m","m",1,0.6657
NA,"Exp",7302,22,"female","R",3,1,12,"moralSelf","immoralOther","mismatch","n","n",1,0.6478
NA,"Exp",7302,22,"female","R",3,1,13,"moralOther","moralSelf","mismatch","n","n",1,0.8559
NA,"Exp",7302,22,"female","R",3,1,14,"moralSelf","moralOther","mismatch","n","n",1,0.6961
NA,"Exp",7302,22,"female","R",3,1,15,"moralSelf","moralSelf","match","m",NA,-1,1.042
NA,"Exp",7302,22,"female","R",3,1,16,"moralSelf","moralSelf","match","m","n",0,0.5864
NA,"Exp",7302,22,"female","R",3,1,17,"moralOther","moralOther","match","m","m",1,0.6484
NA,"Exp",7302,22,"female","R",3,1,18,"moralSelf","moralSelf","match","m","m",1,0.7446
NA,"Exp",7302,22,"female","R",3,1,19,"immoralOther","immoralSelf","mismatch","n","n",1,0.7027
NA,"Exp",7302,22,"female","R",3,1,20,"immoralSelf","moralOther","mismatch","n","n",1,0.6928
NA,"Exp",7302,22,"female","R",3,1,21,"immoralSelf","immoralSelf","match","m","m",1,0.4849
NA,"Exp",7302,22,"female","R",3,1,22,"immoralSelf","moralOther","mismatch","n","n",1,0.599
NA,"Exp",7302,22,"female","R",3,1,23,"moralOther","moralSelf","mismatch","n","n",1,0.8572
NA,"Exp",7302,22,"female","R",3,1,24,"moralOther","moralOther","match","m","n",0,0.5433
NA,"Exp",7302,22,"female","R",3,2,1,"moralOther","immoralOther","mismatch","n","n",1,0.6774
NA,"Exp",7302,22,"female","R",3,2,2,"moralSelf","moralSelf","match","m","m",1,0.5915
NA,"Exp",7302,22,"female","R",3,2,3,"immoralOther","immoralSelf","mismatch","n","n",1,0.7156
NA,"Exp",7302,22,"female","R",3,2,4,"immoralOther","immoralOther","match","m","m",1,0.5757
NA,"Exp",7302,22,"female","R",3,2,5,"moralOther","moralOther","match","m","m",1,0.6719
NA,"Exp",7302,22,"female","R",3,2,6,"moralSelf","moralSelf","match","m","m",1,0.6359
NA,"Exp",7302,22,"female","R",3,2,7,"immoralSelf","immoralSelf","match","m","m",1,0.504
NA,"Exp",7302,22,"female","R",3,2,8,"moralOther","moralOther","match","m","m",1,0.5742
NA,"Exp",7302,22,"female","R",3,2,9,"moralOther","immoralOther","mismatch","n","m",0,0.5662
NA,"Exp",7302,22,"female","R",3,2,10,"immoralSelf","immoralSelf","match","m","m",1,0.5844
NA,"Exp",7302,22,"female","R",3,2,11,"moralOther","immoralSelf","mismatch","n","n",1,0.6546
NA,"Exp",7302,22,"female","R",3,2,12,"immoralSelf","immoralSelf","match","m","m",1,0.5906
NA,"Exp",7302,22,"female","R",3,2,13,"moralSelf","immoralOther","mismatch","n","n",1,0.8028
NA,"Exp",7302,22,"female","R",3,2,14,"immoralSelf","immoralOther","mismatch","n","m",0,0.6448
NA,"Exp",7302,22,"female","R",3,2,15,"moralSelf","moralOther","mismatch","n","n",1,0.7029
NA,"Exp",7302,22,"female","R",3,2,16,"moralSelf","moralOther","mismatch","n","n",1,0.6451
NA,"Exp",7302,22,"female","R",3,2,17,"immoralSelf","immoralOther","mismatch","n","n",1,0.7272
NA,"Exp",7302,22,"female","R",3,2,18,"moralOther","moralOther","match","m","m",1,0.6233
NA,"Exp",7302,22,"female","R",3,2,19,"immoralOther","immoralSelf","mismatch","n","m",0,0.6935
NA,"Exp",7302,22,"female","R",3,2,20,"immoralOther","immoralOther","match","m","m",1,0.6455
NA,"Exp",7302,22,"female","R",3,2,21,"immoralOther","moralSelf","mismatch","n","n",1,0.6877
NA,"Exp",7302,22,"female","R",3,2,22,"immoralOther","immoralOther","match","m","m",1,0.6558
NA,"Exp",7302,22,"female","R",3,2,23,"immoralSelf","moralOther","mismatch","n","n",1,0.6879
NA,"Exp",7302,22,"female","R",3,2,24,"moralSelf","moralSelf","match","m","n",0,0.7681
NA,"Exp",7302,22,"female","R",3,3,1,"immoralSelf","immoralOther","mismatch","n","m",0,0.7201
NA,"Exp",7302,22,"female","R",3,3,2,"immoralOther","immoralOther","match","m","m",1,0.6262
NA,"Exp",7302,22,"female","R",3,3,3,"immoralSelf","immoralSelf","match","m","m",1,0.7044
NA,"Exp",7302,22,"female","R",3,3,4,"immoralOther","immoralOther","match","m","m",1,0.5825
NA,"Exp",7302,22,"female","R",3,3,5,"moralOther","immoralOther","mismatch","n","n",1,0.8366
NA,"Exp",7302,22,"female","R",3,3,6,"immoralOther","immoralSelf","mismatch","n","n",1,0.7687
NA,"Exp",7302,22,"female","R",3,3,7,"immoralOther","moralOther","mismatch","n","n",1,0.6648
NA,"Exp",7302,22,"female","R",3,3,8,"immoralSelf","immoralOther","mismatch","n","m",0,0.623
NA,"Exp",7302,22,"female","R",3,3,9,"immoralOther","immoralSelf","mismatch","n","n",1,0.8054
NA,"Exp",7302,22,"female","R",3,3,10,"immoralSelf","immoralOther","mismatch","n","n",1,0.7272
NA,"Exp",7302,22,"female","R",3,3,11,"immoralSelf","immoralSelf","match","m","m",1,0.6633
NA,"Exp",7302,22,"female","R",3,3,12,"moralOther","moralOther","match","m","m",1,0.6774
NA,"Exp",7302,22,"female","R",3,3,13,"moralSelf","moralSelf","match","m","m",1,0.7595
NA,"Exp",7302,22,"female","R",3,3,14,"moralOther","moralOther","match","m","m",1,0.6416
NA,"Exp",7302,22,"female","R",3,3,15,"moralSelf","immoralOther","mismatch","n","n",1,0.7878
NA,"Exp",7302,22,"female","R",3,3,16,"moralSelf","moralSelf","match","m","m",1,0.5839
NA,"Exp",7302,22,"female","R",3,3,17,"moralSelf","moralSelf","match","m","m",1,0.6141
NA,"Exp",7302,22,"female","R",3,3,18,"moralOther","moralOther","match","m","m",1,0.6781
NA,"Exp",7302,22,"female","R",3,3,19,"immoralSelf","immoralSelf","match","m","m",1,0.6402
NA,"Exp",7302,22,"female","R",3,3,20,"moralSelf","immoralOther","mismatch","n","n",1,0.6744
NA,"Exp",7302,22,"female","R",3,3,21,"immoralOther","immoralOther","match","m","m",1,0.8785
NA,"Exp",7302,22,"female","R",3,3,22,"moralOther","immoralSelf","mismatch","n","n",1,0.7526
NA,"Exp",7302,22,"female","R",3,3,23,"moralOther","immoralSelf","mismatch","n","n",1,0.8447
NA,"Exp",7302,22,"female","R",3,3,24,"moralSelf","immoralSelf","mismatch","n","m",0,0.6229
NA,"Exp",7302,22,"female","R",3,4,1,"immoralOther","immoralOther","match","m","n",0,0.7675
NA,"Exp",7302,22,"female","R",3,4,2,"moralOther","moralOther","match","m","m",1,0.5276
NA,"Exp",7302,22,"female","R",3,4,3,"immoralOther","immoralOther","match","m","m",1,0.8237
NA,"Exp",7302,22,"female","R",3,4,4,"immoralSelf","moralSelf","mismatch","n","n",1,0.99
NA,"Exp",7302,22,"female","R",3,4,5,"moralOther","moralOther","match","m","m",1,0.7619
NA,"Exp",7302,22,"female","R",3,4,6,"moralSelf","moralOther","mismatch","n","n",1,0.7082
NA,"Exp",7302,22,"female","R",3,4,7,"immoralOther","immoralOther","match","m","m",1,0.7522
NA,"Exp",7302,22,"female","R",3,4,8,"moralSelf","moralSelf","match","m","m",1,0.7803
NA,"Exp",7302,22,"female","R",3,4,9,"immoralSelf","immoralSelf","match","m","m",1,0.6424
NA,"Exp",7302,22,"female","R",3,4,10,"moralSelf","moralOther","mismatch","n","n",1,0.6765
NA,"Exp",7302,22,"female","R",3,4,11,"moralSelf","moralOther","mismatch","n","n",1,0.8247
NA,"Exp",7302,22,"female","R",3,4,12,"moralSelf","moralSelf","match","m","m",1,0.6549
NA,"Exp",7302,22,"female","R",3,4,13,"immoralSelf","immoralSelf","match","m","m",1,0.6629
NA,"Exp",7302,22,"female","R",3,4,14,"moralOther","moralSelf","mismatch","n","n",1,0.733
NA,"Exp",7302,22,"female","R",3,4,15,"immoralSelf","immoralOther","mismatch","n","n",1,0.7891
NA,"Exp",7302,22,"female","R",3,4,16,"immoralOther","moralSelf","mismatch","n",NA,-1,1.042
NA,"Exp",7302,22,"female","R",3,4,17,"immoralOther","immoralSelf","mismatch","n",NA,-1,1.042
NA,"Exp",7302,22,"female","R",3,4,18,"immoralSelf","immoralSelf","match","m","m",1,0.6935
NA,"Exp",7302,22,"female","R",3,4,19,"immoralOther","moralOther","mismatch","n","n",1,0.6377
NA,"Exp",7302,22,"female","R",3,4,20,"moralOther","moralSelf","mismatch","n","n",1,0.7518
NA,"Exp",7302,22,"female","R",3,4,21,"immoralSelf","moralSelf","mismatch","n","n",1,0.7239
NA,"Exp",7302,22,"female","R",3,4,22,"moralOther","immoralOther","mismatch","n","n",1,0.646
NA,"Exp",7302,22,"female","R",3,4,23,"moralSelf","moralSelf","match","m","m",1,0.7361
NA,"Exp",7302,22,"female","R",3,4,24,"moralOther","moralOther","match","m","m",1,0.6323
NA,"Exp",7302,22,"female","R",3,5,1,"moralOther","immoralSelf","mismatch","n","n",1,0.7163
NA,"Exp",7302,22,"female","R",3,5,2,"moralSelf","moralOther","mismatch","n","m",0,0.7205
NA,"Exp",7302,22,"female","R",3,5,3,"moralOther","moralOther","match","m","m",1,0.6986
NA,"Exp",7302,22,"female","R",3,5,4,"immoralOther","moralSelf","mismatch","n","n",1,0.6967
NA,"Exp",7302,22,"female","R",3,5,5,"immoralSelf","immoralOther","mismatch","n","n",1,0.7288
NA,"Exp",7302,22,"female","R",3,5,6,"moralSelf","moralSelf","match","m","m",1,0.601
NA,"Exp",7302,22,"female","R",3,5,7,"immoralOther","immoralOther","match","m","n",0,0.6431
NA,"Exp",7302,22,"female","R",3,5,8,"moralOther","immoralOther","mismatch","n","n",1,0.6292
NA,"Exp",7302,22,"female","R",3,5,9,"immoralSelf","immoralSelf","match","m","m",1,0.7373
NA,"Exp",7302,22,"female","R",3,5,10,"immoralSelf","moralOther","mismatch","n","n",1,0.6874
NA,"Exp",7302,22,"female","R",3,5,11,"moralOther","moralOther","match","m","m",1,0.6475
NA,"Exp",7302,22,"female","R",3,5,12,"moralSelf","moralSelf","match","m","m",1,0.7757
NA,"Exp",7302,22,"female","R",3,5,13,"moralSelf","moralSelf","match","m","m",1,0.6478
NA,"Exp",7302,22,"female","R",3,5,14,"immoralOther","immoralOther","match","m","m",1,0.6399
NA,"Exp",7302,22,"female","R",3,5,15,"immoralOther","immoralOther","match","m","m",1,0.5701
NA,"Exp",7302,22,"female","R",3,5,16,"immoralOther","moralSelf","mismatch","n","n",1,0.6822
NA,"Exp",7302,22,"female","R",3,5,17,"moralSelf","immoralSelf","mismatch","n","n",1,0.9402
NA,"Exp",7302,22,"female","R",3,5,18,"moralOther","moralOther","match","m","m",1,0.5384
NA,"Exp",7302,22,"female","R",3,5,19,"immoralOther","immoralSelf","mismatch","n","n",1,0.6165
NA,"Exp",7302,22,"female","R",3,5,20,"moralOther","moralSelf","mismatch","n","n",1,0.6806
NA,"Exp",7302,22,"female","R",3,5,21,"immoralSelf","immoralSelf","match","m","m",1,0.7307
NA,"Exp",7302,22,"female","R",3,5,22,"moralSelf","immoralSelf","mismatch","n","n",1,0.7868
NA,"Exp",7302,22,"female","R",3,5,23,"immoralSelf","moralSelf","mismatch","n","n",1,0.785
NA,"Exp",7302,22,"female","R",3,5,24,"immoralSelf","immoralSelf","match","m","m",1,0.6551
NA,"Exp",7303,28,"male","R",1,1,1,"immoralSelf","immoralOther","mismatch","n","n",1,0.6804
NA,"Exp",7303,28,"male","R",1,1,2,"moralOther","moralSelf","mismatch","n","n",1,0.554
NA,"Exp",7303,28,"male","R",1,1,3,"immoralOther","moralOther","mismatch","n","n",1,0.6528
NA,"Exp",7303,28,"male","R",1,1,4,"moralSelf","immoralSelf","mismatch","n","n",1,0.6016
NA,"Exp",7303,28,"male","R",1,1,5,"immoralSelf","immoralSelf","match","m","n",0,0.6214
NA,"Exp",7303,28,"male","R",1,1,6,"immoralSelf","immoralSelf","match","m","n",0,0.7058
NA,"Exp",7303,28,"male","R",1,1,7,"moralOther","moralOther","match","m","m",1,0.6918
NA,"Exp",7303,28,"male","R",1,1,8,"moralSelf","moralSelf","match","m","m",1,0.6334
NA,"Exp",7303,28,"male","R",1,1,9,"moralOther","immoralSelf","mismatch","n","n",1,0.738
NA,"Exp",7303,28,"male","R",1,1,10,"immoralSelf","moralOther","mismatch","n","n",1,0.8765
NA,"Exp",7303,28,"male","R",1,1,11,"moralOther","moralSelf","mismatch","n","m",0,0.6097
NA,"Exp",7303,28,"male","R",1,1,12,"immoralOther","immoralOther","match","m","m",1,0.7058
NA,"Exp",7303,28,"male","R",1,1,13,"moralOther","moralOther","match","m","m",1,0.6758
NA,"Exp",7303,28,"male","R",1,1,14,"moralSelf","immoralSelf","mismatch","n","m",0,0.6251
NA,"Exp",7303,28,"male","R",1,1,15,"immoralOther","immoralOther","match","m","n",0,0.9173
NA,"Exp",7303,28,"male","R",1,1,16,"immoralSelf","moralSelf","mismatch","n","m",0,0.6835
NA,"Exp",7303,28,"male","R",1,1,17,"moralSelf","immoralSelf","mismatch","n","m",0,0.493
NA,"Exp",7303,28,"male","R",1,1,18,"moralSelf","moralSelf","match","m","m",1,0.5227
NA,"Exp",7303,28,"male","R",1,1,19,"immoralSelf","immoralSelf","match","m","n",0,0.7209
NA,"Exp",7303,28,"male","R",1,1,20,"moralOther","moralOther","match","m","m",1,0.6392
NA,"Exp",7303,28,"male","R",1,1,21,"immoralOther","moralOther","mismatch","n","n",1,0.6637
NA,"Exp",7303,28,"male","R",1,1,22,"moralSelf","moralSelf","match","m","m",1,0.6088
NA,"Exp",7303,28,"male","R",1,1,23,"immoralOther","immoralOther","match","m","n",0,0.5807
NA,"Exp",7303,28,"male","R",1,1,24,"immoralOther","moralOther","mismatch","n","n",1,0.736
NA,"Exp",7303,28,"male","R",1,2,1,"moralSelf","moralSelf","match","m","m",1,0.6104
NA,"Exp",7303,28,"male","R",1,2,2,"moralSelf","immoralSelf","mismatch","n","n",1,0.6665
NA,"Exp",7303,28,"male","R",1,2,3,"immoralOther","immoralOther","match","m","m",1,0.6515
NA,"Exp",7303,28,"male","R",1,2,4,"immoralOther","immoralSelf","mismatch","n","m",0,0.6243
NA,"Exp",7303,28,"male","R",1,2,5,"immoralSelf","immoralOther","mismatch","n","n",1,0.8286
NA,"Exp",7303,28,"male","R",1,2,6,"immoralOther","immoralOther","match","m","m",1,0.721
NA,"Exp",7303,28,"male","R",1,2,7,"moralSelf","moralSelf","match","m","m",1,0.6552
NA,"Exp",7303,28,"male","R",1,2,8,"moralOther","moralOther","match","m","n",0,0.644
NA,"Exp",7303,28,"male","R",1,2,9,"immoralSelf","immoralOther","mismatch","n","m",0,0.7965
NA,"Exp",7303,28,"male","R",1,2,10,"moralOther","moralOther","match","m","m",1,0.6921
NA,"Exp",7303,28,"male","R",1,2,11,"immoralSelf","moralSelf","mismatch","n","n",1,0.866
NA,"Exp",7303,28,"male","R",1,2,12,"moralSelf","immoralSelf","mismatch","n","m",0,0.707
NA,"Exp",7303,28,"male","R",1,2,13,"immoralSelf","immoralSelf","match","m","n",0,0.7329
NA,"Exp",7303,28,"male","R",1,2,14,"moralOther","immoralOther","mismatch","n","m",0,0.6153
NA,"Exp",7303,28,"male","R",1,2,15,"moralOther","immoralOther","mismatch","n","n",1,0.7513
NA,"Exp",7303,28,"male","R",1,2,16,"immoralSelf","immoralSelf","match","m","m",1,0.8663
NA,"Exp",7303,28,"male","R",1,2,17,"moralOther","immoralOther","mismatch","n","n",1,0.8193
NA,"Exp",7303,28,"male","R",1,2,18,"moralSelf","immoralOther","mismatch","n","n",1,0.9074
NA,"Exp",7303,28,"male","R",1,2,19,"moralSelf","moralSelf","match","m","m",1,0.6614
NA,"Exp",7303,28,"male","R",1,2,20,"immoralOther","moralOther","mismatch","n","m",0,0.9264
NA,"Exp",7303,28,"male","R",1,2,21,"immoralOther","immoralOther","match","m","m",1,0.6808
NA,"Exp",7303,28,"male","R",1,2,22,"immoralSelf","immoralSelf","match","m","m",1,0.7625
NA,"Exp",7303,28,"male","R",1,2,23,"immoralOther","moralOther","mismatch","n","n",1,0.8735
NA,"Exp",7303,28,"male","R",1,2,24,"moralOther","moralOther","match","m","m",1,0.5428
NA,"Exp",7303,28,"male","R",1,3,1,"immoralOther","immoralOther","match","m","n",0,0.6695
NA,"Exp",7303,28,"male","R",1,3,2,"moralOther","immoralOther","mismatch","n","n",1,0.6271
NA,"Exp",7303,28,"male","R",1,3,3,"moralSelf","moralOther","mismatch","n","n",1,0.791
NA,"Exp",7303,28,"male","R",1,3,4,"immoralSelf","moralSelf","mismatch","n","n",1,0.7107
NA,"Exp",7303,28,"male","R",1,3,5,"moralOther","moralOther","match","m","m",1,0.6565
NA,"Exp",7303,28,"male","R",1,3,6,"moralOther","moralOther","match","m","m",1,0.6177
NA,"Exp",7303,28,"male","R",1,3,7,"immoralOther","immoralSelf","mismatch","n","n",1,0.8417
NA,"Exp",7303,28,"male","R",1,3,8,"moralSelf","immoralOther","mismatch","n","n",1,0.6582
NA,"Exp",7303,28,"male","R",1,3,9,"immoralOther","immoralOther","match","m","n",0,0.7074
NA,"Exp",7303,28,"male","R",1,3,10,"moralSelf","moralOther","mismatch","n","n",1,0.7733
NA,"Exp",7303,28,"male","R",1,3,11,"immoralSelf","immoralSelf","match","m","m",1,0.7804
NA,"Exp",7303,28,"male","R",1,3,12,"moralSelf","moralSelf","match","m","m",1,0.7198
NA,"Exp",7303,28,"male","R",1,3,13,"immoralSelf","immoralSelf","match","m","n",0,0.846
NA,"Exp",7303,28,"male","R",1,3,14,"immoralOther","immoralSelf","mismatch","n","n",1,0.6828
NA,"Exp",7303,28,"male","R",1,3,15,"immoralSelf","moralSelf","mismatch","n","m",0,0.8843
NA,"Exp",7303,28,"male","R",1,3,16,"moralOther","moralOther","match","m","m",1,0.6699
NA,"Exp",7303,28,"male","R",1,3,17,"immoralSelf","immoralSelf","match","m","m",1,0.6911
NA,"Exp",7303,28,"male","R",1,3,18,"moralOther","moralSelf","mismatch","n","m",0,0.6007
NA,"Exp",7303,28,"male","R",1,3,19,"immoralSelf","moralSelf","mismatch","n","n",1,0.8526
NA,"Exp",7303,28,"male","R",1,3,20,"immoralOther","immoralSelf","mismatch","n","n",1,0.7775
NA,"Exp",7303,28,"male","R",1,3,21,"moralOther","moralSelf","mismatch","n","n",1,0.8048
NA,"Exp",7303,28,"male","R",1,3,22,"moralSelf","moralSelf","match","m","m",1,0.7448
NA,"Exp",7303,28,"male","R",1,3,23,"immoralOther","immoralOther","match","m","m",1,0.8394
NA,"Exp",7303,28,"male","R",1,3,24,"moralSelf","moralSelf","match","m","m",1,0.5999
NA,"Exp",7303,28,"male","R",1,4,1,"immoralSelf","immoralSelf","match","m","m",1,0.6555
NA,"Exp",7303,28,"male","R",1,4,2,"moralOther","immoralOther","mismatch","n","n",1,0.7643
NA,"Exp",7303,28,"male","R",1,4,3,"moralSelf","moralOther","mismatch","n","m",0,0.5875
NA,"Exp",7303,28,"male","R",1,4,4,"moralSelf","moralSelf","match","m","m",1,0.715
NA,"Exp",7303,28,"male","R",1,4,5,"immoralOther","immoralOther","match","m","m",1,0.9692
NA,"Exp",7303,28,"male","R",1,4,6,"immoralOther","immoralOther","match","m","m",1,0.5684
NA,"Exp",7303,28,"male","R",1,4,7,"immoralSelf","moralOther","mismatch","n","n",1,0.6474
NA,"Exp",7303,28,"male","R",1,4,8,"moralOther","moralOther","match","m","m",1,0.6923
NA,"Exp",7303,28,"male","R",1,4,9,"moralOther","moralOther","match","m","m",1,0.5941
NA,"Exp",7303,28,"male","R",1,4,10,"moralSelf","moralSelf","match","m","m",1,0.6497
NA,"Exp",7303,28,"male","R",1,4,11,"immoralSelf","moralSelf","mismatch","n","n",1,0.8865
NA,"Exp",7303,28,"male","R",1,4,12,"moralSelf","moralOther","mismatch","n","m",0,0.624
NA,"Exp",7303,28,"male","R",1,4,13,"moralOther","moralSelf","mismatch","n","m",0,0.6123
NA,"Exp",7303,28,"male","R",1,4,14,"immoralOther","moralSelf","mismatch","n","n",1,0.7805
NA,"Exp",7303,28,"male","R",1,4,15,"immoralOther","moralOther","mismatch","n","n",1,0.8557
NA,"Exp",7303,28,"male","R",1,4,16,"immoralSelf","moralOther","mismatch","n","m",0,0.8046
NA,"Exp",7303,28,"male","R",1,4,17,"moralSelf","moralOther","mismatch","n","m",0,0.6403
NA,"Exp",7303,28,"male","R",1,4,18,"moralSelf","moralSelf","match","m","m",1,0.633
NA,"Exp",7303,28,"male","R",1,4,19,"immoralSelf","immoralSelf","match","m","n",0,0.6495
NA,"Exp",7303,28,"male","R",1,4,20,"immoralOther","moralOther","mismatch","n","n",1,0.9023
NA,"Exp",7303,28,"male","R",1,4,21,"moralOther","moralOther","match","m","m",1,1.028
NA,"Exp",7303,28,"male","R",1,4,22,"moralOther","immoralSelf","mismatch","n","m",0,0.7924
NA,"Exp",7303,28,"male","R",1,4,23,"immoralOther","immoralOther","match","m","n",0,0.656
NA,"Exp",7303,28,"male","R",1,4,24,"immoralSelf","immoralSelf","match","m","n",0,0.8331
NA,"Exp",7303,28,"male","R",1,5,1,"moralOther","immoralSelf","mismatch","n","n",1,0.7857
NA,"Exp",7303,28,"male","R",1,5,2,"moralOther","moralOther","match","m","m",1,0.8491
NA,"Exp",7303,28,"male","R",1,5,3,"immoralOther","immoralOther","match","m","m",1,0.798
NA,"Exp",7303,28,"male","R",1,5,4,"moralSelf","moralSelf","match","m","m",1,0.642
NA,"Exp",7303,28,"male","R",1,5,5,"immoralSelf","immoralSelf","match","m","m",1,0.7224
NA,"Exp",7303,28,"male","R",1,5,6,"moralOther","moralOther","match","m","m",1,0.5847
NA,"Exp",7303,28,"male","R",1,5,7,"immoralOther","immoralSelf","mismatch","n","m",0,0.788
NA,"Exp",7303,28,"male","R",1,5,8,"immoralOther","immoralOther","match","m","m",1,0.8436
NA,"Exp",7303,28,"male","R",1,5,9,"immoralOther","moralSelf","mismatch","n","n",1,0.7082
NA,"Exp",7303,28,"male","R",1,5,10,"moralSelf","immoralSelf","mismatch","n","m",0,0.5741
NA,"Exp",7303,28,"male","R",1,5,11,"moralOther","immoralOther","mismatch","n","n",1,0.7936
NA,"Exp",7303,28,"male","R",1,5,12,"immoralOther","moralSelf","mismatch","n","n",1,0.8092
NA,"Exp",7303,28,"male","R",1,5,13,"immoralSelf","moralOther","mismatch","n","n",1,0.6653
NA,"Exp",7303,28,"male","R",1,5,14,"moralSelf","immoralOther","mismatch","n","n",1,0.7783
NA,"Exp",7303,28,"male","R",1,5,15,"immoralSelf","immoralSelf","match","m","m",1,0.7577
NA,"Exp",7303,28,"male","R",1,5,16,"immoralSelf","immoralSelf","match","m","m",1,0.6566
NA,"Exp",7303,28,"male","R",1,5,17,"immoralSelf","moralOther","mismatch","n","n",1,0.7457
NA,"Exp",7303,28,"male","R",1,5,18,"moralOther","immoralOther","mismatch","n","n",1,0.8483
NA,"Exp",7303,28,"male","R",1,5,19,"immoralSelf","immoralOther","mismatch","n","n",1,0.789
NA,"Exp",7303,28,"male","R",1,5,20,"immoralOther","immoralOther","match","m","m",1,0.6207
NA,"Exp",7303,28,"male","R",1,5,21,"moralSelf","moralSelf","match","m","m",1,0.577
NA,"Exp",7303,28,"male","R",1,5,22,"moralSelf","moralSelf","match","m","m",1,0.5245
NA,"Exp",7303,28,"male","R",1,5,23,"moralOther","moralOther","match","m","m",1,0.6346
NA,"Exp",7303,28,"male","R",1,5,24,"moralSelf","moralOther","mismatch","n","m",0,0.7471
NA,"Exp",7303,28,"male","R",2,1,1,"moralOther","moralOther","match","m",NA,-1,1.0411
NA,"Exp",7303,28,"male","R",2,1,2,"moralOther","immoralSelf","mismatch","n","n",1,0.5757
NA,"Exp",7303,28,"male","R",2,1,3,"immoralSelf","moralOther","mismatch","n","n",1,0.6671
NA,"Exp",7303,28,"male","R",2,1,4,"immoralOther","moralOther","mismatch","n","n",1,0.8121
NA,"Exp",7303,28,"male","R",2,1,5,"immoralSelf","moralOther","mismatch","n","n",1,0.7242
NA,"Exp",7303,28,"male","R",2,1,6,"moralOther","immoralSelf","mismatch","n","m",0,0.5783
NA,"Exp",7303,28,"male","R",2,1,7,"immoralOther","moralSelf","mismatch","n","n",1,0.6457
NA,"Exp",7303,28,"male","R",2,1,8,"immoralSelf","moralSelf","mismatch","n","n",1,0.6105
NA,"Exp",7303,28,"male","R",2,1,9,"moralSelf","moralSelf","match","m","n",0,0.7146
NA,"Exp",7303,28,"male","R",2,1,10,"moralOther","moralOther","match","m","m",1,0.6168
NA,"Exp",7303,28,"male","R",2,1,11,"immoralSelf","immoralSelf","match","m","m",1,0.7129
NA,"Exp",7303,28,"male","R",2,1,12,"moralSelf","moralOther","mismatch","n","m",0,0.5469
NA,"Exp",7303,28,"male","R",2,1,13,"immoralOther","immoralOther","match","m","n",0,0.6416
NA,"Exp",7303,28,"male","R",2,1,14,"immoralSelf","immoralSelf","match","m","m",1,0.9061
NA,"Exp",7303,28,"male","R",2,1,15,"moralOther","moralSelf","mismatch","n","n",1,0.8921
NA,"Exp",7303,28,"male","R",2,1,16,"immoralSelf","immoralSelf","match","m","m",1,0.7778
NA,"Exp",7303,28,"male","R",2,1,17,"moralOther","moralOther","match","m","m",1,0.7573
NA,"Exp",7303,28,"male","R",2,1,18,"immoralOther","immoralOther","match","m","m",1,0.6561
NA,"Exp",7303,28,"male","R",2,1,19,"moralSelf","moralSelf","match","m","m",1,0.665
NA,"Exp",7303,28,"male","R",2,1,20,"moralSelf","immoralSelf","mismatch","n","n",1,0.8103
NA,"Exp",7303,28,"male","R",2,1,21,"immoralOther","immoralSelf","mismatch","n","n",1,0.7063
NA,"Exp",7303,28,"male","R",2,1,22,"immoralOther","immoralOther","match","m","m",1,0.5642
NA,"Exp",7303,28,"male","R",2,1,23,"moralSelf","moralOther","mismatch","n","n",1,0.9875
NA,"Exp",7303,28,"male","R",2,1,24,"moralSelf","moralSelf","match","m","m",1,0.8111
NA,"Exp",7303,28,"male","R",2,2,1,"immoralOther","moralSelf","mismatch","n","n",1,0.7471
NA,"Exp",7303,28,"male","R",2,2,2,"moralSelf","immoralOther","mismatch","n","n",1,0.7778
NA,"Exp",7303,28,"male","R",2,2,3,"moralOther","immoralOther","mismatch","n","n",1,0.7651
NA,"Exp",7303,28,"male","R",2,2,4,"moralSelf","moralSelf","match","m","m",1,0.6124
NA,"Exp",7303,28,"male","R",2,2,5,"immoralSelf","immoralSelf","match","m","n",0,0.6443
NA,"Exp",7303,28,"male","R",2,2,6,"immoralOther","immoralOther","match","m","m",1,0.7932
NA,"Exp",7303,28,"male","R",2,2,7,"moralSelf","moralSelf","match","m","m",1,0.7048
NA,"Exp",7303,28,"male","R",2,2,8,"moralOther","moralOther","match","m","m",1,0.5629
NA,"Exp",7303,28,"male","R",2,2,9,"moralOther","moralOther","match","m","m",1,0.5699
NA,"Exp",7303,28,"male","R",2,2,10,"moralOther","moralOther","match","m","m",1,0.633
NA,"Exp",7303,28,"male","R",2,2,11,"immoralSelf","immoralOther","mismatch","n","n",1,0.6096
NA,"Exp",7303,28,"male","R",2,2,12,"moralOther","moralSelf","mismatch","n","m",0,0.5537
NA,"Exp",7303,28,"male","R",2,2,13,"immoralOther","immoralOther","match","m","m",1,0.6845
NA,"Exp",7303,28,"male","R",2,2,14,"immoralOther","moralOther","mismatch","n","n",1,0.662
NA,"Exp",7303,28,"male","R",2,2,15,"moralSelf","moralOther","mismatch","n","n",1,0.7191
NA,"Exp",7303,28,"male","R",2,2,16,"immoralSelf","moralSelf","mismatch","n","m",0,0.6853
NA,"Exp",7303,28,"male","R",2,2,17,"immoralSelf","immoralSelf","match","m","m",1,0.6788
NA,"Exp",7303,28,"male","R",2,2,18,"moralSelf","immoralOther","mismatch","n","n",1,0.6521
NA,"Exp",7303,28,"male","R",2,2,19,"immoralSelf","immoralSelf","match","m","n",0,0.6088
NA,"Exp",7303,28,"male","R",2,2,20,"moralSelf","moralSelf","match","m","m",1,0.6489
NA,"Exp",7303,28,"male","R",2,2,21,"immoralSelf","moralOther","mismatch","n","n",1,0.7097
NA,"Exp",7303,28,"male","R",2,2,22,"moralOther","immoralSelf","mismatch","n","n",1,0.7037
NA,"Exp",7303,28,"male","R",2,2,23,"immoralOther","immoralSelf","mismatch","n","n",1,0.6577
NA,"Exp",7303,28,"male","R",2,2,24,"immoralOther","immoralOther","match","m","m",1,0.6107
NA,"Exp",7303,28,"male","R",2,3,1,"immoralOther","immoralOther","match","m","m",1,0.6588
NA,"Exp",7303,28,"male","R",2,3,2,"moralOther","immoralOther","mismatch","n","n",1,0.7558
NA,"Exp",7303,28,"male","R",2,3,3,"moralSelf","moralSelf","match","m","m",1,0.5107
NA,"Exp",7303,28,"male","R",2,3,4,"immoralOther","immoralOther","match","m","n",0,0.6167
NA,"Exp",7303,28,"male","R",2,3,5,"immoralSelf","immoralOther","mismatch","n","n",1,0.8488
NA,"Exp",7303,28,"male","R",2,3,6,"moralSelf","immoralSelf","mismatch","n","m",0,0.6456
NA,"Exp",7303,28,"male","R",2,3,7,"immoralOther","moralOther","mismatch","n","n",1,0.8187
NA,"Exp",7303,28,"male","R",2,3,8,"immoralSelf","immoralSelf","match","m","m",1,0.9704
NA,"Exp",7303,28,"male","R",2,3,9,"immoralSelf","immoralSelf","match","m","m",1,0.5936
NA,"Exp",7303,28,"male","R",2,3,10,"moralSelf","immoralOther","mismatch","n","n",1,0.7771
NA,"Exp",7303,28,"male","R",2,3,11,"immoralOther","moralSelf","mismatch","n","m",0,0.7085
NA,"Exp",7303,28,"male","R",2,3,12,"moralOther","moralSelf","mismatch","n","m",0,0.7185
NA,"Exp",7303,28,"male","R",2,3,13,"immoralSelf","immoralOther","mismatch","n","n",1,0.7648
NA,"Exp",7303,28,"male","R",2,3,14,"immoralOther","immoralOther","match","m","m",1,0.7319
NA,"Exp",7303,28,"male","R",2,3,15,"moralOther","immoralSelf","mismatch","n","n",1,0.7344
NA,"Exp",7303,28,"male","R",2,3,16,"moralSelf","moralOther","mismatch","n","n",1,0.7528
NA,"Exp",7303,28,"male","R",2,3,17,"moralSelf","moralSelf","match","m","m",1,0.5397
NA,"Exp",7303,28,"male","R",2,3,18,"immoralOther","immoralSelf","mismatch","n","n",1,0.6983
NA,"Exp",7303,28,"male","R",2,3,19,"immoralSelf","immoralOther","mismatch","n","m",0,1.016
NA,"Exp",7303,28,"male","R",2,3,20,"moralSelf","moralSelf","match","m","m",1,0.8002
NA,"Exp",7303,28,"male","R",2,3,21,"moralOther","moralOther","match","m","m",1,0.7641
NA,"Exp",7303,28,"male","R",2,3,22,"immoralSelf","immoralSelf","match","m","m",1,0.7312
NA,"Exp",7303,28,"male","R",2,3,23,"moralOther","moralOther","match","m","m",1,0.6936
NA,"Exp",7303,28,"male","R",2,3,24,"moralOther","moralOther","match","m","m",1,0.6514
NA,"Exp",7303,28,"male","R",2,4,1,"moralSelf","moralSelf","match","m","m",1,0.5113
NA,"Exp",7303,28,"male","R",2,4,2,"immoralSelf","immoralSelf","match","m","n",0,0.5612
NA,"Exp",7303,28,"male","R",2,4,3,"moralOther","moralOther","match","m","m",1,0.6201
NA,"Exp",7303,28,"male","R",2,4,4,"immoralOther","immoralOther","match","m","m",1,0.6281
NA,"Exp",7303,28,"male","R",2,4,5,"moralOther","immoralOther","mismatch","n","n",1,0.7205
NA,"Exp",7303,28,"male","R",2,4,6,"moralSelf","immoralSelf","mismatch","n","m",0,0.5828
NA,"Exp",7303,28,"male","R",2,4,7,"immoralOther","immoralOther","match","m","m",1,0.674
NA,"Exp",7303,28,"male","R",2,4,8,"moralSelf","immoralOther","mismatch","n","n",1,0.8475
NA,"Exp",7303,28,"male","R",2,4,9,"immoralOther","moralSelf","mismatch","n","n",1,0.7161
NA,"Exp",7303,28,"male","R",2,4,10,"moralSelf","immoralOther","mismatch","n","n",1,0.6583
NA,"Exp",7303,28,"male","R",2,4,11,"immoralSelf","moralSelf","mismatch","n","n",1,0.8194
NA,"Exp",7303,28,"male","R",2,4,12,"moralOther","immoralOther","mismatch","n","n",1,0.6354
NA,"Exp",7303,28,"male","R",2,4,13,"immoralSelf","immoralSelf","match","m","m",1,0.7639
NA,"Exp",7303,28,"male","R",2,4,14,"immoralOther","moralOther","mismatch","n","n",1,0.7231
NA,"Exp",7303,28,"male","R",2,4,15,"moralOther","moralOther","match","m","m",1,0.6494
NA,"Exp",7303,28,"male","R",2,4,16,"moralSelf","moralSelf","match","m","n",0,0.8062
NA,"Exp",7303,28,"male","R",2,4,17,"moralOther","moralOther","match","m","n",0,0.7541
NA,"Exp",7303,28,"male","R",2,4,18,"immoralOther","moralSelf","mismatch","n","n",1,0.7889
NA,"Exp",7303,28,"male","R",2,4,19,"immoralSelf","immoralOther","mismatch","n","m",0,0.8205
NA,"Exp",7303,28,"male","R",2,4,20,"immoralOther","immoralOther","match","m","m",1,0.7049
NA,"Exp",7303,28,"male","R",2,4,21,"immoralSelf","immoralSelf","match","m","m",1,0.4588
NA,"Exp",7303,28,"male","R",2,4,22,"moralSelf","moralSelf","match","m","m",1,0.692
NA,"Exp",7303,28,"male","R",2,4,23,"immoralSelf","moralOther","mismatch","n","n",1,0.7739
NA,"Exp",7303,28,"male","R",2,4,24,"moralOther","immoralOther","mismatch","n","m",0,0.7772
NA,"Exp",7303,28,"male","R",2,5,1,"moralOther","moralOther","match","m","m",1,0.5647
NA,"Exp",7303,28,"male","R",2,5,2,"moralSelf","immoralSelf","mismatch","n","m",0,0.7398
NA,"Exp",7303,28,"male","R",2,5,3,"moralSelf","immoralOther","mismatch","n","n",1,0.8345
NA,"Exp",7303,28,"male","R",2,5,4,"moralOther","moralOther","match","m","m",1,0.739
NA,"Exp",7303,28,"male","R",2,5,5,"immoralOther","moralOther","mismatch","n","n",1,0.7456
NA,"Exp",7303,28,"male","R",2,5,6,"immoralOther","immoralOther","match","m","m",1,0.6803
NA,"Exp",7303,28,"male","R",2,5,7,"moralOther","immoralSelf","mismatch","n","m",0,0.8579
NA,"Exp",7303,28,"male","R",2,5,8,"moralSelf","moralSelf","match","m","m",1,0.5309
NA,"Exp",7303,28,"male","R",2,5,9,"immoralSelf","moralSelf","mismatch","n","m",0,0.9173
NA,"Exp",7303,28,"male","R",2,5,10,"immoralSelf","immoralOther","mismatch","n","n",1,0.8196
NA,"Exp",7303,28,"male","R",2,5,11,"immoralSelf","moralOther","mismatch","n","n",1,0.6916
NA,"Exp",7303,28,"male","R",2,5,12,"immoralSelf","immoralSelf","match","m","m",1,0.6814
NA,"Exp",7303,28,"male","R",2,5,13,"immoralOther","moralSelf","mismatch","n","n",1,0.7228
NA,"Exp",7303,28,"male","R",2,5,14,"immoralOther","immoralOther","match","m","m",1,0.6331
NA,"Exp",7303,28,"male","R",2,5,15,"immoralOther","moralSelf","mismatch","n","n",1,0.8096
NA,"Exp",7303,28,"male","R",2,5,16,"moralSelf","moralOther","mismatch","n","n",1,0.7298
NA,"Exp",7303,28,"male","R",2,5,17,"moralOther","immoralSelf","mismatch","n","n",1,0.5882
NA,"Exp",7303,28,"male","R",2,5,18,"moralOther","moralOther","match","m","m",1,0.5957
NA,"Exp",7303,28,"male","R",2,5,19,"immoralSelf","immoralSelf","match","m","m",1,0.7393
NA,"Exp",7303,28,"male","R",2,5,20,"moralSelf","moralSelf","match","m","m",1,0.6261
NA,"Exp",7303,28,"male","R",2,5,21,"moralSelf","moralSelf","match","m","m",1,0.7024
NA,"Exp",7303,28,"male","R",2,5,22,"immoralSelf","immoralSelf","match","m","m",1,0.708
NA,"Exp",7303,28,"male","R",2,5,23,"moralOther","immoralOther","mismatch","n","m",0,0.6382
NA,"Exp",7303,28,"male","R",2,5,24,"immoralOther","immoralOther","match","m","m",1,0.8227
NA,"Exp",7303,28,"male","R",3,1,1,"moralOther","moralOther","match","m","m",1,0.9998
NA,"Exp",7303,28,"male","R",3,1,2,"immoralOther","immoralOther","match","m","m",1,0.6756
NA,"Exp",7303,28,"male","R",3,1,3,"immoralOther","immoralOther","match","m","n",0,0.7929
NA,"Exp",7303,28,"male","R",3,1,4,"moralSelf","moralOther","mismatch","n","m",0,0.8287
NA,"Exp",7303,28,"male","R",3,1,5,"immoralSelf","immoralSelf","match","m","m",1,0.9211
NA,"Exp",7303,28,"male","R",3,1,6,"immoralSelf","moralOther","mismatch","n","n",1,1.0073
NA,"Exp",7303,28,"male","R",3,1,7,"immoralOther","moralOther","mismatch","n","m",0,0.6672
NA,"Exp",7303,28,"male","R",3,1,8,"immoralSelf","immoralSelf","match","m","m",1,0.8202
NA,"Exp",7303,28,"male","R",3,1,9,"immoralOther","immoralSelf","mismatch","n","n",1,0.6282
NA,"Exp",7303,28,"male","R",3,1,10,"moralOther","moralSelf","mismatch","n","m",0,0.6967
NA,"Exp",7303,28,"male","R",3,1,11,"immoralOther","immoralOther","match","m","m",1,0.7743
NA,"Exp",7303,28,"male","R",3,1,12,"moralSelf","immoralOther","mismatch","n","n",1,0.9296
NA,"Exp",7303,28,"male","R",3,1,13,"moralOther","moralSelf","mismatch","n","n",1,0.7241
NA,"Exp",7303,28,"male","R",3,1,14,"moralSelf","moralOther","mismatch","n","n",1,0.8183
NA,"Exp",7303,28,"male","R",3,1,15,"moralSelf","moralSelf","match","m","m",1,0.5304
NA,"Exp",7303,28,"male","R",3,1,16,"moralSelf","moralSelf","match","m","m",1,0.4689
NA,"Exp",7303,28,"male","R",3,1,17,"moralOther","moralOther","match","m","m",1,0.6342
NA,"Exp",7303,28,"male","R",3,1,18,"moralSelf","moralSelf","match","m","m",1,0.8027
NA,"Exp",7303,28,"male","R",3,1,19,"immoralOther","immoralSelf","mismatch","n","n",1,0.9585
NA,"Exp",7303,28,"male","R",3,1,20,"immoralSelf","moralOther","mismatch","n","m",0,0.7695
NA,"Exp",7303,28,"male","R",3,1,21,"immoralSelf","immoralSelf","match","m","n",0,0.7286
NA,"Exp",7303,28,"male","R",3,1,22,"immoralSelf","moralOther","mismatch","n","n",1,0.7711
NA,"Exp",7303,28,"male","R",3,1,23,"moralOther","moralSelf","mismatch","n","m",0,0.6742
NA,"Exp",7303,28,"male","R",3,1,24,"moralOther","moralOther","match","m","m",1,1.0235
NA,"Exp",7303,28,"male","R",3,2,1,"moralOther","immoralOther","mismatch","n","n",1,0.6919
NA,"Exp",7303,28,"male","R",3,2,2,"moralSelf","moralSelf","match","m","m",1,0.5935
NA,"Exp",7303,28,"male","R",3,2,3,"immoralOther","immoralSelf","mismatch","n","n",1,0.8091
NA,"Exp",7303,28,"male","R",3,2,4,"immoralOther","immoralOther","match","m","m",1,0.7532
NA,"Exp",7303,28,"male","R",3,2,5,"moralOther","moralOther","match","m","m",1,0.7723
NA,"Exp",7303,28,"male","R",3,2,6,"moralSelf","moralSelf","match","m","m",1,0.6672
NA,"Exp",7303,28,"male","R",3,2,7,"immoralSelf","immoralSelf","match","m","n",0,0.6363
NA,"Exp",7303,28,"male","R",3,2,8,"moralOther","moralOther","match","m","m",1,0.6049
NA,"Exp",7303,28,"male","R",3,2,9,"moralOther","immoralOther","mismatch","n","n",1,0.5448
NA,"Exp",7303,28,"male","R",3,2,10,"immoralSelf","immoralSelf","match","m","m",1,0.7033
NA,"Exp",7303,28,"male","R",3,2,11,"moralOther","immoralSelf","mismatch","n","n",1,0.6894
NA,"Exp",7303,28,"male","R",3,2,12,"immoralSelf","immoralSelf","match","m","m",1,0.7068
NA,"Exp",7303,28,"male","R",3,2,13,"moralSelf","immoralOther","mismatch","n","m",0,0.5408
NA,"Exp",7303,28,"male","R",3,2,14,"immoralSelf","immoralOther","mismatch","n","n",1,0.6675
NA,"Exp",7303,28,"male","R",3,2,15,"moralSelf","moralOther","mismatch","n","n",1,0.7485
NA,"Exp",7303,28,"male","R",3,2,16,"moralSelf","moralOther","mismatch","n","n",1,0.8351
NA,"Exp",7303,28,"male","R",3,2,17,"immoralSelf","immoralOther","mismatch","n","n",1,0.8756
NA,"Exp",7303,28,"male","R",3,2,18,"moralOther","moralOther","match","m","n",0,0.721
NA,"Exp",7303,28,"male","R",3,2,19,"immoralOther","immoralSelf","mismatch","n","n",1,0.8713
NA,"Exp",7303,28,"male","R",3,2,20,"immoralOther","immoralOther","match","m","m",1,0.9885
NA,"Exp",7303,28,"male","R",3,2,21,"immoralOther","moralSelf","mismatch","n","n",1,0.7241
NA,"Exp",7303,28,"male","R",3,2,22,"immoralOther","immoralOther","match","m","m",1,0.8104
NA,"Exp",7303,28,"male","R",3,2,23,"immoralSelf","moralOther","mismatch","n","n",1,0.7784
NA,"Exp",7303,28,"male","R",3,2,24,"moralSelf","moralSelf","match","m","m",1,0.6618
NA,"Exp",7303,28,"male","R",3,3,1,"immoralSelf","immoralOther","mismatch","n","n",1,0.7748
NA,"Exp",7303,28,"male","R",3,3,2,"immoralOther","immoralOther","match","m","m",1,0.6422
NA,"Exp",7303,28,"male","R",3,3,3,"immoralSelf","immoralSelf","match","m","m",1,0.6668
NA,"Exp",7303,28,"male","R",3,3,4,"immoralOther","immoralOther","match","m","n",0,0.7558
NA,"Exp",7303,28,"male","R",3,3,5,"moralOther","immoralOther","mismatch","n","m",0,0.6707
NA,"Exp",7303,28,"male","R",3,3,6,"immoralOther","immoralSelf","mismatch","n","n",1,0.82
NA,"Exp",7303,28,"male","R",3,3,7,"immoralOther","moralOther","mismatch","n","n",1,0.82
NA,"Exp",7303,28,"male","R",3,3,8,"immoralSelf","immoralOther","mismatch","n","n",1,0.7802
NA,"Exp",7303,28,"male","R",3,3,9,"immoralOther","immoralSelf","mismatch","n","n",1,0.7275
NA,"Exp",7303,28,"male","R",3,3,10,"immoralSelf","immoralOther","mismatch","n","m",0,0.834
NA,"Exp",7303,28,"male","R",3,3,11,"immoralSelf","immoralSelf","match","m","m",1,0.8585
NA,"Exp",7303,28,"male","R",3,3,12,"moralOther","moralOther","match","m","m",1,0.9316
NA,"Exp",7303,28,"male","R",3,3,13,"moralSelf","moralSelf","match","m","n",0,0.686
NA,"Exp",7303,28,"male","R",3,3,14,"moralOther","moralOther","match","m","m",1,0.9035
NA,"Exp",7303,28,"male","R",3,3,15,"moralSelf","immoralOther","mismatch","n","n",1,0.8095
NA,"Exp",7303,28,"male","R",3,3,16,"moralSelf","moralSelf","match","m","m",1,0.8655
NA,"Exp",7303,28,"male","R",3,3,17,"moralSelf","moralSelf","match","m","m",1,0.7307
NA,"Exp",7303,28,"male","R",3,3,18,"moralOther","moralOther","match","m","m",1,0.8769
NA,"Exp",7303,28,"male","R",3,3,19,"immoralSelf","immoralSelf","match","m","m",1,0.9622
NA,"Exp",7303,28,"male","R",3,3,20,"moralSelf","immoralOther","mismatch","n","n",1,0.6975
NA,"Exp",7303,28,"male","R",3,3,21,"immoralOther","immoralOther","match","m","m",1,0.7672
NA,"Exp",7303,28,"male","R",3,3,22,"moralOther","immoralSelf","mismatch","n","n",1,0.7664
NA,"Exp",7303,28,"male","R",3,3,23,"moralOther","immoralSelf","mismatch","n","n",1,0.7496
NA,"Exp",7303,28,"male","R",3,3,24,"moralSelf","immoralSelf","mismatch","n","n",1,0.8442
NA,"Exp",7303,28,"male","R",3,4,1,"immoralOther","immoralOther","match","m","m",1,0.8402
NA,"Exp",7303,28,"male","R",3,4,2,"moralOther","moralOther","match","m","m",1,0.7288
NA,"Exp",7303,28,"male","R",3,4,3,"immoralOther","immoralOther","match","m","m",1,0.8033
NA,"Exp",7303,28,"male","R",3,4,4,"immoralSelf","moralSelf","mismatch","n","n",1,0.7671
NA,"Exp",7303,28,"male","R",3,4,5,"moralOther","moralOther","match","m","m",1,0.6463
NA,"Exp",7303,28,"male","R",3,4,6,"moralSelf","moralOther","mismatch","n","m",0,0.7471
NA,"Exp",7303,28,"male","R",3,4,7,"immoralOther","immoralOther","match","m","m",1,0.7057
NA,"Exp",7303,28,"male","R",3,4,8,"moralSelf","moralSelf","match","m","m",1,0.7477
NA,"Exp",7303,28,"male","R",3,4,9,"immoralSelf","immoralSelf","match","m","m",1,0.7224
NA,"Exp",7303,28,"male","R",3,4,10,"moralSelf","moralOther","mismatch","n","n",1,0.8325
NA,"Exp",7303,28,"male","R",3,4,11,"moralSelf","moralOther","mismatch","n","m",0,0.8091
NA,"Exp",7303,28,"male","R",3,4,12,"moralSelf","moralSelf","match","m","m",1,0.7373
NA,"Exp",7303,28,"male","R",3,4,13,"immoralSelf","immoralSelf","match","m","m",1,0.6916
NA,"Exp",7303,28,"male","R",3,4,14,"moralOther","moralSelf","mismatch","n","n",1,0.7854
NA,"Exp",7303,28,"male","R",3,4,15,"immoralSelf","immoralOther","mismatch","n","n",1,0.7611
NA,"Exp",7303,28,"male","R",3,4,16,"immoralOther","moralSelf","mismatch","n","n",1,0.74
NA,"Exp",7303,28,"male","R",3,4,17,"immoralOther","immoralSelf","mismatch","n","n",1,0.7626
NA,"Exp",7303,28,"male","R",3,4,18,"immoralSelf","immoralSelf","match","m","n",0,0.7058
NA,"Exp",7303,28,"male","R",3,4,19,"immoralOther","moralOther","mismatch","n","n",1,0.8276
NA,"Exp",7303,28,"male","R",3,4,20,"moralOther","moralSelf","mismatch","n","n",1,0.8401
NA,"Exp",7303,28,"male","R",3,4,21,"immoralSelf","moralSelf","mismatch","n","n",1,0.7287
NA,"Exp",7303,28,"male","R",3,4,22,"moralOther","immoralOther","mismatch","n","n",1,0.8431
NA,"Exp",7303,28,"male","R",3,4,23,"moralSelf","moralSelf","match","m","m",1,0.7476
NA,"Exp",7303,28,"male","R",3,4,24,"moralOther","moralOther","match","m","n",0,0.8343
NA,"Exp",7303,28,"male","R",3,5,1,"moralOther","immoralSelf","mismatch","n","n",1,0.7229
NA,"Exp",7303,28,"male","R",3,5,2,"moralSelf","moralOther","mismatch","n","m",0,0.985
NA,"Exp",7303,28,"male","R",3,5,3,"moralOther","moralOther","match","m","m",1,0.9084
NA,"Exp",7303,28,"male","R",3,5,4,"immoralOther","moralSelf","mismatch","n","n",1,0.6864
NA,"Exp",7303,28,"male","R",3,5,5,"immoralSelf","immoralOther","mismatch","n","n",1,0.8639
NA,"Exp",7303,28,"male","R",3,5,6,"moralSelf","moralSelf","match","m","m",1,0.609
NA,"Exp",7303,28,"male","R",3,5,7,"immoralOther","immoralOther","match","m","m",1,0.745
NA,"Exp",7303,28,"male","R",3,5,8,"moralOther","immoralOther","mismatch","n","n",1,0.5757
NA,"Exp",7303,28,"male","R",3,5,9,"immoralSelf","immoralSelf","match","m","m",1,0.6591
NA,"Exp",7303,28,"male","R",3,5,10,"immoralSelf","moralOther","mismatch","n","n",1,0.7562
NA,"Exp",7303,28,"male","R",3,5,11,"moralOther","moralOther","match","m","m",1,0.8951
NA,"Exp",7303,28,"male","R",3,5,12,"moralSelf","moralSelf","match","m","m",1,0.6049
NA,"Exp",7303,28,"male","R",3,5,13,"moralSelf","moralSelf","match","m","m",1,0.6806
NA,"Exp",7303,28,"male","R",3,5,14,"immoralOther","immoralOther","match","m","n",0,0.5344
NA,"Exp",7303,28,"male","R",3,5,15,"immoralOther","immoralOther","match","m","m",1,0.6328
NA,"Exp",7303,28,"male","R",3,5,16,"immoralOther","moralSelf","mismatch","n","n",1,0.7214
NA,"Exp",7303,28,"male","R",3,5,17,"moralSelf","immoralSelf","mismatch","n","n",1,0.6876
NA,"Exp",7303,28,"male","R",3,5,18,"moralOther","moralOther","match","m","n",0,0.673
NA,"Exp",7303,28,"male","R",3,5,19,"immoralOther","immoralSelf","mismatch","n","n",1,0.5823
NA,"Exp",7303,28,"male","R",3,5,20,"moralOther","moralSelf","mismatch","n","m",0,0.5057
NA,"Exp",7303,28,"male","R",3,5,21,"immoralSelf","immoralSelf","match","m","m",1,0.5477
NA,"Exp",7303,28,"male","R",3,5,22,"moralSelf","immoralSelf","mismatch","n","n",1,0.8023
NA,"Exp",7303,28,"male","R",3,5,23,"immoralSelf","moralSelf","mismatch","n","n",1,0.7662
NA,"Exp",7303,28,"male","R",3,5,24,"immoralSelf","immoralSelf","match","m","m",1,0.7414
