"Date","Prac","Sub","Age","Sex","Hand","Block","Bin","Trial","Shape","Label","Match","CorrResp","Resp","ACC","RT"
"02-May-2018_14:23:06","Exp",7302,22,"female","R",1,1,1,"immoralSelf","immoralOther","mismatch","n","m",0,0.7561
"02-May-2018_14:23:08","Exp",7302,22,"female","R",1,1,2,"moralOther","moralSelf","mismatch","n","n",1,0.7043
"02-May-2018_14:23:10","Exp",7302,22,"female","R",1,1,3,"immoralOther","moralOther","mismatch","n","n",1,0.9903
"02-May-2018_14:23:13","Exp",7302,22,"female","R",1,1,4,"moralSelf","immoralSelf","mismatch","n",NA,-1,1.042
"02-May-2018_14:23:15","Exp",7302,22,"female","R",1,1,5,"immoralSelf","immoralSelf","match","m","m",1,0.8207
"02-May-2018_14:23:17","Exp",7302,22,"female","R",1,1,6,"immoralSelf","immoralSelf","match","m","m",1,0.7547
"02-May-2018_14:23:19","Exp",7302,22,"female","R",1,1,7,"moralOther","moralOther","match","m","m",1,0.5429
"02-May-2018_14:23:21","Exp",7302,22,"female","R",1,1,8,"moralSelf","moralSelf","match","m","m",1,0.9009
"02-May-2018_14:23:24","Exp",7302,22,"female","R",1,1,9,"moralOther","immoralSelf","mismatch","n","n",1,0.9551
"02-May-2018_14:23:26","Exp",7302,22,"female","R",1,1,10,"immoralSelf","moralOther","mismatch","n","n",1,0.6952
"02-May-2018_14:23:28","Exp",7302,22,"female","R",1,1,11,"moralOther","moralSelf","mismatch","n","n",1,0.7593
"02-May-2018_14:23:30","Exp",7302,22,"female","R",1,1,12,"immoralOther","immoralOther","match","m","m",1,0.7135
"02-May-2018_14:23:32","Exp",7302,22,"female","R",1,1,13,"moralOther","moralOther","match","m","m",1,0.5656
"02-May-2018_14:23:34","Exp",7302,22,"female","R",1,1,14,"moralSelf","immoralSelf","mismatch","n","m",0,0.5357
"02-May-2018_14:23:36","Exp",7302,22,"female","R",1,1,15,"immoralOther","immoralOther","match","m","m",1,0.8078
"02-May-2018_14:23:38","Exp",7302,22,"female","R",1,1,16,"immoralSelf","moralSelf","mismatch","n","n",1,0.96
"02-May-2018_14:23:40","Exp",7302,22,"female","R",1,1,17,"moralSelf","immoralSelf","mismatch","n","n",1,0.6661
"02-May-2018_14:23:42","Exp",7302,22,"female","R",1,1,18,"moralSelf","moralSelf","match","m","m",1,0.6962
"02-May-2018_14:23:45","Exp",7302,22,"female","R",1,1,19,"immoralSelf","immoralSelf","match","m","n",0,0.8803
"02-May-2018_14:23:47","Exp",7302,22,"female","R",1,1,20,"moralOther","moralOther","match","m","m",1,0.5785
"02-May-2018_14:23:49","Exp",7302,22,"female","R",1,1,21,"immoralOther","moralOther","mismatch","n","n",1,0.7845
"02-May-2018_14:23:51","Exp",7302,22,"female","R",1,1,22,"moralSelf","moralSelf","match","m","m",1,0.8146
"02-May-2018_14:23:53","Exp",7302,22,"female","R",1,1,23,"immoralOther","immoralOther","match","m","m",1,0.6548
"02-May-2018_14:23:55","Exp",7302,22,"female","R",1,1,24,"immoralOther","moralOther","mismatch","n","n",1,0.8789
"02-May-2018_14:23:57","Exp",7302,22,"female","R",1,2,1,"moralSelf","moralSelf","match","m","m",1,0.7131
"02-May-2018_14:24:00","Exp",7302,22,"female","R",1,2,2,"moralSelf","immoralSelf","mismatch","n","m",0,0.8211
"02-May-2018_14:24:02","Exp",7302,22,"female","R",1,2,3,"immoralOther","immoralOther","match","m","m",1,0.8033
"02-May-2018_14:24:04","Exp",7302,22,"female","R",1,2,4,"immoralOther","immoralSelf","mismatch","n","m",0,0.6294
"02-May-2018_14:24:06","Exp",7302,22,"female","R",1,2,5,"immoralSelf","immoralOther","mismatch","n","n",1,0.8095
"02-May-2018_14:24:08","Exp",7302,22,"female","R",1,2,6,"immoralOther","immoralOther","match","m","m",1,0.6176
"02-May-2018_14:24:10","Exp",7302,22,"female","R",1,2,7,"moralSelf","moralSelf","match","m","m",1,0.7917
"02-May-2018_14:24:12","Exp",7302,22,"female","R",1,2,8,"moralOther","moralOther","match","m","m",1,0.5559
"02-May-2018_14:24:15","Exp",7302,22,"female","R",1,2,9,"immoralSelf","immoralOther","mismatch","n","m",0,0.96
"02-May-2018_14:24:16","Exp",7302,22,"female","R",1,2,10,"moralOther","moralOther","match","m","m",1,0.5381
"02-May-2018_14:24:19","Exp",7302,22,"female","R",1,2,11,"immoralSelf","moralSelf","mismatch","n",NA,-1,1.042
"02-May-2018_14:24:21","Exp",7302,22,"female","R",1,2,12,"moralSelf","immoralSelf","mismatch","n","m",0,0.8264
"02-May-2018_14:24:23","Exp",7302,22,"female","R",1,2,13,"immoralSelf","immoralSelf","match","m","m",1,0.7125
"02-May-2018_14:24:25","Exp",7302,22,"female","R",1,2,14,"moralOther","immoralOther","mismatch","n","m",0,0.4609
"02-May-2018_14:24:27","Exp",7302,22,"female","R",1,2,15,"moralOther","immoralOther","mismatch","n","n",1,0.8027
"02-May-2018_14:24:29","Exp",7302,22,"female","R",1,2,16,"immoralSelf","immoralSelf","match","m","m",1,0.7808
"02-May-2018_14:24:32","Exp",7302,22,"female","R",1,2,17,"moralOther","immoralOther","mismatch","n","n",1,0.8749
"02-May-2018_14:24:34","Exp",7302,22,"female","R",1,2,18,"moralSelf","immoralOther","mismatch","n","m",0,0.871
"02-May-2018_14:24:36","Exp",7302,22,"female","R",1,2,19,"moralSelf","moralSelf","match","m","m",1,0.6512
"02-May-2018_14:24:38","Exp",7302,22,"female","R",1,2,20,"immoralOther","moralOther","mismatch","n","n",1,0.7554
"02-May-2018_14:24:40","Exp",7302,22,"female","R",1,2,21,"immoralOther","immoralOther","match","m","m",1,0.6715
"02-May-2018_14:24:42","Exp",7302,22,"female","R",1,2,22,"immoralSelf","immoralSelf","match","m","m",1,0.9076
"02-May-2018_14:24:44","Exp",7302,22,"female","R",1,2,23,"immoralOther","moralOther","mismatch","n","n",1,0.5997
"02-May-2018_14:24:46","Exp",7302,22,"female","R",1,2,24,"moralOther","moralOther","match","m","m",1,0.5218
"02-May-2018_14:24:48","Exp",7302,22,"female","R",1,3,1,"immoralOther","immoralOther","match","m","m",1,0.7319
"02-May-2018_14:24:51","Exp",7302,22,"female","R",1,3,2,"moralOther","immoralOther","mismatch","n","n",1,0.764
"02-May-2018_14:24:53","Exp",7302,22,"female","R",1,3,3,"moralSelf","moralOther","mismatch","n",NA,-1,1.042
"02-May-2018_14:24:55","Exp",7302,22,"female","R",1,3,4,"immoralSelf","moralSelf","mismatch","n","n",1,0.7443
"02-May-2018_14:24:57","Exp",7302,22,"female","R",1,3,5,"moralOther","moralOther","match","m","m",1,0.5104
"02-May-2018_14:24:59","Exp",7302,22,"female","R",1,3,6,"moralOther","moralOther","match","m","m",1,0.7706
"02-May-2018_14:25:01","Exp",7302,22,"female","R",1,3,7,"immoralOther","immoralSelf","mismatch","n","n",1,0.6026
"02-May-2018_14:25:03","Exp",7302,22,"female","R",1,3,8,"moralSelf","immoralOther","mismatch","n","n",1,0.7648
"02-May-2018_14:25:05","Exp",7302,22,"female","R",1,3,9,"immoralOther","immoralOther","match","m","m",1,0.7109
"02-May-2018_14:25:08","Exp",7302,22,"female","R",1,3,10,"moralSelf","moralOther","mismatch","n","n",1,0.827
"02-May-2018_14:25:10","Exp",7302,22,"female","R",1,3,11,"immoralSelf","immoralSelf","match","m","m",1,0.8571
"02-May-2018_14:25:12","Exp",7302,22,"female","R",1,3,12,"moralSelf","moralSelf","match","m","n",0,0.8092
"02-May-2018_14:25:14","Exp",7302,22,"female","R",1,3,13,"immoralSelf","immoralSelf","match","m","m",1,0.7213
"02-May-2018_14:25:16","Exp",7302,22,"female","R",1,3,14,"immoralOther","immoralSelf","mismatch","n","n",1,0.8195
"02-May-2018_14:25:19","Exp",7302,22,"female","R",1,3,15,"immoralSelf","moralSelf","mismatch","n","n",1,0.8896
"02-May-2018_14:25:21","Exp",7302,22,"female","R",1,3,16,"moralOther","moralOther","match","m","m",1,0.5778
"02-May-2018_14:25:23","Exp",7302,22,"female","R",1,3,17,"immoralSelf","immoralSelf","match","m","n",0,0.8799
"02-May-2018_14:25:25","Exp",7302,22,"female","R",1,3,18,"moralOther","moralSelf","mismatch","n","n",1,0.666
"02-May-2018_14:25:27","Exp",7302,22,"female","R",1,3,19,"immoralSelf","moralSelf","mismatch","n","n",1,1.0081
"02-May-2018_14:25:30","Exp",7302,22,"female","R",1,3,20,"immoralOther","immoralSelf","mismatch","n","n",1,0.8562
"02-May-2018_14:25:32","Exp",7302,22,"female","R",1,3,21,"moralOther","moralSelf","mismatch","n","n",1,0.5444
"02-May-2018_14:25:34","Exp",7302,22,"female","R",1,3,22,"moralSelf","moralSelf","match","m","m",1,0.6625
"02-May-2018_14:25:36","Exp",7302,22,"female","R",1,3,23,"immoralOther","immoralOther","match","m","n",0,0.6846
"02-May-2018_14:25:38","Exp",7302,22,"female","R",1,3,24,"moralSelf","moralSelf","match","m","m",1,0.9027
"02-May-2018_14:25:53","Exp",7302,22,"female","R",1,4,1,"immoralSelf","immoralSelf","match","m","m",1,0.8236
"02-May-2018_14:25:55","Exp",7302,22,"female","R",1,4,2,"moralOther","immoralOther","mismatch","n","n",1,0.6137
"02-May-2018_14:25:57","Exp",7302,22,"female","R",1,4,3,"moralSelf","moralOther","mismatch","n","m",0,0.7338
"02-May-2018_14:26:00","Exp",7302,22,"female","R",1,4,4,"moralSelf","moralSelf","match","m","n",0,0.7419
"02-May-2018_14:26:02","Exp",7302,22,"female","R",1,4,5,"immoralOther","immoralOther","match","m","m",1,0.684
"02-May-2018_14:26:04","Exp",7302,22,"female","R",1,4,6,"immoralOther","immoralOther","match","m","m",1,0.6062
"02-May-2018_14:26:06","Exp",7302,22,"female","R",1,4,7,"immoralSelf","moralOther","mismatch","n","n",1,0.7842
"02-May-2018_14:26:08","Exp",7302,22,"female","R",1,4,8,"moralOther","moralOther","match","m","m",1,0.5824
"02-May-2018_14:26:10","Exp",7302,22,"female","R",1,4,9,"moralOther","moralOther","match","m","m",1,0.4126
"02-May-2018_14:26:11","Exp",7302,22,"female","R",1,4,10,"moralSelf","moralSelf","match","m","m",1,0.5006
"02-May-2018_14:26:14","Exp",7302,22,"female","R",1,4,11,"immoralSelf","moralSelf","mismatch","n","n",1,0.8507
"02-May-2018_14:26:16","Exp",7302,22,"female","R",1,4,12,"moralSelf","moralOther","mismatch","n","n",1,0.9069
"02-May-2018_14:26:18","Exp",7302,22,"female","R",1,4,13,"moralOther","moralSelf","mismatch","n","n",1,0.721
"02-May-2018_14:26:20","Exp",7302,22,"female","R",1,4,14,"immoralOther","moralSelf","mismatch","n","n",1,0.6351
"02-May-2018_14:26:22","Exp",7302,22,"female","R",1,4,15,"immoralOther","moralOther","mismatch","n","n",1,0.8553
"02-May-2018_14:26:25","Exp",7302,22,"female","R",1,4,16,"immoralSelf","moralOther","mismatch","n","n",1,0.7194
"02-May-2018_14:26:26","Exp",7302,22,"female","R",1,4,17,"moralSelf","moralOther","mismatch","n","m",0,0.5214
"02-May-2018_14:26:28","Exp",7302,22,"female","R",1,4,18,"moralSelf","moralSelf","match","m","m",1,0.6597
"02-May-2018_14:26:31","Exp",7302,22,"female","R",1,4,19,"immoralSelf","immoralSelf","match","m","m",1,0.8097
"02-May-2018_14:26:33","Exp",7302,22,"female","R",1,4,20,"immoralOther","moralOther","mismatch","n","n",1,0.6738
"02-May-2018_14:26:35","Exp",7302,22,"female","R",1,4,21,"moralOther","moralOther","match","m","m",1,0.534
"02-May-2018_14:26:37","Exp",7302,22,"female","R",1,4,22,"moralOther","immoralSelf","mismatch","n","n",1,0.6141
"02-May-2018_14:26:39","Exp",7302,22,"female","R",1,4,23,"immoralOther","immoralOther","match","m","m",1,0.6462
"02-May-2018_14:26:41","Exp",7302,22,"female","R",1,4,24,"immoralSelf","immoralSelf","match","m","m",1,0.7763
"02-May-2018_14:26:43","Exp",7302,22,"female","R",1,5,1,"moralOther","immoralSelf","mismatch","n","n",1,0.6964
"02-May-2018_14:26:45","Exp",7302,22,"female","R",1,5,2,"moralOther","moralOther","match","m","n",0,0.8805
"02-May-2018_14:26:47","Exp",7302,22,"female","R",1,5,3,"immoralOther","immoralOther","match","m","m",1,0.5546
"02-May-2018_14:26:49","Exp",7302,22,"female","R",1,5,4,"moralSelf","moralSelf","match","m","m",1,0.9747
"02-May-2018_14:26:51","Exp",7302,22,"female","R",1,5,5,"immoralSelf","immoralSelf","match","m","m",1,0.6149
"02-May-2018_14:26:53","Exp",7302,22,"female","R",1,5,6,"moralOther","moralOther","match","m","m",1,0.615
"02-May-2018_14:26:56","Exp",7302,22,"female","R",1,5,7,"immoralOther","immoralSelf","mismatch","n","m",0,0.6552
"02-May-2018_14:26:58","Exp",7302,22,"female","R",1,5,8,"immoralOther","immoralOther","match","m","m",1,0.6552
"02-May-2018_14:27:00","Exp",7302,22,"female","R",1,5,9,"immoralOther","moralSelf","mismatch","n","n",1,0.5994
"02-May-2018_14:27:02","Exp",7302,22,"female","R",1,5,10,"moralSelf","immoralSelf","mismatch","n","m",0,0.6495
"02-May-2018_14:27:04","Exp",7302,22,"female","R",1,5,11,"moralOther","immoralOther","mismatch","n","n",1,0.6736
"02-May-2018_14:27:06","Exp",7302,22,"female","R",1,5,12,"immoralOther","moralSelf","mismatch","n","n",1,0.7737
"02-May-2018_14:27:08","Exp",7302,22,"female","R",1,5,13,"immoralSelf","moralOther","mismatch","n","n",1,0.7338
"02-May-2018_14:27:10","Exp",7302,22,"female","R",1,5,14,"moralSelf","immoralOther","mismatch","n","n",1,0.734
"02-May-2018_14:27:12","Exp",7302,22,"female","R",1,5,15,"immoralSelf","immoralSelf","match","m","m",1,0.6221
"02-May-2018_14:27:14","Exp",7302,22,"female","R",1,5,16,"immoralSelf","immoralSelf","match","m","m",1,0.5482
"02-May-2018_14:27:16","Exp",7302,22,"female","R",1,5,17,"immoralSelf","moralOther","mismatch","n","n",1,0.5923
"02-May-2018_14:27:18","Exp",7302,22,"female","R",1,5,18,"moralOther","immoralOther","mismatch","n","n",1,0.6445
"02-May-2018_14:27:20","Exp",7302,22,"female","R",1,5,19,"immoralSelf","immoralOther","mismatch","n","n",1,0.4385
"02-May-2018_14:27:22","Exp",7302,22,"female","R",1,5,20,"immoralOther","immoralOther","match","m","m",1,0.7766
"02-May-2018_14:27:24","Exp",7302,22,"female","R",1,5,21,"moralSelf","moralSelf","match","m","m",1,0.7527
"02-May-2018_14:27:26","Exp",7302,22,"female","R",1,5,22,"moralSelf","moralSelf","match","m","m",1,0.5169
"02-May-2018_14:27:28","Exp",7302,22,"female","R",1,5,23,"moralOther","moralOther","match","m","m",1,0.657
"02-May-2018_14:27:30","Exp",7302,22,"female","R",1,5,24,"moralSelf","moralOther","mismatch","n","n",1,0.8091
"02-May-2018_14:27:35","Exp",7302,22,"female","R",2,1,1,"moralOther","moralOther","match","m","m",1,0.7233
"02-May-2018_14:27:38","Exp",7302,22,"female","R",2,1,2,"moralOther","immoralSelf","mismatch","n","n",1,0.9175
"02-May-2018_14:27:40","Exp",7302,22,"female","R",2,1,3,"immoralSelf","moralOther","mismatch","n","n",1,0.7036
"02-May-2018_14:27:42","Exp",7302,22,"female","R",2,1,4,"immoralOther","moralOther","mismatch","n","n",1,0.6777
"02-May-2018_14:27:44","Exp",7302,22,"female","R",2,1,5,"immoralSelf","moralOther","mismatch","n","n",1,0.7278
"02-May-2018_14:27:46","Exp",7302,22,"female","R",2,1,6,"moralOther","immoralSelf","mismatch","n","n",1,0.696
"02-May-2018_14:27:48","Exp",7302,22,"female","R",2,1,7,"immoralOther","moralSelf","mismatch","n","n",1,0.8401
"02-May-2018_14:27:50","Exp",7302,22,"female","R",2,1,8,"immoralSelf","moralSelf","mismatch","n","n",1,0.7543
"02-May-2018_14:27:52","Exp",7302,22,"female","R",2,1,9,"moralSelf","moralSelf","match","m","m",1,0.6304
"02-May-2018_14:27:54","Exp",7302,22,"female","R",2,1,10,"moralOther","moralOther","match","m","m",1,0.5224
"02-May-2018_14:27:56","Exp",7302,22,"female","R",2,1,11,"immoralSelf","immoralSelf","match","m","n",0,0.6446
"02-May-2018_14:27:59","Exp",7302,22,"female","R",2,1,12,"moralSelf","moralOther","mismatch","n","n",1,0.8867
"02-May-2018_14:28:01","Exp",7302,22,"female","R",2,1,13,"immoralOther","immoralOther","match","m","m",1,0.7048
"02-May-2018_14:28:03","Exp",7302,22,"female","R",2,1,14,"immoralSelf","immoralSelf","match","m","n",0,0.703
"02-May-2018_14:28:05","Exp",7302,22,"female","R",2,1,15,"moralOther","moralSelf","mismatch","n","n",1,0.669
"02-May-2018_14:28:07","Exp",7302,22,"female","R",2,1,16,"immoralSelf","immoralSelf","match","m","m",1,0.6172
"02-May-2018_14:28:09","Exp",7302,22,"female","R",2,1,17,"moralOther","moralOther","match","m","m",1,0.6233
"02-May-2018_14:28:11","Exp",7302,22,"female","R",2,1,18,"immoralOther","immoralOther","match","m","m",1,0.5735
"02-May-2018_14:28:13","Exp",7302,22,"female","R",2,1,19,"moralSelf","moralSelf","match","m","m",1,0.6936
"02-May-2018_14:28:15","Exp",7302,22,"female","R",2,1,20,"moralSelf","immoralSelf","mismatch","n","m",0,1.0136
"02-May-2018_14:28:18","Exp",7302,22,"female","R",2,1,21,"immoralOther","immoralSelf","mismatch","n","n",1,0.8218
"02-May-2018_14:28:20","Exp",7302,22,"female","R",2,1,22,"immoralOther","immoralOther","match","m","m",1,0.6439
"02-May-2018_14:28:22","Exp",7302,22,"female","R",2,1,23,"moralSelf","moralOther","mismatch","n","m",0,0.71
"02-May-2018_14:28:24","Exp",7302,22,"female","R",2,1,24,"moralSelf","moralSelf","match","m","m",1,0.9141
"02-May-2018_14:28:26","Exp",7302,22,"female","R",2,2,1,"immoralOther","moralSelf","mismatch","n","n",1,0.7343
"02-May-2018_14:28:28","Exp",7302,22,"female","R",2,2,2,"moralSelf","immoralOther","mismatch","n","n",1,0.6464
"02-May-2018_14:28:30","Exp",7302,22,"female","R",2,2,3,"moralOther","immoralOther","mismatch","n","m",0,0.5765
"02-May-2018_14:28:32","Exp",7302,22,"female","R",2,2,4,"moralSelf","moralSelf","match","m","m",1,0.6566
"02-May-2018_14:28:34","Exp",7302,22,"female","R",2,2,5,"immoralSelf","immoralSelf","match","m","m",1,0.8089
"02-May-2018_14:28:36","Exp",7302,22,"female","R",2,2,6,"immoralOther","immoralOther","match","m","m",1,0.6248
"02-May-2018_14:28:38","Exp",7302,22,"female","R",2,2,7,"moralSelf","moralSelf","match","m","m",1,0.7109
"02-May-2018_14:28:40","Exp",7302,22,"female","R",2,2,8,"moralOther","moralOther","match","m","m",1,0.6191
"02-May-2018_14:28:42","Exp",7302,22,"female","R",2,2,9,"moralOther","moralOther","match","m","m",1,0.4171
"02-May-2018_14:28:44","Exp",7302,22,"female","R",2,2,10,"moralOther","moralOther","match","m","m",1,0.4333
"02-May-2018_14:28:46","Exp",7302,22,"female","R",2,2,11,"immoralSelf","immoralOther","mismatch","n","n",1,0.6934
"02-May-2018_14:28:48","Exp",7302,22,"female","R",2,2,12,"moralOther","moralSelf","mismatch","n","n",1,0.7015
"02-May-2018_14:28:50","Exp",7302,22,"female","R",2,2,13,"immoralOther","immoralOther","match","m","m",1,0.5717
"02-May-2018_14:28:53","Exp",7302,22,"female","R",2,2,14,"immoralOther","moralOther","mismatch","n","n",1,0.9557
"02-May-2018_14:28:55","Exp",7302,22,"female","R",2,2,15,"moralSelf","moralOther","mismatch","n","n",1,0.7838
"02-May-2018_14:28:57","Exp",7302,22,"female","R",2,2,16,"immoralSelf","moralSelf","mismatch","n","n",1,0.854
"02-May-2018_14:28:59","Exp",7302,22,"female","R",2,2,17,"immoralSelf","immoralSelf","match","m","n",0,0.9501
"02-May-2018_14:29:01","Exp",7302,22,"female","R",2,2,18,"moralSelf","immoralOther","mismatch","n","n",1,0.7062
"02-May-2018_14:29:03","Exp",7302,22,"female","R",2,2,19,"immoralSelf","immoralSelf","match","m","m",1,0.6644
"02-May-2018_14:29:06","Exp",7302,22,"female","R",2,2,20,"moralSelf","moralSelf","match","m","m",1,0.7664
"02-May-2018_14:29:08","Exp",7302,22,"female","R",2,2,21,"immoralSelf","moralOther","mismatch","n","n",1,0.6406
"02-May-2018_14:29:10","Exp",7302,22,"female","R",2,2,22,"moralOther","immoralSelf","mismatch","n","n",1,0.6827
"02-May-2018_14:29:12","Exp",7302,22,"female","R",2,2,23,"immoralOther","immoralSelf","mismatch","n","n",1,0.8848
"02-May-2018_14:29:14","Exp",7302,22,"female","R",2,2,24,"immoralOther","immoralOther","match","m","m",1,0.6469
"02-May-2018_14:29:16","Exp",7302,22,"female","R",2,3,1,"immoralOther","immoralOther","match","m","m",1,0.4731
"02-May-2018_14:29:18","Exp",7302,22,"female","R",2,3,2,"moralOther","immoralOther","mismatch","n","m",0,0.3812
"02-May-2018_14:29:20","Exp",7302,22,"female","R",2,3,3,"moralSelf","moralSelf","match","m","m",1,0.5952
"02-May-2018_14:29:22","Exp",7302,22,"female","R",2,3,4,"immoralOther","immoralOther","match","m","m",1,0.8074
"02-May-2018_14:29:24","Exp",7302,22,"female","R",2,3,5,"immoralSelf","immoralOther","mismatch","n","n",1,0.5675
"02-May-2018_14:29:26","Exp",7302,22,"female","R",2,3,6,"moralSelf","immoralSelf","mismatch","n","n",1,0.8476
"02-May-2018_14:29:28","Exp",7302,22,"female","R",2,3,7,"immoralOther","moralOther","mismatch","n","n",1,0.7278
"02-May-2018_14:29:30","Exp",7302,22,"female","R",2,3,8,"immoralSelf","immoralSelf","match","m","m",1,0.6079
"02-May-2018_14:29:33","Exp",7302,22,"female","R",2,3,9,"immoralSelf","immoralSelf","match","m",NA,-1,1.042
"02-May-2018_14:29:35","Exp",7302,22,"female","R",2,3,10,"moralSelf","immoralOther","mismatch","n","n",1,0.6901
"02-May-2018_14:29:37","Exp",7302,22,"female","R",2,3,11,"immoralOther","moralSelf","mismatch","n","n",1,0.9862
"02-May-2018_14:29:39","Exp",7302,22,"female","R",2,3,12,"moralOther","moralSelf","mismatch","n","n",1,0.7924
"02-May-2018_14:29:41","Exp",7302,22,"female","R",2,3,13,"immoralSelf","immoralOther","mismatch","n","n",1,0.7325
"02-May-2018_14:29:43","Exp",7302,22,"female","R",2,3,14,"immoralOther","immoralOther","match","m","n",0,0.5727
"02-May-2018_14:29:45","Exp",7302,22,"female","R",2,3,15,"moralOther","immoralSelf","mismatch","n","n",1,0.8048
"02-May-2018_14:29:48","Exp",7302,22,"female","R",2,3,16,"moralSelf","moralOther","mismatch","n","n",1,0.6549
"02-May-2018_14:29:50","Exp",7302,22,"female","R",2,3,17,"moralSelf","moralSelf","match","m","m",1,0.6631
"02-May-2018_14:29:52","Exp",7302,22,"female","R",2,3,18,"immoralOther","immoralSelf","mismatch","n",NA,-1,1.042
"02-May-2018_14:29:54","Exp",7302,22,"female","R",2,3,19,"immoralSelf","immoralOther","mismatch","n","n",1,0.7672
"02-May-2018_14:29:56","Exp",7302,22,"female","R",2,3,20,"moralSelf","moralSelf","match","m","m",1,0.7353
"02-May-2018_14:29:58","Exp",7302,22,"female","R",2,3,21,"moralOther","moralOther","match","m","m",1,0.5515
"02-May-2018_14:30:00","Exp",7302,22,"female","R",2,3,22,"immoralSelf","immoralSelf","match","m","m",1,0.6276
"02-May-2018_14:30:02","Exp",7302,22,"female","R",2,3,23,"moralOther","moralOther","match","m","m",1,0.5277
"02-May-2018_14:30:04","Exp",7302,22,"female","R",2,3,24,"moralOther","moralOther","match","m","m",1,0.4878
"02-May-2018_14:30:19","Exp",7302,22,"female","R",2,4,1,"moralSelf","moralSelf","match","m","m",1,0.5327
"02-May-2018_14:30:21","Exp",7302,22,"female","R",2,4,2,"immoralSelf","immoralSelf","match","m","m",1,0.6848
"02-May-2018_14:30:23","Exp",7302,22,"female","R",2,4,3,"moralOther","moralOther","match","m","m",1,0.4549
"02-May-2018_14:30:25","Exp",7302,22,"female","R",2,4,4,"immoralOther","immoralOther","match","m","m",1,0.535
"02-May-2018_14:30:27","Exp",7302,22,"female","R",2,4,5,"moralOther","immoralOther","mismatch","n","n",1,0.5831
"02-May-2018_14:30:29","Exp",7302,22,"female","R",2,4,6,"moralSelf","immoralSelf","mismatch","n","n",1,0.7973
"02-May-2018_14:30:31","Exp",7302,22,"female","R",2,4,7,"immoralOther","immoralOther","match","m","m",1,0.5433
"02-May-2018_14:30:33","Exp",7302,22,"female","R",2,4,8,"moralSelf","immoralOther","mismatch","n","n",1,0.5974
"02-May-2018_14:30:35","Exp",7302,22,"female","R",2,4,9,"immoralOther","moralSelf","mismatch","n","n",1,0.6796
"02-May-2018_14:30:38","Exp",7302,22,"female","R",2,4,10,"moralSelf","immoralOther","mismatch","n","n",1,0.8337
"02-May-2018_14:30:40","Exp",7302,22,"female","R",2,4,11,"immoralSelf","moralSelf","mismatch","n","m",0,0.5898
"02-May-2018_14:30:42","Exp",7302,22,"female","R",2,4,12,"moralOther","immoralOther","mismatch","n","n",1,0.6259
"02-May-2018_14:30:44","Exp",7302,22,"female","R",2,4,13,"immoralSelf","immoralSelf","match","m","m",1,0.76
"02-May-2018_14:30:46","Exp",7302,22,"female","R",2,4,14,"immoralOther","moralOther","mismatch","n","n",1,0.6662
"02-May-2018_14:30:48","Exp",7302,22,"female","R",2,4,15,"moralOther","moralOther","match","m","m",1,0.6003
"02-May-2018_14:30:50","Exp",7302,22,"female","R",2,4,16,"moralSelf","moralSelf","match","m","n",0,0.7144
"02-May-2018_14:30:52","Exp",7302,22,"female","R",2,4,17,"moralOther","moralOther","match","m","m",1,0.7025
"02-May-2018_14:30:54","Exp",7302,22,"female","R",2,4,18,"immoralOther","moralSelf","mismatch","n","n",1,0.6766
"02-May-2018_14:30:56","Exp",7302,22,"female","R",2,4,19,"immoralSelf","immoralOther","mismatch","n","n",1,0.8327
"02-May-2018_14:30:58","Exp",7302,22,"female","R",2,4,20,"immoralOther","immoralOther","match","m","m",1,0.7649
"02-May-2018_14:31:01","Exp",7302,22,"female","R",2,4,21,"immoralSelf","immoralSelf","match","m","m",1,0.7991
"02-May-2018_14:31:03","Exp",7302,22,"female","R",2,4,22,"moralSelf","moralSelf","match","m","m",1,0.6411
"02-May-2018_14:31:05","Exp",7302,22,"female","R",2,4,23,"immoralSelf","moralOther","mismatch","n","n",1,0.6912
"02-May-2018_14:31:07","Exp",7302,22,"female","R",2,4,24,"moralOther","immoralOther","mismatch","n","n",1,0.6434
"02-May-2018_14:31:09","Exp",7302,22,"female","R",2,5,1,"moralOther","moralOther","match","m","m",1,0.8215
"02-May-2018_14:31:11","Exp",7302,22,"female","R",2,5,2,"moralSelf","immoralSelf","mismatch","n","n",1,0.7476
"02-May-2018_14:31:13","Exp",7302,22,"female","R",2,5,3,"moralSelf","immoralOther","mismatch","n","n",1,0.8797
"02-May-2018_14:31:15","Exp",7302,22,"female","R",2,5,4,"moralOther","moralOther","match","m","m",1,0.6258
"02-May-2018_14:31:17","Exp",7302,22,"female","R",2,5,5,"immoralOther","moralOther","mismatch","n","m",0,0.616
"02-May-2018_14:31:20","Exp",7302,22,"female","R",2,5,6,"immoralOther","immoralOther","match","m","n",0,0.9041
"02-May-2018_14:31:22","Exp",7302,22,"female","R",2,5,7,"moralOther","immoralSelf","mismatch","n","n",1,0.6702
"02-May-2018_14:31:24","Exp",7302,22,"female","R",2,5,8,"moralSelf","moralSelf","match","m","m",1,0.6423
"02-May-2018_14:31:26","Exp",7302,22,"female","R",2,5,9,"immoralSelf","moralSelf","mismatch","n","n",1,0.7164
"02-May-2018_14:31:28","Exp",7302,22,"female","R",2,5,10,"immoralSelf","immoralOther","mismatch","n","n",1,0.8245
"02-May-2018_14:31:30","Exp",7302,22,"female","R",2,5,11,"immoralSelf","moralOther","mismatch","n","n",1,0.6947
"02-May-2018_14:31:32","Exp",7302,22,"female","R",2,5,12,"immoralSelf","immoralSelf","match","m","n",0,0.6229
"02-May-2018_14:31:34","Exp",7302,22,"female","R",2,5,13,"immoralOther","moralSelf","mismatch","n","n",1,0.6849
"02-May-2018_14:31:36","Exp",7302,22,"female","R",2,5,14,"immoralOther","immoralOther","match","m","m",1,0.751
"02-May-2018_14:31:39","Exp",7302,22,"female","R",2,5,15,"immoralOther","moralSelf","mismatch","n","n",1,0.8111
"02-May-2018_14:31:41","Exp",7302,22,"female","R",2,5,16,"moralSelf","moralOther","mismatch","n","n",1,0.7233
"02-May-2018_14:31:43","Exp",7302,22,"female","R",2,5,17,"moralOther","immoralSelf","mismatch","n","n",1,0.8134
"02-May-2018_14:31:45","Exp",7302,22,"female","R",2,5,18,"moralOther","moralOther","match","m","m",1,0.7335
"02-May-2018_14:31:47","Exp",7302,22,"female","R",2,5,19,"immoralSelf","immoralSelf","match","m","m",1,0.7816
"02-May-2018_14:31:49","Exp",7302,22,"female","R",2,5,20,"moralSelf","moralSelf","match","m","m",1,0.6757
"02-May-2018_14:31:51","Exp",7302,22,"female","R",2,5,21,"moralSelf","moralSelf","match","m","m",1,0.5516
"02-May-2018_14:31:53","Exp",7302,22,"female","R",2,5,22,"immoralSelf","immoralSelf","match","m","m",1,0.78
"02-May-2018_14:31:56","Exp",7302,22,"female","R",2,5,23,"moralOther","immoralOther","mismatch","n","n",1,0.8421
"02-May-2018_14:31:58","Exp",7302,22,"female","R",2,5,24,"immoralOther","immoralOther","match","m","m",1,0.6523
"02-May-2018_14:32:03","Exp",7302,22,"female","R",3,1,1,"moralOther","moralOther","match","m","m",1,0.5825
"02-May-2018_14:32:05","Exp",7302,22,"female","R",3,1,2,"immoralOther","immoralOther","match","m","m",1,0.7726
"02-May-2018_14:32:07","Exp",7302,22,"female","R",3,1,3,"immoralOther","immoralOther","match","m","m",1,0.5407
"02-May-2018_14:32:09","Exp",7302,22,"female","R",3,1,4,"moralSelf","moralOther","mismatch","n","n",1,0.7548
"02-May-2018_14:32:11","Exp",7302,22,"female","R",3,1,5,"immoralSelf","immoralSelf","match","m","m",1,0.823
"02-May-2018_14:32:13","Exp",7302,22,"female","R",3,1,6,"immoralSelf","moralOther","mismatch","n","n",1,0.8051
"02-May-2018_14:32:15","Exp",7302,22,"female","R",3,1,7,"immoralOther","moralOther","mismatch","n","n",1,0.7352
"02-May-2018_14:32:17","Exp",7302,22,"female","R",3,1,8,"immoralSelf","immoralSelf","match","m","m",1,0.6634
"02-May-2018_14:32:19","Exp",7302,22,"female","R",3,1,9,"immoralOther","immoralSelf","mismatch","n","n",1,0.7255
"02-May-2018_14:32:22","Exp",7302,22,"female","R",3,1,10,"moralOther","moralSelf","mismatch","n","n",1,0.7596
"02-May-2018_14:32:24","Exp",7302,22,"female","R",3,1,11,"immoralOther","immoralOther","match","m","m",1,0.6657
"02-May-2018_14:32:26","Exp",7302,22,"female","R",3,1,12,"moralSelf","immoralOther","mismatch","n","n",1,0.6478
"02-May-2018_14:32:28","Exp",7302,22,"female","R",3,1,13,"moralOther","moralSelf","mismatch","n","n",1,0.8559
"02-May-2018_14:32:30","Exp",7302,22,"female","R",3,1,14,"moralSelf","moralOther","mismatch","n","n",1,0.6961
"02-May-2018_14:32:32","Exp",7302,22,"female","R",3,1,15,"moralSelf","moralSelf","match","m",NA,-1,1.042
"02-May-2018_14:32:34","Exp",7302,22,"female","R",3,1,16,"moralSelf","moralSelf","match","m","n",0,0.5864
"02-May-2018_14:32:36","Exp",7302,22,"female","R",3,1,17,"moralOther","moralOther","match","m","m",1,0.6484
"02-May-2018_14:32:39","Exp",7302,22,"female","R",3,1,18,"moralSelf","moralSelf","match","m","m",1,0.7446
"02-May-2018_14:32:41","Exp",7302,22,"female","R",3,1,19,"immoralOther","immoralSelf","mismatch","n","n",1,0.7027
"02-May-2018_14:32:43","Exp",7302,22,"female","R",3,1,20,"immoralSelf","moralOther","mismatch","n","n",1,0.6928
"02-May-2018_14:32:45","Exp",7302,22,"female","R",3,1,21,"immoralSelf","immoralSelf","match","m","m",1,0.4849
"02-May-2018_14:32:47","Exp",7302,22,"female","R",3,1,22,"immoralSelf","moralOther","mismatch","n","n",1,0.599
"02-May-2018_14:32:49","Exp",7302,22,"female","R",3,1,23,"moralOther","moralSelf","mismatch","n","n",1,0.8572
"02-May-2018_14:32:51","Exp",7302,22,"female","R",3,1,24,"moralOther","moralOther","match","m","n",0,0.5433
"02-May-2018_14:32:53","Exp",7302,22,"female","R",3,2,1,"moralOther","immoralOther","mismatch","n","n",1,0.6774
"02-May-2018_14:32:55","Exp",7302,22,"female","R",3,2,2,"moralSelf","moralSelf","match","m","m",1,0.5915
"02-May-2018_14:32:57","Exp",7302,22,"female","R",3,2,3,"immoralOther","immoralSelf","mismatch","n","n",1,0.7156
"02-May-2018_14:32:59","Exp",7302,22,"female","R",3,2,4,"immoralOther","immoralOther","match","m","m",1,0.5757
"02-May-2018_14:33:01","Exp",7302,22,"female","R",3,2,5,"moralOther","moralOther","match","m","m",1,0.6719
"02-May-2018_14:33:03","Exp",7302,22,"female","R",3,2,6,"moralSelf","moralSelf","match","m","m",1,0.6359
"02-May-2018_14:33:05","Exp",7302,22,"female","R",3,2,7,"immoralSelf","immoralSelf","match","m","m",1,0.504
"02-May-2018_14:33:07","Exp",7302,22,"female","R",3,2,8,"moralOther","moralOther","match","m","m",1,0.5742
"02-May-2018_14:33:09","Exp",7302,22,"female","R",3,2,9,"moralOther","immoralOther","mismatch","n","m",0,0.5662
"02-May-2018_14:33:11","Exp",7302,22,"female","R",3,2,10,"immoralSelf","immoralSelf","match","m","m",1,0.5844
"02-May-2018_14:33:13","Exp",7302,22,"female","R",3,2,11,"moralOther","immoralSelf","mismatch","n","n",1,0.6546
"02-May-2018_14:33:15","Exp",7302,22,"female","R",3,2,12,"immoralSelf","immoralSelf","match","m","m",1,0.5906
"02-May-2018_14:33:17","Exp",7302,22,"female","R",3,2,13,"moralSelf","immoralOther","mismatch","n","n",1,0.8028
"02-May-2018_14:33:19","Exp",7302,22,"female","R",3,2,14,"immoralSelf","immoralOther","mismatch","n","m",0,0.6448
"02-May-2018_14:33:21","Exp",7302,22,"female","R",3,2,15,"moralSelf","moralOther","mismatch","n","n",1,0.7029
"02-May-2018_14:33:23","Exp",7302,22,"female","R",3,2,16,"moralSelf","moralOther","mismatch","n","n",1,0.6451
"02-May-2018_14:33:25","Exp",7302,22,"female","R",3,2,17,"immoralSelf","immoralOther","mismatch","n","n",1,0.7272
"02-May-2018_14:33:27","Exp",7302,22,"female","R",3,2,18,"moralOther","moralOther","match","m","m",1,0.6233
"02-May-2018_14:33:29","Exp",7302,22,"female","R",3,2,19,"immoralOther","immoralSelf","mismatch","n","m",0,0.6935
"02-May-2018_14:33:31","Exp",7302,22,"female","R",3,2,20,"immoralOther","immoralOther","match","m","m",1,0.6455
"02-May-2018_14:33:33","Exp",7302,22,"female","R",3,2,21,"immoralOther","moralSelf","mismatch","n","n",1,0.6877
"02-May-2018_14:33:35","Exp",7302,22,"female","R",3,2,22,"immoralOther","immoralOther","match","m","m",1,0.6558
"02-May-2018_14:33:38","Exp",7302,22,"female","R",3,2,23,"immoralSelf","moralOther","mismatch","n","n",1,0.6879
"02-May-2018_14:33:40","Exp",7302,22,"female","R",3,2,24,"moralSelf","moralSelf","match","m","n",0,0.7681
"02-May-2018_14:33:42","Exp",7302,22,"female","R",3,3,1,"immoralSelf","immoralOther","mismatch","n","m",0,0.7201
"02-May-2018_14:33:44","Exp",7302,22,"female","R",3,3,2,"immoralOther","immoralOther","match","m","m",1,0.6262
"02-May-2018_14:33:46","Exp",7302,22,"female","R",3,3,3,"immoralSelf","immoralSelf","match","m","m",1,0.7044
"02-May-2018_14:33:48","Exp",7302,22,"female","R",3,3,4,"immoralOther","immoralOther","match","m","m",1,0.5825
"02-May-2018_14:33:50","Exp",7302,22,"female","R",3,3,5,"moralOther","immoralOther","mismatch","n","n",1,0.8366
"02-May-2018_14:33:52","Exp",7302,22,"female","R",3,3,6,"immoralOther","immoralSelf","mismatch","n","n",1,0.7687
"02-May-2018_14:33:54","Exp",7302,22,"female","R",3,3,7,"immoralOther","moralOther","mismatch","n","n",1,0.6648
"02-May-2018_14:33:56","Exp",7302,22,"female","R",3,3,8,"immoralSelf","immoralOther","mismatch","n","m",0,0.623
"02-May-2018_14:33:59","Exp",7302,22,"female","R",3,3,9,"immoralOther","immoralSelf","mismatch","n","n",1,0.8054
"02-May-2018_14:34:01","Exp",7302,22,"female","R",3,3,10,"immoralSelf","immoralOther","mismatch","n","n",1,0.7272
"02-May-2018_14:34:03","Exp",7302,22,"female","R",3,3,11,"immoralSelf","immoralSelf","match","m","m",1,0.6633
"02-May-2018_14:34:05","Exp",7302,22,"female","R",3,3,12,"moralOther","moralOther","match","m","m",1,0.6774
"02-May-2018_14:34:07","Exp",7302,22,"female","R",3,3,13,"moralSelf","moralSelf","match","m","m",1,0.7595
"02-May-2018_14:34:09","Exp",7302,22,"female","R",3,3,14,"moralOther","moralOther","match","m","m",1,0.6416
"02-May-2018_14:34:11","Exp",7302,22,"female","R",3,3,15,"moralSelf","immoralOther","mismatch","n","n",1,0.7878
"02-May-2018_14:34:13","Exp",7302,22,"female","R",3,3,16,"moralSelf","moralSelf","match","m","m",1,0.5839
"02-May-2018_14:34:15","Exp",7302,22,"female","R",3,3,17,"moralSelf","moralSelf","match","m","m",1,0.6141
"02-May-2018_14:34:17","Exp",7302,22,"female","R",3,3,18,"moralOther","moralOther","match","m","m",1,0.6781
"02-May-2018_14:34:19","Exp",7302,22,"female","R",3,3,19,"immoralSelf","immoralSelf","match","m","m",1,0.6402
"02-May-2018_14:34:21","Exp",7302,22,"female","R",3,3,20,"moralSelf","immoralOther","mismatch","n","n",1,0.6744
"02-May-2018_14:34:24","Exp",7302,22,"female","R",3,3,21,"immoralOther","immoralOther","match","m","m",1,0.8785
"02-May-2018_14:34:26","Exp",7302,22,"female","R",3,3,22,"moralOther","immoralSelf","mismatch","n","n",1,0.7526
"02-May-2018_14:34:28","Exp",7302,22,"female","R",3,3,23,"moralOther","immoralSelf","mismatch","n","n",1,0.8447
"02-May-2018_14:34:30","Exp",7302,22,"female","R",3,3,24,"moralSelf","immoralSelf","mismatch","n","m",0,0.6229
"02-May-2018_14:34:40","Exp",7302,22,"female","R",3,4,1,"immoralOther","immoralOther","match","m","n",0,0.7675
"02-May-2018_14:34:42","Exp",7302,22,"female","R",3,4,2,"moralOther","moralOther","match","m","m",1,0.5276
"02-May-2018_14:34:45","Exp",7302,22,"female","R",3,4,3,"immoralOther","immoralOther","match","m","m",1,0.8237
"02-May-2018_14:34:47","Exp",7302,22,"female","R",3,4,4,"immoralSelf","moralSelf","mismatch","n","n",1,0.99
"02-May-2018_14:34:49","Exp",7302,22,"female","R",3,4,5,"moralOther","moralOther","match","m","m",1,0.7619
"02-May-2018_14:34:51","Exp",7302,22,"female","R",3,4,6,"moralSelf","moralOther","mismatch","n","n",1,0.7082
"02-May-2018_14:34:53","Exp",7302,22,"female","R",3,4,7,"immoralOther","immoralOther","match","m","m",1,0.7522
"02-May-2018_14:34:56","Exp",7302,22,"female","R",3,4,8,"moralSelf","moralSelf","match","m","m",1,0.7803
"02-May-2018_14:34:58","Exp",7302,22,"female","R",3,4,9,"immoralSelf","immoralSelf","match","m","m",1,0.6424
"02-May-2018_14:35:00","Exp",7302,22,"female","R",3,4,10,"moralSelf","moralOther","mismatch","n","n",1,0.6765
"02-May-2018_14:35:02","Exp",7302,22,"female","R",3,4,11,"moralSelf","moralOther","mismatch","n","n",1,0.8247
"02-May-2018_14:35:04","Exp",7302,22,"female","R",3,4,12,"moralSelf","moralSelf","match","m","m",1,0.6549
"02-May-2018_14:35:06","Exp",7302,22,"female","R",3,4,13,"immoralSelf","immoralSelf","match","m","m",1,0.6629
"02-May-2018_14:35:08","Exp",7302,22,"female","R",3,4,14,"moralOther","moralSelf","mismatch","n","n",1,0.733
"02-May-2018_14:35:10","Exp",7302,22,"female","R",3,4,15,"immoralSelf","immoralOther","mismatch","n","n",1,0.7891
"02-May-2018_14:35:13","Exp",7302,22,"female","R",3,4,16,"immoralOther","moralSelf","mismatch","n",NA,-1,1.042
"02-May-2018_14:35:15","Exp",7302,22,"female","R",3,4,17,"immoralOther","immoralSelf","mismatch","n",NA,-1,1.042
"02-May-2018_14:35:17","Exp",7302,22,"female","R",3,4,18,"immoralSelf","immoralSelf","match","m","m",1,0.6935
"02-May-2018_14:35:19","Exp",7302,22,"female","R",3,4,19,"immoralOther","moralOther","mismatch","n","n",1,0.6377
"02-May-2018_14:35:21","Exp",7302,22,"female","R",3,4,20,"moralOther","moralSelf","mismatch","n","n",1,0.7518
"02-May-2018_14:35:23","Exp",7302,22,"female","R",3,4,21,"immoralSelf","moralSelf","mismatch","n","n",1,0.7239
"02-May-2018_14:35:25","Exp",7302,22,"female","R",3,4,22,"moralOther","immoralOther","mismatch","n","n",1,0.646
"02-May-2018_14:35:28","Exp",7302,22,"female","R",3,4,23,"moralSelf","moralSelf","match","m","m",1,0.7361
"02-May-2018_14:35:30","Exp",7302,22,"female","R",3,4,24,"moralOther","moralOther","match","m","m",1,0.6323
"02-May-2018_14:35:32","Exp",7302,22,"female","R",3,5,1,"moralOther","immoralSelf","mismatch","n","n",1,0.7163
"02-May-2018_14:35:34","Exp",7302,22,"female","R",3,5,2,"moralSelf","moralOther","mismatch","n","m",0,0.7205
"02-May-2018_14:35:36","Exp",7302,22,"female","R",3,5,3,"moralOther","moralOther","match","m","m",1,0.6986
"02-May-2018_14:35:38","Exp",7302,22,"female","R",3,5,4,"immoralOther","moralSelf","mismatch","n","n",1,0.6967
"02-May-2018_14:35:40","Exp",7302,22,"female","R",3,5,5,"immoralSelf","immoralOther","mismatch","n","n",1,0.7288
"02-May-2018_14:35:42","Exp",7302,22,"female","R",3,5,6,"moralSelf","moralSelf","match","m","m",1,0.601
"02-May-2018_14:35:44","Exp",7302,22,"female","R",3,5,7,"immoralOther","immoralOther","match","m","n",0,0.6431
"02-May-2018_14:35:46","Exp",7302,22,"female","R",3,5,8,"moralOther","immoralOther","mismatch","n","n",1,0.6292
"02-May-2018_14:35:48","Exp",7302,22,"female","R",3,5,9,"immoralSelf","immoralSelf","match","m","m",1,0.7373
"02-May-2018_14:35:50","Exp",7302,22,"female","R",3,5,10,"immoralSelf","moralOther","mismatch","n","n",1,0.6874
"02-May-2018_14:35:52","Exp",7302,22,"female","R",3,5,11,"moralOther","moralOther","match","m","m",1,0.6475
"02-May-2018_14:35:55","Exp",7302,22,"female","R",3,5,12,"moralSelf","moralSelf","match","m","m",1,0.7757
"02-May-2018_14:35:57","Exp",7302,22,"female","R",3,5,13,"moralSelf","moralSelf","match","m","m",1,0.6478
"02-May-2018_14:35:59","Exp",7302,22,"female","R",3,5,14,"immoralOther","immoralOther","match","m","m",1,0.6399
"02-May-2018_14:36:01","Exp",7302,22,"female","R",3,5,15,"immoralOther","immoralOther","match","m","m",1,0.5701
"02-May-2018_14:36:03","Exp",7302,22,"female","R",3,5,16,"immoralOther","moralSelf","mismatch","n","n",1,0.6822
"02-May-2018_14:36:05","Exp",7302,22,"female","R",3,5,17,"moralSelf","immoralSelf","mismatch","n","n",1,0.9402
"02-May-2018_14:36:07","Exp",7302,22,"female","R",3,5,18,"moralOther","moralOther","match","m","m",1,0.5384
"02-May-2018_14:36:09","Exp",7302,22,"female","R",3,5,19,"immoralOther","immoralSelf","mismatch","n","n",1,0.6165
"02-May-2018_14:36:11","Exp",7302,22,"female","R",3,5,20,"moralOther","moralSelf","mismatch","n","n",1,0.6806
"02-May-2018_14:36:13","Exp",7302,22,"female","R",3,5,21,"immoralSelf","immoralSelf","match","m","m",1,0.7307
"02-May-2018_14:36:15","Exp",7302,22,"female","R",3,5,22,"moralSelf","immoralSelf","mismatch","n","n",1,0.7868
"02-May-2018_14:36:17","Exp",7302,22,"female","R",3,5,23,"immoralSelf","moralSelf","mismatch","n","n",1,0.785
"02-May-2018_14:36:19","Exp",7302,22,"female","R",3,5,24,"immoralSelf","immoralSelf","match","m","m",1,0.6551
"02-May-2018_14:26:54","Exp",7303,28,"male","R",1,1,1,"immoralSelf","immoralOther","mismatch","n","n",1,0.6804
"02-May-2018_14:26:56","Exp",7303,28,"male","R",1,1,2,"moralOther","moralSelf","mismatch","n","n",1,0.554
"02-May-2018_14:26:58","Exp",7303,28,"male","R",1,1,3,"immoralOther","moralOther","mismatch","n","n",1,0.6528
"02-May-2018_14:27:00","Exp",7303,28,"male","R",1,1,4,"moralSelf","immoralSelf","mismatch","n","n",1,0.6016
"02-May-2018_14:27:02","Exp",7303,28,"male","R",1,1,5,"immoralSelf","immoralSelf","match","m","n",0,0.6214
"02-May-2018_14:27:04","Exp",7303,28,"male","R",1,1,6,"immoralSelf","immoralSelf","match","m","n",0,0.7058
"02-May-2018_14:27:06","Exp",7303,28,"male","R",1,1,7,"moralOther","moralOther","match","m","m",1,0.6918
"02-May-2018_14:27:08","Exp",7303,28,"male","R",1,1,8,"moralSelf","moralSelf","match","m","m",1,0.6334
"02-May-2018_14:27:10","Exp",7303,28,"male","R",1,1,9,"moralOther","immoralSelf","mismatch","n","n",1,0.738
"02-May-2018_14:27:12","Exp",7303,28,"male","R",1,1,10,"immoralSelf","moralOther","mismatch","n","n",1,0.8765
"02-May-2018_14:27:14","Exp",7303,28,"male","R",1,1,11,"moralOther","moralSelf","mismatch","n","m",0,0.6097
"02-May-2018_14:27:17","Exp",7303,28,"male","R",1,1,12,"immoralOther","immoralOther","match","m","m",1,0.7058
"02-May-2018_14:27:19","Exp",7303,28,"male","R",1,1,13,"moralOther","moralOther","match","m","m",1,0.6758
"02-May-2018_14:27:21","Exp",7303,28,"male","R",1,1,14,"moralSelf","immoralSelf","mismatch","n","m",0,0.6251
"02-May-2018_14:27:23","Exp",7303,28,"male","R",1,1,15,"immoralOther","immoralOther","match","m","n",0,0.9173
"02-May-2018_14:27:25","Exp",7303,28,"male","R",1,1,16,"immoralSelf","moralSelf","mismatch","n","m",0,0.6835
"02-May-2018_14:27:27","Exp",7303,28,"male","R",1,1,17,"moralSelf","immoralSelf","mismatch","n","m",0,0.493
"02-May-2018_14:27:29","Exp",7303,28,"male","R",1,1,18,"moralSelf","moralSelf","match","m","m",1,0.5227
"02-May-2018_14:27:31","Exp",7303,28,"male","R",1,1,19,"immoralSelf","immoralSelf","match","m","n",0,0.7209
"02-May-2018_14:27:33","Exp",7303,28,"male","R",1,1,20,"moralOther","moralOther","match","m","m",1,0.6392
"02-May-2018_14:27:35","Exp",7303,28,"male","R",1,1,21,"immoralOther","moralOther","mismatch","n","n",1,0.6637
"02-May-2018_14:27:37","Exp",7303,28,"male","R",1,1,22,"moralSelf","moralSelf","match","m","m",1,0.6088
"02-May-2018_14:27:39","Exp",7303,28,"male","R",1,1,23,"immoralOther","immoralOther","match","m","n",0,0.5807
"02-May-2018_14:27:41","Exp",7303,28,"male","R",1,1,24,"immoralOther","moralOther","mismatch","n","n",1,0.736
"02-May-2018_14:27:43","Exp",7303,28,"male","R",1,2,1,"moralSelf","moralSelf","match","m","m",1,0.6104
"02-May-2018_14:27:45","Exp",7303,28,"male","R",1,2,2,"moralSelf","immoralSelf","mismatch","n","n",1,0.6665
"02-May-2018_14:27:47","Exp",7303,28,"male","R",1,2,3,"immoralOther","immoralOther","match","m","m",1,0.6515
"02-May-2018_14:27:49","Exp",7303,28,"male","R",1,2,4,"immoralOther","immoralSelf","mismatch","n","m",0,0.6243
"02-May-2018_14:27:51","Exp",7303,28,"male","R",1,2,5,"immoralSelf","immoralOther","mismatch","n","n",1,0.8286
"02-May-2018_14:27:53","Exp",7303,28,"male","R",1,2,6,"immoralOther","immoralOther","match","m","m",1,0.721
"02-May-2018_14:27:55","Exp",7303,28,"male","R",1,2,7,"moralSelf","moralSelf","match","m","m",1,0.6552
"02-May-2018_14:27:58","Exp",7303,28,"male","R",1,2,8,"moralOther","moralOther","match","m","n",0,0.644
"02-May-2018_14:28:00","Exp",7303,28,"male","R",1,2,9,"immoralSelf","immoralOther","mismatch","n","m",0,0.7965
"02-May-2018_14:28:02","Exp",7303,28,"male","R",1,2,10,"moralOther","moralOther","match","m","m",1,0.6921
"02-May-2018_14:28:04","Exp",7303,28,"male","R",1,2,11,"immoralSelf","moralSelf","mismatch","n","n",1,0.866
"02-May-2018_14:28:06","Exp",7303,28,"male","R",1,2,12,"moralSelf","immoralSelf","mismatch","n","m",0,0.707
"02-May-2018_14:28:08","Exp",7303,28,"male","R",1,2,13,"immoralSelf","immoralSelf","match","m","n",0,0.7329
"02-May-2018_14:28:10","Exp",7303,28,"male","R",1,2,14,"moralOther","immoralOther","mismatch","n","m",0,0.6153
"02-May-2018_14:28:12","Exp",7303,28,"male","R",1,2,15,"moralOther","immoralOther","mismatch","n","n",1,0.7513
"02-May-2018_14:28:15","Exp",7303,28,"male","R",1,2,16,"immoralSelf","immoralSelf","match","m","m",1,0.8663
"02-May-2018_14:28:17","Exp",7303,28,"male","R",1,2,17,"moralOther","immoralOther","mismatch","n","n",1,0.8193
"02-May-2018_14:28:19","Exp",7303,28,"male","R",1,2,18,"moralSelf","immoralOther","mismatch","n","n",1,0.9074
"02-May-2018_14:28:21","Exp",7303,28,"male","R",1,2,19,"moralSelf","moralSelf","match","m","m",1,0.6614
"02-May-2018_14:28:23","Exp",7303,28,"male","R",1,2,20,"immoralOther","moralOther","mismatch","n","m",0,0.9264
"02-May-2018_14:28:26","Exp",7303,28,"male","R",1,2,21,"immoralOther","immoralOther","match","m","m",1,0.6808
"02-May-2018_14:28:28","Exp",7303,28,"male","R",1,2,22,"immoralSelf","immoralSelf","match","m","m",1,0.7625
"02-May-2018_14:28:30","Exp",7303,28,"male","R",1,2,23,"immoralOther","moralOther","mismatch","n","n",1,0.8735
"02-May-2018_14:28:32","Exp",7303,28,"male","R",1,2,24,"moralOther","moralOther","match","m","m",1,0.5428
"02-May-2018_14:28:34","Exp",7303,28,"male","R",1,3,1,"immoralOther","immoralOther","match","m","n",0,0.6695
"02-May-2018_14:28:36","Exp",7303,28,"male","R",1,3,2,"moralOther","immoralOther","mismatch","n","n",1,0.6271
"02-May-2018_14:28:38","Exp",7303,28,"male","R",1,3,3,"moralSelf","moralOther","mismatch","n","n",1,0.791
"02-May-2018_14:28:40","Exp",7303,28,"male","R",1,3,4,"immoralSelf","moralSelf","mismatch","n","n",1,0.7107
"02-May-2018_14:28:42","Exp",7303,28,"male","R",1,3,5,"moralOther","moralOther","match","m","m",1,0.6565
"02-May-2018_14:28:44","Exp",7303,28,"male","R",1,3,6,"moralOther","moralOther","match","m","m",1,0.6177
"02-May-2018_14:28:47","Exp",7303,28,"male","R",1,3,7,"immoralOther","immoralSelf","mismatch","n","n",1,0.8417
"02-May-2018_14:28:49","Exp",7303,28,"male","R",1,3,8,"moralSelf","immoralOther","mismatch","n","n",1,0.6582
"02-May-2018_14:28:51","Exp",7303,28,"male","R",1,3,9,"immoralOther","immoralOther","match","m","n",0,0.7074
"02-May-2018_14:28:53","Exp",7303,28,"male","R",1,3,10,"moralSelf","moralOther","mismatch","n","n",1,0.7733
"02-May-2018_14:28:55","Exp",7303,28,"male","R",1,3,11,"immoralSelf","immoralSelf","match","m","m",1,0.7804
"02-May-2018_14:28:57","Exp",7303,28,"male","R",1,3,12,"moralSelf","moralSelf","match","m","m",1,0.7198
"02-May-2018_14:28:59","Exp",7303,28,"male","R",1,3,13,"immoralSelf","immoralSelf","match","m","n",0,0.846
"02-May-2018_14:29:01","Exp",7303,28,"male","R",1,3,14,"immoralOther","immoralSelf","mismatch","n","n",1,0.6828
"02-May-2018_14:29:04","Exp",7303,28,"male","R",1,3,15,"immoralSelf","moralSelf","mismatch","n","m",0,0.8843
"02-May-2018_14:29:06","Exp",7303,28,"male","R",1,3,16,"moralOther","moralOther","match","m","m",1,0.6699
"02-May-2018_14:29:08","Exp",7303,28,"male","R",1,3,17,"immoralSelf","immoralSelf","match","m","m",1,0.6911
"02-May-2018_14:29:10","Exp",7303,28,"male","R",1,3,18,"moralOther","moralSelf","mismatch","n","m",0,0.6007
"02-May-2018_14:29:12","Exp",7303,28,"male","R",1,3,19,"immoralSelf","moralSelf","mismatch","n","n",1,0.8526
"02-May-2018_14:29:14","Exp",7303,28,"male","R",1,3,20,"immoralOther","immoralSelf","mismatch","n","n",1,0.7775
"02-May-2018_14:29:16","Exp",7303,28,"male","R",1,3,21,"moralOther","moralSelf","mismatch","n","n",1,0.8048
"02-May-2018_14:29:18","Exp",7303,28,"male","R",1,3,22,"moralSelf","moralSelf","match","m","m",1,0.7448
"02-May-2018_14:29:21","Exp",7303,28,"male","R",1,3,23,"immoralOther","immoralOther","match","m","m",1,0.8394
"02-May-2018_14:29:23","Exp",7303,28,"male","R",1,3,24,"moralSelf","moralSelf","match","m","m",1,0.5999
"02-May-2018_14:29:36","Exp",7303,28,"male","R",1,4,1,"immoralSelf","immoralSelf","match","m","m",1,0.6555
"02-May-2018_14:29:38","Exp",7303,28,"male","R",1,4,2,"moralOther","immoralOther","mismatch","n","n",1,0.7643
"02-May-2018_14:29:40","Exp",7303,28,"male","R",1,4,3,"moralSelf","moralOther","mismatch","n","m",0,0.5875
"02-May-2018_14:29:42","Exp",7303,28,"male","R",1,4,4,"moralSelf","moralSelf","match","m","m",1,0.715
"02-May-2018_14:29:44","Exp",7303,28,"male","R",1,4,5,"immoralOther","immoralOther","match","m","m",1,0.9692
"02-May-2018_14:29:46","Exp",7303,28,"male","R",1,4,6,"immoralOther","immoralOther","match","m","m",1,0.5684
"02-May-2018_14:29:48","Exp",7303,28,"male","R",1,4,7,"immoralSelf","moralOther","mismatch","n","n",1,0.6474
"02-May-2018_14:29:50","Exp",7303,28,"male","R",1,4,8,"moralOther","moralOther","match","m","m",1,0.6923
"02-May-2018_14:29:52","Exp",7303,28,"male","R",1,4,9,"moralOther","moralOther","match","m","m",1,0.5941
"02-May-2018_14:29:54","Exp",7303,28,"male","R",1,4,10,"moralSelf","moralSelf","match","m","m",1,0.6497
"02-May-2018_14:29:56","Exp",7303,28,"male","R",1,4,11,"immoralSelf","moralSelf","mismatch","n","n",1,0.8865
"02-May-2018_14:29:58","Exp",7303,28,"male","R",1,4,12,"moralSelf","moralOther","mismatch","n","m",0,0.624
"02-May-2018_14:30:00","Exp",7303,28,"male","R",1,4,13,"moralOther","moralSelf","mismatch","n","m",0,0.6123
"02-May-2018_14:30:03","Exp",7303,28,"male","R",1,4,14,"immoralOther","moralSelf","mismatch","n","n",1,0.7805
"02-May-2018_14:30:05","Exp",7303,28,"male","R",1,4,15,"immoralOther","moralOther","mismatch","n","n",1,0.8557
"02-May-2018_14:30:07","Exp",7303,28,"male","R",1,4,16,"immoralSelf","moralOther","mismatch","n","m",0,0.8046
"02-May-2018_14:30:09","Exp",7303,28,"male","R",1,4,17,"moralSelf","moralOther","mismatch","n","m",0,0.6403
"02-May-2018_14:30:11","Exp",7303,28,"male","R",1,4,18,"moralSelf","moralSelf","match","m","m",1,0.633
"02-May-2018_14:30:13","Exp",7303,28,"male","R",1,4,19,"immoralSelf","immoralSelf","match","m","n",0,0.6495
"02-May-2018_14:30:15","Exp",7303,28,"male","R",1,4,20,"immoralOther","moralOther","mismatch","n","n",1,0.9023
"02-May-2018_14:30:18","Exp",7303,28,"male","R",1,4,21,"moralOther","moralOther","match","m","m",1,1.028
"02-May-2018_14:30:20","Exp",7303,28,"male","R",1,4,22,"moralOther","immoralSelf","mismatch","n","m",0,0.7924
"02-May-2018_14:30:22","Exp",7303,28,"male","R",1,4,23,"immoralOther","immoralOther","match","m","n",0,0.656
"02-May-2018_14:30:24","Exp",7303,28,"male","R",1,4,24,"immoralSelf","immoralSelf","match","m","n",0,0.8331
"02-May-2018_14:30:26","Exp",7303,28,"male","R",1,5,1,"moralOther","immoralSelf","mismatch","n","n",1,0.7857
"02-May-2018_14:30:29","Exp",7303,28,"male","R",1,5,2,"moralOther","moralOther","match","m","m",1,0.8491
"02-May-2018_14:30:31","Exp",7303,28,"male","R",1,5,3,"immoralOther","immoralOther","match","m","m",1,0.798
"02-May-2018_14:30:33","Exp",7303,28,"male","R",1,5,4,"moralSelf","moralSelf","match","m","m",1,0.642
"02-May-2018_14:30:35","Exp",7303,28,"male","R",1,5,5,"immoralSelf","immoralSelf","match","m","m",1,0.7224
"02-May-2018_14:30:37","Exp",7303,28,"male","R",1,5,6,"moralOther","moralOther","match","m","m",1,0.5847
"02-May-2018_14:30:39","Exp",7303,28,"male","R",1,5,7,"immoralOther","immoralSelf","mismatch","n","m",0,0.788
"02-May-2018_14:30:41","Exp",7303,28,"male","R",1,5,8,"immoralOther","immoralOther","match","m","m",1,0.8436
"02-May-2018_14:30:43","Exp",7303,28,"male","R",1,5,9,"immoralOther","moralSelf","mismatch","n","n",1,0.7082
"02-May-2018_14:30:45","Exp",7303,28,"male","R",1,5,10,"moralSelf","immoralSelf","mismatch","n","m",0,0.5741
"02-May-2018_14:30:48","Exp",7303,28,"male","R",1,5,11,"moralOther","immoralOther","mismatch","n","n",1,0.7936
"02-May-2018_14:30:50","Exp",7303,28,"male","R",1,5,12,"immoralOther","moralSelf","mismatch","n","n",1,0.8092
"02-May-2018_14:30:52","Exp",7303,28,"male","R",1,5,13,"immoralSelf","moralOther","mismatch","n","n",1,0.6653
"02-May-2018_14:30:54","Exp",7303,28,"male","R",1,5,14,"moralSelf","immoralOther","mismatch","n","n",1,0.7783
"02-May-2018_14:30:56","Exp",7303,28,"male","R",1,5,15,"immoralSelf","immoralSelf","match","m","m",1,0.7577
"02-May-2018_14:30:58","Exp",7303,28,"male","R",1,5,16,"immoralSelf","immoralSelf","match","m","m",1,0.6566
"02-May-2018_14:31:00","Exp",7303,28,"male","R",1,5,17,"immoralSelf","moralOther","mismatch","n","n",1,0.7457
"02-May-2018_14:31:03","Exp",7303,28,"male","R",1,5,18,"moralOther","immoralOther","mismatch","n","n",1,0.8483
"02-May-2018_14:31:05","Exp",7303,28,"male","R",1,5,19,"immoralSelf","immoralOther","mismatch","n","n",1,0.789
"02-May-2018_14:31:07","Exp",7303,28,"male","R",1,5,20,"immoralOther","immoralOther","match","m","m",1,0.6207
"02-May-2018_14:31:09","Exp",7303,28,"male","R",1,5,21,"moralSelf","moralSelf","match","m","m",1,0.577
"02-May-2018_14:31:11","Exp",7303,28,"male","R",1,5,22,"moralSelf","moralSelf","match","m","m",1,0.5245
"02-May-2018_14:31:13","Exp",7303,28,"male","R",1,5,23,"moralOther","moralOther","match","m","m",1,0.6346
"02-May-2018_14:31:15","Exp",7303,28,"male","R",1,5,24,"moralSelf","moralOther","mismatch","n","m",0,0.7471
"02-May-2018_14:31:20","Exp",7303,28,"male","R",2,1,1,"moralOther","moralOther","match","m",NA,-1,1.0411
"02-May-2018_14:31:22","Exp",7303,28,"male","R",2,1,2,"moralOther","immoralSelf","mismatch","n","n",1,0.5757
"02-May-2018_14:31:24","Exp",7303,28,"male","R",2,1,3,"immoralSelf","moralOther","mismatch","n","n",1,0.6671
"02-May-2018_14:31:26","Exp",7303,28,"male","R",2,1,4,"immoralOther","moralOther","mismatch","n","n",1,0.8121
"02-May-2018_14:31:29","Exp",7303,28,"male","R",2,1,5,"immoralSelf","moralOther","mismatch","n","n",1,0.7242
"02-May-2018_14:31:31","Exp",7303,28,"male","R",2,1,6,"moralOther","immoralSelf","mismatch","n","m",0,0.5783
"02-May-2018_14:31:33","Exp",7303,28,"male","R",2,1,7,"immoralOther","moralSelf","mismatch","n","n",1,0.6457
"02-May-2018_14:31:35","Exp",7303,28,"male","R",2,1,8,"immoralSelf","moralSelf","mismatch","n","n",1,0.6105
"02-May-2018_14:31:37","Exp",7303,28,"male","R",2,1,9,"moralSelf","moralSelf","match","m","n",0,0.7146
"02-May-2018_14:31:39","Exp",7303,28,"male","R",2,1,10,"moralOther","moralOther","match","m","m",1,0.6168
"02-May-2018_14:31:41","Exp",7303,28,"male","R",2,1,11,"immoralSelf","immoralSelf","match","m","m",1,0.7129
"02-May-2018_14:31:43","Exp",7303,28,"male","R",2,1,12,"moralSelf","moralOther","mismatch","n","m",0,0.5469
"02-May-2018_14:31:45","Exp",7303,28,"male","R",2,1,13,"immoralOther","immoralOther","match","m","n",0,0.6416
"02-May-2018_14:31:47","Exp",7303,28,"male","R",2,1,14,"immoralSelf","immoralSelf","match","m","m",1,0.9061
"02-May-2018_14:31:49","Exp",7303,28,"male","R",2,1,15,"moralOther","moralSelf","mismatch","n","n",1,0.8921
"02-May-2018_14:31:51","Exp",7303,28,"male","R",2,1,16,"immoralSelf","immoralSelf","match","m","m",1,0.7778
"02-May-2018_14:31:54","Exp",7303,28,"male","R",2,1,17,"moralOther","moralOther","match","m","m",1,0.7573
"02-May-2018_14:31:56","Exp",7303,28,"male","R",2,1,18,"immoralOther","immoralOther","match","m","m",1,0.6561
"02-May-2018_14:31:58","Exp",7303,28,"male","R",2,1,19,"moralSelf","moralSelf","match","m","m",1,0.665
"02-May-2018_14:32:00","Exp",7303,28,"male","R",2,1,20,"moralSelf","immoralSelf","mismatch","n","n",1,0.8103
"02-May-2018_14:32:02","Exp",7303,28,"male","R",2,1,21,"immoralOther","immoralSelf","mismatch","n","n",1,0.7063
"02-May-2018_14:32:04","Exp",7303,28,"male","R",2,1,22,"immoralOther","immoralOther","match","m","m",1,0.5642
"02-May-2018_14:32:06","Exp",7303,28,"male","R",2,1,23,"moralSelf","moralOther","mismatch","n","n",1,0.9875
"02-May-2018_14:32:09","Exp",7303,28,"male","R",2,1,24,"moralSelf","moralSelf","match","m","m",1,0.8111
"02-May-2018_14:32:11","Exp",7303,28,"male","R",2,2,1,"immoralOther","moralSelf","mismatch","n","n",1,0.7471
"02-May-2018_14:32:13","Exp",7303,28,"male","R",2,2,2,"moralSelf","immoralOther","mismatch","n","n",1,0.7778
"02-May-2018_14:32:15","Exp",7303,28,"male","R",2,2,3,"moralOther","immoralOther","mismatch","n","n",1,0.7651
"02-May-2018_14:32:17","Exp",7303,28,"male","R",2,2,4,"moralSelf","moralSelf","match","m","m",1,0.6124
"02-May-2018_14:32:19","Exp",7303,28,"male","R",2,2,5,"immoralSelf","immoralSelf","match","m","n",0,0.6443
"02-May-2018_14:32:21","Exp",7303,28,"male","R",2,2,6,"immoralOther","immoralOther","match","m","m",1,0.7932
"02-May-2018_14:32:23","Exp",7303,28,"male","R",2,2,7,"moralSelf","moralSelf","match","m","m",1,0.7048
"02-May-2018_14:32:25","Exp",7303,28,"male","R",2,2,8,"moralOther","moralOther","match","m","m",1,0.5629
"02-May-2018_14:32:27","Exp",7303,28,"male","R",2,2,9,"moralOther","moralOther","match","m","m",1,0.5699
"02-May-2018_14:32:29","Exp",7303,28,"male","R",2,2,10,"moralOther","moralOther","match","m","m",1,0.633
"02-May-2018_14:32:31","Exp",7303,28,"male","R",2,2,11,"immoralSelf","immoralOther","mismatch","n","n",1,0.6096
"02-May-2018_14:32:33","Exp",7303,28,"male","R",2,2,12,"moralOther","moralSelf","mismatch","n","m",0,0.5537
"02-May-2018_14:32:35","Exp",7303,28,"male","R",2,2,13,"immoralOther","immoralOther","match","m","m",1,0.6845
"02-May-2018_14:32:37","Exp",7303,28,"male","R",2,2,14,"immoralOther","moralOther","mismatch","n","n",1,0.662
"02-May-2018_14:32:39","Exp",7303,28,"male","R",2,2,15,"moralSelf","moralOther","mismatch","n","n",1,0.7191
"02-May-2018_14:32:41","Exp",7303,28,"male","R",2,2,16,"immoralSelf","moralSelf","mismatch","n","m",0,0.6853
"02-May-2018_14:32:43","Exp",7303,28,"male","R",2,2,17,"immoralSelf","immoralSelf","match","m","m",1,0.6788
"02-May-2018_14:32:46","Exp",7303,28,"male","R",2,2,18,"moralSelf","immoralOther","mismatch","n","n",1,0.6521
"02-May-2018_14:32:48","Exp",7303,28,"male","R",2,2,19,"immoralSelf","immoralSelf","match","m","n",0,0.6088
"02-May-2018_14:32:50","Exp",7303,28,"male","R",2,2,20,"moralSelf","moralSelf","match","m","m",1,0.6489
"02-May-2018_14:32:52","Exp",7303,28,"male","R",2,2,21,"immoralSelf","moralOther","mismatch","n","n",1,0.7097
"02-May-2018_14:32:54","Exp",7303,28,"male","R",2,2,22,"moralOther","immoralSelf","mismatch","n","n",1,0.7037
"02-May-2018_14:32:56","Exp",7303,28,"male","R",2,2,23,"immoralOther","immoralSelf","mismatch","n","n",1,0.6577
"02-May-2018_14:32:58","Exp",7303,28,"male","R",2,2,24,"immoralOther","immoralOther","match","m","m",1,0.6107
"02-May-2018_14:33:00","Exp",7303,28,"male","R",2,3,1,"immoralOther","immoralOther","match","m","m",1,0.6588
"02-May-2018_14:33:02","Exp",7303,28,"male","R",2,3,2,"moralOther","immoralOther","mismatch","n","n",1,0.7558
"02-May-2018_14:33:04","Exp",7303,28,"male","R",2,3,3,"moralSelf","moralSelf","match","m","m",1,0.5107
"02-May-2018_14:33:06","Exp",7303,28,"male","R",2,3,4,"immoralOther","immoralOther","match","m","n",0,0.6167
"02-May-2018_14:33:08","Exp",7303,28,"male","R",2,3,5,"immoralSelf","immoralOther","mismatch","n","n",1,0.8488
"02-May-2018_14:33:10","Exp",7303,28,"male","R",2,3,6,"moralSelf","immoralSelf","mismatch","n","m",0,0.6456
"02-May-2018_14:33:12","Exp",7303,28,"male","R",2,3,7,"immoralOther","moralOther","mismatch","n","n",1,0.8187
"02-May-2018_14:33:15","Exp",7303,28,"male","R",2,3,8,"immoralSelf","immoralSelf","match","m","m",1,0.9704
"02-May-2018_14:33:17","Exp",7303,28,"male","R",2,3,9,"immoralSelf","immoralSelf","match","m","m",1,0.5936
"02-May-2018_14:33:19","Exp",7303,28,"male","R",2,3,10,"moralSelf","immoralOther","mismatch","n","n",1,0.7771
"02-May-2018_14:33:21","Exp",7303,28,"male","R",2,3,11,"immoralOther","moralSelf","mismatch","n","m",0,0.7085
"02-May-2018_14:33:23","Exp",7303,28,"male","R",2,3,12,"moralOther","moralSelf","mismatch","n","m",0,0.7185
"02-May-2018_14:33:25","Exp",7303,28,"male","R",2,3,13,"immoralSelf","immoralOther","mismatch","n","n",1,0.7648
"02-May-2018_14:33:27","Exp",7303,28,"male","R",2,3,14,"immoralOther","immoralOther","match","m","m",1,0.7319
"02-May-2018_14:33:29","Exp",7303,28,"male","R",2,3,15,"moralOther","immoralSelf","mismatch","n","n",1,0.7344
"02-May-2018_14:33:32","Exp",7303,28,"male","R",2,3,16,"moralSelf","moralOther","mismatch","n","n",1,0.7528
"02-May-2018_14:33:34","Exp",7303,28,"male","R",2,3,17,"moralSelf","moralSelf","match","m","m",1,0.5397
"02-May-2018_14:33:36","Exp",7303,28,"male","R",2,3,18,"immoralOther","immoralSelf","mismatch","n","n",1,0.6983
"02-May-2018_14:33:38","Exp",7303,28,"male","R",2,3,19,"immoralSelf","immoralOther","mismatch","n","m",0,1.016
"02-May-2018_14:33:40","Exp",7303,28,"male","R",2,3,20,"moralSelf","moralSelf","match","m","m",1,0.8002
"02-May-2018_14:33:42","Exp",7303,28,"male","R",2,3,21,"moralOther","moralOther","match","m","m",1,0.7641
"02-May-2018_14:33:44","Exp",7303,28,"male","R",2,3,22,"immoralSelf","immoralSelf","match","m","m",1,0.7312
"02-May-2018_14:33:47","Exp",7303,28,"male","R",2,3,23,"moralOther","moralOther","match","m","m",1,0.6936
"02-May-2018_14:33:49","Exp",7303,28,"male","R",2,3,24,"moralOther","moralOther","match","m","m",1,0.6514
"02-May-2018_14:34:59","Exp",7303,28,"male","R",2,4,1,"moralSelf","moralSelf","match","m","m",1,0.5113
"02-May-2018_14:35:01","Exp",7303,28,"male","R",2,4,2,"immoralSelf","immoralSelf","match","m","n",0,0.5612
"02-May-2018_14:35:03","Exp",7303,28,"male","R",2,4,3,"moralOther","moralOther","match","m","m",1,0.6201
"02-May-2018_14:35:05","Exp",7303,28,"male","R",2,4,4,"immoralOther","immoralOther","match","m","m",1,0.6281
"02-May-2018_14:35:08","Exp",7303,28,"male","R",2,4,5,"moralOther","immoralOther","mismatch","n","n",1,0.7205
"02-May-2018_14:35:09","Exp",7303,28,"male","R",2,4,6,"moralSelf","immoralSelf","mismatch","n","m",0,0.5828
"02-May-2018_14:35:12","Exp",7303,28,"male","R",2,4,7,"immoralOther","immoralOther","match","m","m",1,0.674
"02-May-2018_14:35:14","Exp",7303,28,"male","R",2,4,8,"moralSelf","immoralOther","mismatch","n","n",1,0.8475
"02-May-2018_14:35:16","Exp",7303,28,"male","R",2,4,9,"immoralOther","moralSelf","mismatch","n","n",1,0.7161
"02-May-2018_14:35:18","Exp",7303,28,"male","R",2,4,10,"moralSelf","immoralOther","mismatch","n","n",1,0.6583
"02-May-2018_14:35:20","Exp",7303,28,"male","R",2,4,11,"immoralSelf","moralSelf","mismatch","n","n",1,0.8194
"02-May-2018_14:35:22","Exp",7303,28,"male","R",2,4,12,"moralOther","immoralOther","mismatch","n","n",1,0.6354
"02-May-2018_14:35:24","Exp",7303,28,"male","R",2,4,13,"immoralSelf","immoralSelf","match","m","m",1,0.7639
"02-May-2018_14:35:26","Exp",7303,28,"male","R",2,4,14,"immoralOther","moralOther","mismatch","n","n",1,0.7231
"02-May-2018_14:35:28","Exp",7303,28,"male","R",2,4,15,"moralOther","moralOther","match","m","m",1,0.6494
"02-May-2018_14:35:31","Exp",7303,28,"male","R",2,4,16,"moralSelf","moralSelf","match","m","n",0,0.8062
"02-May-2018_14:35:33","Exp",7303,28,"male","R",2,4,17,"moralOther","moralOther","match","m","n",0,0.7541
"02-May-2018_14:35:35","Exp",7303,28,"male","R",2,4,18,"immoralOther","moralSelf","mismatch","n","n",1,0.7889
"02-May-2018_14:35:37","Exp",7303,28,"male","R",2,4,19,"immoralSelf","immoralOther","mismatch","n","m",0,0.8205
"02-May-2018_14:35:39","Exp",7303,28,"male","R",2,4,20,"immoralOther","immoralOther","match","m","m",1,0.7049
"02-May-2018_14:35:41","Exp",7303,28,"male","R",2,4,21,"immoralSelf","immoralSelf","match","m","m",1,0.4588
"02-May-2018_14:35:43","Exp",7303,28,"male","R",2,4,22,"moralSelf","moralSelf","match","m","m",1,0.692
"02-May-2018_14:35:45","Exp",7303,28,"male","R",2,4,23,"immoralSelf","moralOther","mismatch","n","n",1,0.7739
"02-May-2018_14:35:48","Exp",7303,28,"male","R",2,4,24,"moralOther","immoralOther","mismatch","n","m",0,0.7772
"02-May-2018_14:35:49","Exp",7303,28,"male","R",2,5,1,"moralOther","moralOther","match","m","m",1,0.5647
"02-May-2018_14:35:52","Exp",7303,28,"male","R",2,5,2,"moralSelf","immoralSelf","mismatch","n","m",0,0.7398
"02-May-2018_14:35:54","Exp",7303,28,"male","R",2,5,3,"moralSelf","immoralOther","mismatch","n","n",1,0.8345
"02-May-2018_14:35:56","Exp",7303,28,"male","R",2,5,4,"moralOther","moralOther","match","m","m",1,0.739
"02-May-2018_14:35:58","Exp",7303,28,"male","R",2,5,5,"immoralOther","moralOther","mismatch","n","n",1,0.7456
"02-May-2018_14:36:00","Exp",7303,28,"male","R",2,5,6,"immoralOther","immoralOther","match","m","m",1,0.6803
"02-May-2018_14:36:02","Exp",7303,28,"male","R",2,5,7,"moralOther","immoralSelf","mismatch","n","m",0,0.8579
"02-May-2018_14:36:04","Exp",7303,28,"male","R",2,5,8,"moralSelf","moralSelf","match","m","m",1,0.5309
"02-May-2018_14:36:07","Exp",7303,28,"male","R",2,5,9,"immoralSelf","moralSelf","mismatch","n","m",0,0.9173
"02-May-2018_14:36:09","Exp",7303,28,"male","R",2,5,10,"immoralSelf","immoralOther","mismatch","n","n",1,0.8196
"02-May-2018_14:36:11","Exp",7303,28,"male","R",2,5,11,"immoralSelf","moralOther","mismatch","n","n",1,0.6916
"02-May-2018_14:36:13","Exp",7303,28,"male","R",2,5,12,"immoralSelf","immoralSelf","match","m","m",1,0.6814
"02-May-2018_14:36:15","Exp",7303,28,"male","R",2,5,13,"immoralOther","moralSelf","mismatch","n","n",1,0.7228
"02-May-2018_14:36:17","Exp",7303,28,"male","R",2,5,14,"immoralOther","immoralOther","match","m","m",1,0.6331
"02-May-2018_14:36:19","Exp",7303,28,"male","R",2,5,15,"immoralOther","moralSelf","mismatch","n","n",1,0.8096
"02-May-2018_14:36:21","Exp",7303,28,"male","R",2,5,16,"moralSelf","moralOther","mismatch","n","n",1,0.7298
"02-May-2018_14:36:23","Exp",7303,28,"male","R",2,5,17,"moralOther","immoralSelf","mismatch","n","n",1,0.5882
"02-May-2018_14:36:25","Exp",7303,28,"male","R",2,5,18,"moralOther","moralOther","match","m","m",1,0.5957
"02-May-2018_14:36:28","Exp",7303,28,"male","R",2,5,19,"immoralSelf","immoralSelf","match","m","m",1,0.7393
"02-May-2018_14:36:30","Exp",7303,28,"male","R",2,5,20,"moralSelf","moralSelf","match","m","m",1,0.6261
"02-May-2018_14:36:32","Exp",7303,28,"male","R",2,5,21,"moralSelf","moralSelf","match","m","m",1,0.7024
"02-May-2018_14:36:34","Exp",7303,28,"male","R",2,5,22,"immoralSelf","immoralSelf","match","m","m",1,0.708
"02-May-2018_14:36:36","Exp",7303,28,"male","R",2,5,23,"moralOther","immoralOther","mismatch","n","m",0,0.6382
"02-May-2018_14:36:38","Exp",7303,28,"male","R",2,5,24,"immoralOther","immoralOther","match","m","m",1,0.8227
"02-May-2018_14:36:43","Exp",7303,28,"male","R",3,1,1,"moralOther","moralOther","match","m","m",1,0.9998
"02-May-2018_14:36:45","Exp",7303,28,"male","R",3,1,2,"immoralOther","immoralOther","match","m","m",1,0.6756
"02-May-2018_14:36:48","Exp",7303,28,"male","R",3,1,3,"immoralOther","immoralOther","match","m","n",0,0.7929
"02-May-2018_14:36:50","Exp",7303,28,"male","R",3,1,4,"moralSelf","moralOther","mismatch","n","m",0,0.8287
"02-May-2018_14:36:52","Exp",7303,28,"male","R",3,1,5,"immoralSelf","immoralSelf","match","m","m",1,0.9211
"02-May-2018_14:36:55","Exp",7303,28,"male","R",3,1,6,"immoralSelf","moralOther","mismatch","n","n",1,1.0073
"02-May-2018_14:36:57","Exp",7303,28,"male","R",3,1,7,"immoralOther","moralOther","mismatch","n","m",0,0.6672
"02-May-2018_14:36:59","Exp",7303,28,"male","R",3,1,8,"immoralSelf","immoralSelf","match","m","m",1,0.8202
"02-May-2018_14:37:01","Exp",7303,28,"male","R",3,1,9,"immoralOther","immoralSelf","mismatch","n","n",1,0.6282
"02-May-2018_14:37:03","Exp",7303,28,"male","R",3,1,10,"moralOther","moralSelf","mismatch","n","m",0,0.6967
"02-May-2018_14:37:05","Exp",7303,28,"male","R",3,1,11,"immoralOther","immoralOther","match","m","m",1,0.7743
"02-May-2018_14:37:07","Exp",7303,28,"male","R",3,1,12,"moralSelf","immoralOther","mismatch","n","n",1,0.9296
"02-May-2018_14:37:09","Exp",7303,28,"male","R",3,1,13,"moralOther","moralSelf","mismatch","n","n",1,0.7241
"02-May-2018_14:37:12","Exp",7303,28,"male","R",3,1,14,"moralSelf","moralOther","mismatch","n","n",1,0.8183
"02-May-2018_14:37:14","Exp",7303,28,"male","R",3,1,15,"moralSelf","moralSelf","match","m","m",1,0.5304
"02-May-2018_14:37:15","Exp",7303,28,"male","R",3,1,16,"moralSelf","moralSelf","match","m","m",1,0.4689
"02-May-2018_14:37:17","Exp",7303,28,"male","R",3,1,17,"moralOther","moralOther","match","m","m",1,0.6342
"02-May-2018_14:37:20","Exp",7303,28,"male","R",3,1,18,"moralSelf","moralSelf","match","m","m",1,0.8027
"02-May-2018_14:37:22","Exp",7303,28,"male","R",3,1,19,"immoralOther","immoralSelf","mismatch","n","n",1,0.9585
"02-May-2018_14:37:24","Exp",7303,28,"male","R",3,1,20,"immoralSelf","moralOther","mismatch","n","m",0,0.7695
"02-May-2018_14:37:26","Exp",7303,28,"male","R",3,1,21,"immoralSelf","immoralSelf","match","m","n",0,0.7286
"02-May-2018_14:37:28","Exp",7303,28,"male","R",3,1,22,"immoralSelf","moralOther","mismatch","n","n",1,0.7711
"02-May-2018_14:37:30","Exp",7303,28,"male","R",3,1,23,"moralOther","moralSelf","mismatch","n","m",0,0.6742
"02-May-2018_14:37:33","Exp",7303,28,"male","R",3,1,24,"moralOther","moralOther","match","m","m",1,1.0235
"02-May-2018_14:37:35","Exp",7303,28,"male","R",3,2,1,"moralOther","immoralOther","mismatch","n","n",1,0.6919
"02-May-2018_14:37:37","Exp",7303,28,"male","R",3,2,2,"moralSelf","moralSelf","match","m","m",1,0.5935
"02-May-2018_14:37:39","Exp",7303,28,"male","R",3,2,3,"immoralOther","immoralSelf","mismatch","n","n",1,0.8091
"02-May-2018_14:37:41","Exp",7303,28,"male","R",3,2,4,"immoralOther","immoralOther","match","m","m",1,0.7532
"02-May-2018_14:37:43","Exp",7303,28,"male","R",3,2,5,"moralOther","moralOther","match","m","m",1,0.7723
"02-May-2018_14:37:45","Exp",7303,28,"male","R",3,2,6,"moralSelf","moralSelf","match","m","m",1,0.6672
"02-May-2018_14:37:47","Exp",7303,28,"male","R",3,2,7,"immoralSelf","immoralSelf","match","m","n",0,0.6363
"02-May-2018_14:37:49","Exp",7303,28,"male","R",3,2,8,"moralOther","moralOther","match","m","m",1,0.6049
"02-May-2018_14:37:51","Exp",7303,28,"male","R",3,2,9,"moralOther","immoralOther","mismatch","n","n",1,0.5448
"02-May-2018_14:37:54","Exp",7303,28,"male","R",3,2,10,"immoralSelf","immoralSelf","match","m","m",1,0.7033
"02-May-2018_14:37:56","Exp",7303,28,"male","R",3,2,11,"moralOther","immoralSelf","mismatch","n","n",1,0.6894
"02-May-2018_14:37:58","Exp",7303,28,"male","R",3,2,12,"immoralSelf","immoralSelf","match","m","m",1,0.7068
"02-May-2018_14:38:00","Exp",7303,28,"male","R",3,2,13,"moralSelf","immoralOther","mismatch","n","m",0,0.5408
"02-May-2018_14:38:02","Exp",7303,28,"male","R",3,2,14,"immoralSelf","immoralOther","mismatch","n","n",1,0.6675
"02-May-2018_14:38:04","Exp",7303,28,"male","R",3,2,15,"moralSelf","moralOther","mismatch","n","n",1,0.7485
"02-May-2018_14:38:06","Exp",7303,28,"male","R",3,2,16,"moralSelf","moralOther","mismatch","n","n",1,0.8351
"02-May-2018_14:38:08","Exp",7303,28,"male","R",3,2,17,"immoralSelf","immoralOther","mismatch","n","n",1,0.8756
"02-May-2018_14:38:10","Exp",7303,28,"male","R",3,2,18,"moralOther","moralOther","match","m","n",0,0.721
"02-May-2018_14:38:13","Exp",7303,28,"male","R",3,2,19,"immoralOther","immoralSelf","mismatch","n","n",1,0.8713
"02-May-2018_14:38:15","Exp",7303,28,"male","R",3,2,20,"immoralOther","immoralOther","match","m","m",1,0.9885
"02-May-2018_14:38:17","Exp",7303,28,"male","R",3,2,21,"immoralOther","moralSelf","mismatch","n","n",1,0.7241
"02-May-2018_14:38:19","Exp",7303,28,"male","R",3,2,22,"immoralOther","immoralOther","match","m","m",1,0.8104
"02-May-2018_14:38:21","Exp",7303,28,"male","R",3,2,23,"immoralSelf","moralOther","mismatch","n","n",1,0.7784
"02-May-2018_14:38:24","Exp",7303,28,"male","R",3,2,24,"moralSelf","moralSelf","match","m","m",1,0.6618
"02-May-2018_14:38:26","Exp",7303,28,"male","R",3,3,1,"immoralSelf","immoralOther","mismatch","n","n",1,0.7748
"02-May-2018_14:38:28","Exp",7303,28,"male","R",3,3,2,"immoralOther","immoralOther","match","m","m",1,0.6422
"02-May-2018_14:38:30","Exp",7303,28,"male","R",3,3,3,"immoralSelf","immoralSelf","match","m","m",1,0.6668
"02-May-2018_14:38:32","Exp",7303,28,"male","R",3,3,4,"immoralOther","immoralOther","match","m","n",0,0.7558
"02-May-2018_14:38:34","Exp",7303,28,"male","R",3,3,5,"moralOther","immoralOther","mismatch","n","m",0,0.6707
"02-May-2018_14:38:36","Exp",7303,28,"male","R",3,3,6,"immoralOther","immoralSelf","mismatch","n","n",1,0.82
"02-May-2018_14:38:38","Exp",7303,28,"male","R",3,3,7,"immoralOther","moralOther","mismatch","n","n",1,0.82
"02-May-2018_14:38:41","Exp",7303,28,"male","R",3,3,8,"immoralSelf","immoralOther","mismatch","n","n",1,0.7802
"02-May-2018_14:38:43","Exp",7303,28,"male","R",3,3,9,"immoralOther","immoralSelf","mismatch","n","n",1,0.7275
"02-May-2018_14:38:45","Exp",7303,28,"male","R",3,3,10,"immoralSelf","immoralOther","mismatch","n","m",0,0.834
"02-May-2018_14:38:47","Exp",7303,28,"male","R",3,3,11,"immoralSelf","immoralSelf","match","m","m",1,0.8585
"02-May-2018_14:38:49","Exp",7303,28,"male","R",3,3,12,"moralOther","moralOther","match","m","m",1,0.9316
"02-May-2018_14:38:51","Exp",7303,28,"male","R",3,3,13,"moralSelf","moralSelf","match","m","n",0,0.686
"02-May-2018_14:38:54","Exp",7303,28,"male","R",3,3,14,"moralOther","moralOther","match","m","m",1,0.9035
"02-May-2018_14:38:56","Exp",7303,28,"male","R",3,3,15,"moralSelf","immoralOther","mismatch","n","n",1,0.8095
"02-May-2018_14:38:58","Exp",7303,28,"male","R",3,3,16,"moralSelf","moralSelf","match","m","m",1,0.8655
"02-May-2018_14:39:00","Exp",7303,28,"male","R",3,3,17,"moralSelf","moralSelf","match","m","m",1,0.7307
"02-May-2018_14:39:03","Exp",7303,28,"male","R",3,3,18,"moralOther","moralOther","match","m","m",1,0.8769
"02-May-2018_14:39:05","Exp",7303,28,"male","R",3,3,19,"immoralSelf","immoralSelf","match","m","m",1,0.9622
"02-May-2018_14:39:07","Exp",7303,28,"male","R",3,3,20,"moralSelf","immoralOther","mismatch","n","n",1,0.6975
"02-May-2018_14:39:09","Exp",7303,28,"male","R",3,3,21,"immoralOther","immoralOther","match","m","m",1,0.7672
"02-May-2018_14:39:11","Exp",7303,28,"male","R",3,3,22,"moralOther","immoralSelf","mismatch","n","n",1,0.7664
"02-May-2018_14:39:13","Exp",7303,28,"male","R",3,3,23,"moralOther","immoralSelf","mismatch","n","n",1,0.7496
"02-May-2018_14:39:16","Exp",7303,28,"male","R",3,3,24,"moralSelf","immoralSelf","mismatch","n","n",1,0.8442
"02-May-2018_14:39:46","Exp",7303,28,"male","R",3,4,1,"immoralOther","immoralOther","match","m","m",1,0.8402
"02-May-2018_14:39:48","Exp",7303,28,"male","R",3,4,2,"moralOther","moralOther","match","m","m",1,0.7288
"02-May-2018_14:39:50","Exp",7303,28,"male","R",3,4,3,"immoralOther","immoralOther","match","m","m",1,0.8033
"02-May-2018_14:39:52","Exp",7303,28,"male","R",3,4,4,"immoralSelf","moralSelf","mismatch","n","n",1,0.7671
"02-May-2018_14:39:54","Exp",7303,28,"male","R",3,4,5,"moralOther","moralOther","match","m","m",1,0.6463
"02-May-2018_14:39:56","Exp",7303,28,"male","R",3,4,6,"moralSelf","moralOther","mismatch","n","m",0,0.7471
"02-May-2018_14:39:58","Exp",7303,28,"male","R",3,4,7,"immoralOther","immoralOther","match","m","m",1,0.7057
"02-May-2018_14:40:00","Exp",7303,28,"male","R",3,4,8,"moralSelf","moralSelf","match","m","m",1,0.7477
"02-May-2018_14:40:03","Exp",7303,28,"male","R",3,4,9,"immoralSelf","immoralSelf","match","m","m",1,0.7224
"02-May-2018_14:40:05","Exp",7303,28,"male","R",3,4,10,"moralSelf","moralOther","mismatch","n","n",1,0.8325
"02-May-2018_14:40:07","Exp",7303,28,"male","R",3,4,11,"moralSelf","moralOther","mismatch","n","m",0,0.8091
"02-May-2018_14:40:09","Exp",7303,28,"male","R",3,4,12,"moralSelf","moralSelf","match","m","m",1,0.7373
"02-May-2018_14:40:11","Exp",7303,28,"male","R",3,4,13,"immoralSelf","immoralSelf","match","m","m",1,0.6916
"02-May-2018_14:40:13","Exp",7303,28,"male","R",3,4,14,"moralOther","moralSelf","mismatch","n","n",1,0.7854
"02-May-2018_14:40:16","Exp",7303,28,"male","R",3,4,15,"immoralSelf","immoralOther","mismatch","n","n",1,0.7611
"02-May-2018_14:40:18","Exp",7303,28,"male","R",3,4,16,"immoralOther","moralSelf","mismatch","n","n",1,0.74
"02-May-2018_14:40:20","Exp",7303,28,"male","R",3,4,17,"immoralOther","immoralSelf","mismatch","n","n",1,0.7626
"02-May-2018_14:40:22","Exp",7303,28,"male","R",3,4,18,"immoralSelf","immoralSelf","match","m","n",0,0.7058
"02-May-2018_14:40:24","Exp",7303,28,"male","R",3,4,19,"immoralOther","moralOther","mismatch","n","n",1,0.8276
"02-May-2018_14:40:26","Exp",7303,28,"male","R",3,4,20,"moralOther","moralSelf","mismatch","n","n",1,0.8401
"02-May-2018_14:40:28","Exp",7303,28,"male","R",3,4,21,"immoralSelf","moralSelf","mismatch","n","n",1,0.7287
"02-May-2018_14:40:31","Exp",7303,28,"male","R",3,4,22,"moralOther","immoralOther","mismatch","n","n",1,0.8431
"02-May-2018_14:40:33","Exp",7303,28,"male","R",3,4,23,"moralSelf","moralSelf","match","m","m",1,0.7476
"02-May-2018_14:40:35","Exp",7303,28,"male","R",3,4,24,"moralOther","moralOther","match","m","n",0,0.8343
"02-May-2018_14:40:37","Exp",7303,28,"male","R",3,5,1,"moralOther","immoralSelf","mismatch","n","n",1,0.7229
"02-May-2018_14:40:40","Exp",7303,28,"male","R",3,5,2,"moralSelf","moralOther","mismatch","n","m",0,0.985
"02-May-2018_14:40:42","Exp",7303,28,"male","R",3,5,3,"moralOther","moralOther","match","m","m",1,0.9084
"02-May-2018_14:40:44","Exp",7303,28,"male","R",3,5,4,"immoralOther","moralSelf","mismatch","n","n",1,0.6864
"02-May-2018_14:40:46","Exp",7303,28,"male","R",3,5,5,"immoralSelf","immoralOther","mismatch","n","n",1,0.8639
"02-May-2018_14:40:48","Exp",7303,28,"male","R",3,5,6,"moralSelf","moralSelf","match","m","m",1,0.609
"02-May-2018_14:40:50","Exp",7303,28,"male","R",3,5,7,"immoralOther","immoralOther","match","m","m",1,0.745
"02-May-2018_14:40:52","Exp",7303,28,"male","R",3,5,8,"moralOther","immoralOther","mismatch","n","n",1,0.5757
"02-May-2018_14:40:54","Exp",7303,28,"male","R",3,5,9,"immoralSelf","immoralSelf","match","m","m",1,0.6591
"02-May-2018_14:40:56","Exp",7303,28,"male","R",3,5,10,"immoralSelf","moralOther","mismatch","n","n",1,0.7562
"02-May-2018_14:40:59","Exp",7303,28,"male","R",3,5,11,"moralOther","moralOther","match","m","m",1,0.8951
"02-May-2018_14:41:01","Exp",7303,28,"male","R",3,5,12,"moralSelf","moralSelf","match","m","m",1,0.6049
"02-May-2018_14:41:03","Exp",7303,28,"male","R",3,5,13,"moralSelf","moralSelf","match","m","m",1,0.6806
"02-May-2018_14:41:05","Exp",7303,28,"male","R",3,5,14,"immoralOther","immoralOther","match","m","n",0,0.5344
"02-May-2018_14:41:07","Exp",7303,28,"male","R",3,5,15,"immoralOther","immoralOther","match","m","m",1,0.6328
"02-May-2018_14:41:09","Exp",7303,28,"male","R",3,5,16,"immoralOther","moralSelf","mismatch","n","n",1,0.7214
"02-May-2018_14:41:11","Exp",7303,28,"male","R",3,5,17,"moralSelf","immoralSelf","mismatch","n","n",1,0.6876
"02-May-2018_14:41:13","Exp",7303,28,"male","R",3,5,18,"moralOther","moralOther","match","m","n",0,0.673
"02-May-2018_14:41:15","Exp",7303,28,"male","R",3,5,19,"immoralOther","immoralSelf","mismatch","n","n",1,0.5823
"02-May-2018_14:41:17","Exp",7303,28,"male","R",3,5,20,"moralOther","moralSelf","mismatch","n","m",0,0.5057
"02-May-2018_14:41:19","Exp",7303,28,"male","R",3,5,21,"immoralSelf","immoralSelf","match","m","m",1,0.5477
"02-May-2018_14:41:21","Exp",7303,28,"male","R",3,5,22,"moralSelf","immoralSelf","mismatch","n","n",1,0.8023
"02-May-2018_14:41:23","Exp",7303,28,"male","R",3,5,23,"immoralSelf","moralSelf","mismatch","n","n",1,0.7662
"02-May-2018_14:41:25","Exp",7303,28,"male","R",3,5,24,"immoralSelf","immoralSelf","match","m","m",1,0.7414
"06-May-2018_14:45:38","Exp",7304,25,"female","R",1,1,1,"immoralOther","immoralSelf","mismatch","m","n",0,0.7247
"06-May-2018_14:45:40","Exp",7304,25,"female","R",1,1,2,"immoralSelf","moralSelf","mismatch","m","m",1,0.8786
"06-May-2018_14:45:42","Exp",7304,25,"female","R",1,1,3,"moralOther","moralOther","match","n","n",1,0.8167
"06-May-2018_14:45:44","Exp",7304,25,"female","R",1,1,4,"immoralOther","immoralOther","match","n","m",0,0.8728
"06-May-2018_14:45:46","Exp",7304,25,"female","R",1,1,5,"moralOther","moralSelf","mismatch","m","n",0,0.6849
"06-May-2018_14:45:49","Exp",7304,25,"female","R",1,1,6,"immoralSelf","moralSelf","mismatch","m","n",0,0.6951
"06-May-2018_14:45:50","Exp",7304,25,"female","R",1,1,7,"moralSelf","moralSelf","match","n","n",1,0.4951
"06-May-2018_14:45:53","Exp",7304,25,"female","R",1,1,8,"immoralOther","immoralOther","match","n","m",0,0.8713
"06-May-2018_14:45:55","Exp",7304,25,"female","R",1,1,9,"moralSelf","moralSelf","match","n","n",1,0.5954
"06-May-2018_14:45:57","Exp",7304,25,"female","R",1,1,10,"immoralOther","immoralOther","match","n","n",1,0.6875
"06-May-2018_14:45:59","Exp",7304,25,"female","R",1,1,11,"moralSelf","immoralSelf","mismatch","m","m",1,0.6796
"06-May-2018_14:46:01","Exp",7304,25,"female","R",1,1,12,"moralOther","immoralSelf","mismatch","m","n",0,0.8177
"06-May-2018_14:46:03","Exp",7304,25,"female","R",1,1,13,"immoralSelf","immoralSelf","match","n","m",0,0.7439
"06-May-2018_14:46:05","Exp",7304,25,"female","R",1,1,14,"moralSelf","immoralSelf","mismatch","m","n",0,0.35
"06-May-2018_14:46:07","Exp",7304,25,"female","R",1,1,15,"immoralSelf","immoralOther","mismatch","m",NA,-1,1.033
"06-May-2018_14:46:09","Exp",7304,25,"female","R",1,1,16,"immoralOther","moralSelf","mismatch","m","n",0,0.7582
"06-May-2018_14:46:11","Exp",7304,25,"female","R",1,1,17,"moralSelf","immoralOther","mismatch","m","m",1,0.7363
"06-May-2018_14:46:14","Exp",7304,25,"female","R",1,1,18,"immoralOther","moralOther","mismatch","m",NA,-1,1.033
"06-May-2018_14:46:16","Exp",7304,25,"female","R",1,1,19,"immoralSelf","immoralSelf","match","n","m",0,0.8926
"06-May-2018_14:46:18","Exp",7304,25,"female","R",1,1,20,"moralOther","moralOther","match","n","m",0,0.8527
"06-May-2018_14:46:20","Exp",7304,25,"female","R",1,1,21,"moralOther","immoralOther","mismatch","m","n",0,0.6848
"06-May-2018_14:46:22","Exp",7304,25,"female","R",1,1,22,"immoralSelf","immoralSelf","match","n","m",0,0.407
"06-May-2018_14:46:23","Exp",7304,25,"female","R",1,1,23,"moralSelf","moralSelf","match","n","n",1,0.3611
"06-May-2018_14:46:26","Exp",7304,25,"female","R",1,1,24,"moralOther","moralOther","match","n","n",1,0.9631
"06-May-2018_14:46:28","Exp",7304,25,"female","R",1,2,1,"immoralOther","immoralOther","match","n","m",0,0.7173
"06-May-2018_14:46:30","Exp",7304,25,"female","R",1,2,2,"immoralSelf","immoralOther","mismatch","m","m",1,0.7514
"06-May-2018_14:46:32","Exp",7304,25,"female","R",1,2,3,"moralOther","immoralSelf","mismatch","m","m",1,0.9234
"06-May-2018_14:46:34","Exp",7304,25,"female","R",1,2,4,"moralOther","immoralOther","mismatch","m","m",1,0.5976
"06-May-2018_14:46:36","Exp",7304,25,"female","R",1,2,5,"immoralSelf","moralSelf","mismatch","m","m",1,0.7138
"06-May-2018_14:46:38","Exp",7304,25,"female","R",1,2,6,"immoralSelf","immoralSelf","match","n","n",1,0.7979
"06-May-2018_14:46:40","Exp",7304,25,"female","R",1,2,7,"moralSelf","moralOther","mismatch","m","n",0,0.48
"06-May-2018_14:46:42","Exp",7304,25,"female","R",1,2,8,"immoralOther","moralSelf","mismatch","m","m",1,0.6661
"06-May-2018_14:46:44","Exp",7304,25,"female","R",1,2,9,"moralSelf","moralSelf","match","n","n",1,0.6882
"06-May-2018_14:46:46","Exp",7304,25,"female","R",1,2,10,"moralOther","moralOther","match","n","m",0,0.6884
"06-May-2018_14:46:48","Exp",7304,25,"female","R",1,2,11,"immoralOther","immoralOther","match","n","n",1,0.8164
"06-May-2018_14:46:50","Exp",7304,25,"female","R",1,2,12,"immoralSelf","moralSelf","mismatch","m","m",1,0.6246
"06-May-2018_14:46:53","Exp",7304,25,"female","R",1,2,13,"immoralOther","moralOther","mismatch","m","m",1,0.8146
"06-May-2018_14:46:55","Exp",7304,25,"female","R",1,2,14,"moralOther","moralOther","match","n","n",1,0.6148
"06-May-2018_14:46:56","Exp",7304,25,"female","R",1,2,15,"immoralSelf","immoralSelf","match","n","n",1,0.6229
"06-May-2018_14:46:58","Exp",7304,25,"female","R",1,2,16,"moralSelf","immoralOther","mismatch","m","m",1,0.597
"06-May-2018_14:47:01","Exp",7304,25,"female","R",1,2,17,"immoralOther","moralOther","mismatch","m","n",0,0.7612
"06-May-2018_14:47:02","Exp",7304,25,"female","R",1,2,18,"immoralOther","immoralOther","match","n","m",0,0.6112
"06-May-2018_14:47:05","Exp",7304,25,"female","R",1,2,19,"moralSelf","immoralSelf","mismatch","m","m",1,0.7074
"06-May-2018_14:47:06","Exp",7304,25,"female","R",1,2,20,"moralSelf","moralSelf","match","n","n",1,0.5754
"06-May-2018_14:47:09","Exp",7304,25,"female","R",1,2,21,"moralOther","immoralOther","mismatch","m","m",1,0.9195
"06-May-2018_14:47:11","Exp",7304,25,"female","R",1,2,22,"immoralSelf","immoralSelf","match","n","n",1,0.6337
"06-May-2018_14:47:13","Exp",7304,25,"female","R",1,2,23,"moralSelf","moralSelf","match","n","n",1,0.7498
"06-May-2018_14:47:15","Exp",7304,25,"female","R",1,2,24,"moralOther","moralOther","match","n","n",1,0.6819
"06-May-2018_14:47:17","Exp",7304,25,"female","R",1,3,1,"moralSelf","moralOther","mismatch","m","n",0,0.412
"06-May-2018_14:47:19","Exp",7304,25,"female","R",1,3,2,"immoralOther","immoralOther","match","n","m",0,0.6201
"06-May-2018_14:47:21","Exp",7304,25,"female","R",1,3,3,"immoralSelf","immoralSelf","match","n","n",1,0.7542
"06-May-2018_14:47:23","Exp",7304,25,"female","R",1,3,4,"immoralOther","moralOther","mismatch","m","n",0,0.7904
"06-May-2018_14:47:25","Exp",7304,25,"female","R",1,3,5,"moralOther","moralOther","match","n","n",1,0.6825
"06-May-2018_14:47:27","Exp",7304,25,"female","R",1,3,6,"moralSelf","immoralSelf","mismatch","m","m",1,0.5885
"06-May-2018_14:47:29","Exp",7304,25,"female","R",1,3,7,"moralOther","immoralSelf","mismatch","m","n",0,0.7607
"06-May-2018_14:47:31","Exp",7304,25,"female","R",1,3,8,"immoralSelf","immoralSelf","match","n","n",1,0.6188
"06-May-2018_14:47:33","Exp",7304,25,"female","R",1,3,9,"immoralSelf","moralOther","mismatch","m","n",0,0.9849
"06-May-2018_14:47:36","Exp",7304,25,"female","R",1,3,10,"immoralOther","immoralOther","match","n","n",1,0.9591
"06-May-2018_14:47:38","Exp",7304,25,"female","R",1,3,11,"moralOther","moralOther","match","n","m",0,0.8971
"06-May-2018_14:47:40","Exp",7304,25,"female","R",1,3,12,"immoralSelf","immoralSelf","match","n","n",1,0.7594
"06-May-2018_14:47:42","Exp",7304,25,"female","R",1,3,13,"immoralOther","moralSelf","mismatch","m","m",1,0.7855
"06-May-2018_14:47:44","Exp",7304,25,"female","R",1,3,14,"moralSelf","moralSelf","match","n","n",1,0.5276
"06-May-2018_14:47:46","Exp",7304,25,"female","R",1,3,15,"moralOther","immoralSelf","mismatch","m","n",0,0.8717
"06-May-2018_14:47:48","Exp",7304,25,"female","R",1,3,16,"moralSelf","moralSelf","match","n","n",1,0.4998
"06-May-2018_14:47:50","Exp",7304,25,"female","R",1,3,17,"moralSelf","immoralOther","mismatch","m","m",1,0.8979
"06-May-2018_14:47:52","Exp",7304,25,"female","R",1,3,18,"immoralSelf","immoralOther","mismatch","m","n",0,0.8
"06-May-2018_14:47:54","Exp",7304,25,"female","R",1,3,19,"moralSelf","moralSelf","match","n","n",1,0.5782
"06-May-2018_14:47:56","Exp",7304,25,"female","R",1,3,20,"immoralSelf","moralSelf","mismatch","m","m",1,0.7762
"06-May-2018_14:47:59","Exp",7304,25,"female","R",1,3,21,"immoralOther","moralOther","mismatch","m","n",0,0.7924
"06-May-2018_14:48:00","Exp",7304,25,"female","R",1,3,22,"moralOther","moralSelf","mismatch","m","n",0,0.5726
"06-May-2018_14:48:03","Exp",7304,25,"female","R",1,3,23,"immoralOther","immoralOther","match","n","n",1,0.8526
"06-May-2018_14:48:05","Exp",7304,25,"female","R",1,3,24,"moralOther","moralOther","match","n","m",0,0.6608
"06-May-2018_14:48:22","Exp",7304,25,"female","R",1,4,1,"immoralSelf","moralSelf","mismatch","m","m",1,0.8517
"06-May-2018_14:48:24","Exp",7304,25,"female","R",1,4,2,"immoralOther","immoralOther","match","n","n",1,0.7318
"06-May-2018_14:48:26","Exp",7304,25,"female","R",1,4,3,"moralOther","immoralOther","mismatch","m","m",1,0.7239
"06-May-2018_14:48:28","Exp",7304,25,"female","R",1,4,4,"moralSelf","moralSelf","match","n","n",1,0.5501
"06-May-2018_14:48:31","Exp",7304,25,"female","R",1,4,5,"immoralSelf","immoralSelf","match","n","n",1,0.9543
"06-May-2018_14:48:33","Exp",7304,25,"female","R",1,4,6,"immoralOther","immoralOther","match","n","n",1,0.9184
"06-May-2018_14:48:35","Exp",7304,25,"female","R",1,4,7,"moralOther","moralOther","match","n","n",1,0.7604
"06-May-2018_14:48:37","Exp",7304,25,"female","R",1,4,8,"moralOther","immoralSelf","mismatch","m","m",1,0.6986
"06-May-2018_14:48:39","Exp",7304,25,"female","R",1,4,9,"moralSelf","immoralSelf","mismatch","m","m",1,0.7847
"06-May-2018_14:48:41","Exp",7304,25,"female","R",1,4,10,"moralOther","moralSelf","mismatch","m","n",0,0.5588
"06-May-2018_14:48:43","Exp",7304,25,"female","R",1,4,11,"immoralSelf","immoralOther","mismatch","m","m",1,0.7849
"06-May-2018_14:48:45","Exp",7304,25,"female","R",1,4,12,"moralSelf","moralOther","mismatch","m","n",0,0.631
"06-May-2018_14:48:47","Exp",7304,25,"female","R",1,4,13,"immoralSelf","moralSelf","mismatch","m","m",1,0.8032
"06-May-2018_14:48:50","Exp",7304,25,"female","R",1,4,14,"moralOther","moralOther","match","n","n",1,0.8693
"06-May-2018_14:48:52","Exp",7304,25,"female","R",1,4,15,"moralSelf","moralSelf","match","n","n",1,0.6174
"06-May-2018_14:48:54","Exp",7304,25,"female","R",1,4,16,"immoralOther","immoralOther","match","n","n",1,0.8956
"06-May-2018_14:48:56","Exp",7304,25,"female","R",1,4,17,"immoralSelf","immoralSelf","match","n","n",1,0.6877
"06-May-2018_14:48:58","Exp",7304,25,"female","R",1,4,18,"immoralSelf","immoralSelf","match","n","m",0,0.5997
"06-May-2018_14:49:00","Exp",7304,25,"female","R",1,4,19,"moralSelf","moralSelf","match","n","n",1,0.578
"06-May-2018_14:49:02","Exp",7304,25,"female","R",1,4,20,"immoralOther","moralSelf","mismatch","m","m",1,0.84
"06-May-2018_14:49:04","Exp",7304,25,"female","R",1,4,21,"immoralOther","moralOther","mismatch","m","n",0,0.6981
"06-May-2018_14:49:06","Exp",7304,25,"female","R",1,4,22,"immoralOther","moralOther","mismatch","m","m",1,0.7442
"06-May-2018_14:49:08","Exp",7304,25,"female","R",1,4,23,"moralSelf","moralOther","mismatch","m","m",1,0.8383
"06-May-2018_14:49:11","Exp",7304,25,"female","R",1,4,24,"moralOther","moralOther","match","n","n",1,0.8884
"06-May-2018_14:49:13","Exp",7304,25,"female","R",1,5,1,"moralOther","moralSelf","mismatch","m","m",1,0.7686
"06-May-2018_14:49:15","Exp",7304,25,"female","R",1,5,2,"immoralOther","immoralSelf","mismatch","m",NA,-1,1.033
"06-May-2018_14:49:17","Exp",7304,25,"female","R",1,5,3,"immoralOther","moralSelf","mismatch","m","n",0,0.6928
"06-May-2018_14:49:19","Exp",7304,25,"female","R",1,5,4,"moralOther","immoralSelf","mismatch","m","n",0,0.845
"06-May-2018_14:49:22","Exp",7304,25,"female","R",1,5,5,"immoralSelf","immoralOther","mismatch","m","m",1,0.9511
"06-May-2018_14:49:24","Exp",7304,25,"female","R",1,5,6,"moralOther","moralOther","match","n","m",0,0.7312
"06-May-2018_14:49:26","Exp",7304,25,"female","R",1,5,7,"moralSelf","moralSelf","match","n","n",1,0.5393
"06-May-2018_14:49:28","Exp",7304,25,"female","R",1,5,8,"immoralSelf","immoralSelf","match","n","m",0,0.7455
"06-May-2018_14:49:30","Exp",7304,25,"female","R",1,5,9,"moralOther","moralOther","match","n","n",1,0.7196
"06-May-2018_14:49:32","Exp",7304,25,"female","R",1,5,10,"moralSelf","immoralOther","mismatch","m","m",1,0.7936
"06-May-2018_14:49:34","Exp",7304,25,"female","R",1,5,11,"immoralSelf","immoralOther","mismatch","m","n",0,0.9178
"06-May-2018_14:49:36","Exp",7304,25,"female","R",1,5,12,"moralSelf","moralSelf","match","n","n",1,0.5279
"06-May-2018_14:49:38","Exp",7304,25,"female","R",1,5,13,"moralOther","moralOther","match","n","n",1,0.96
"06-May-2018_14:49:40","Exp",7304,25,"female","R",1,5,14,"immoralSelf","immoralSelf","match","n","n",1,0.6501
"06-May-2018_14:49:42","Exp",7304,25,"female","R",1,5,15,"moralOther","immoralSelf","mismatch","m","m",1,0.6902
"06-May-2018_14:49:44","Exp",7304,25,"female","R",1,5,16,"immoralOther","immoralOther","match","n","n",1,0.6664
"06-May-2018_14:49:47","Exp",7304,25,"female","R",1,5,17,"moralSelf","moralOther","mismatch","m","m",1,0.9445
"06-May-2018_14:49:49","Exp",7304,25,"female","R",1,5,18,"immoralSelf","moralOther","mismatch","m","m",1,0.7826
"06-May-2018_14:49:51","Exp",7304,25,"female","R",1,5,19,"immoralOther","immoralOther","match","n","n",1,0.8048
"06-May-2018_14:49:53","Exp",7304,25,"female","R",1,5,20,"moralSelf","moralSelf","match","n","n",1,0.6228
"06-May-2018_14:49:55","Exp",7304,25,"female","R",1,5,21,"immoralOther","immoralOther","match","n","m",0,0.565
"06-May-2018_14:49:57","Exp",7304,25,"female","R",1,5,22,"immoralSelf","immoralSelf","match","n","m",0,0.6791
"06-May-2018_14:49:59","Exp",7304,25,"female","R",1,5,23,"moralSelf","immoralOther","mismatch","m","m",1,0.8492
"06-May-2018_14:50:01","Exp",7304,25,"female","R",1,5,24,"immoralOther","immoralSelf","mismatch","m","n",0,0.9694
"06-May-2018_14:50:07","Exp",7304,25,"female","R",2,1,1,"moralOther","moralOther","match","n","n",1,0.8856
"06-May-2018_14:50:09","Exp",7304,25,"female","R",2,1,2,"moralSelf","immoralOther","mismatch","m","m",1,0.6958
"06-May-2018_14:50:11","Exp",7304,25,"female","R",2,1,3,"moralOther","immoralOther","mismatch","m","n",0,0.5759
"06-May-2018_14:50:12","Exp",7304,25,"female","R",2,1,4,"moralSelf","moralSelf","match","n","n",1,0.496
"06-May-2018_14:50:15","Exp",7304,25,"female","R",2,1,5,"moralOther","moralOther","match","n","n",1,0.8721
"06-May-2018_14:50:17","Exp",7304,25,"female","R",2,1,6,"moralSelf","moralOther","mismatch","m","m",1,0.6682
"06-May-2018_14:50:19","Exp",7304,25,"female","R",2,1,7,"moralOther","immoralOther","mismatch","m","n",0,0.6563
"06-May-2018_14:50:21","Exp",7304,25,"female","R",2,1,8,"immoralSelf","immoralOther","mismatch","m","n",0,0.6884
"06-May-2018_14:50:23","Exp",7304,25,"female","R",2,1,9,"moralSelf","moralSelf","match","n","n",1,0.5605
"06-May-2018_14:50:25","Exp",7304,25,"female","R",2,1,10,"immoralOther","moralOther","mismatch","m","n",0,0.7867
"06-May-2018_14:50:27","Exp",7304,25,"female","R",2,1,11,"immoralSelf","moralOther","mismatch","m","m",1,0.7768
"06-May-2018_14:50:29","Exp",7304,25,"female","R",2,1,12,"immoralSelf","immoralOther","mismatch","m","m",1,0.7689
"06-May-2018_14:50:31","Exp",7304,25,"female","R",2,1,13,"moralOther","moralOther","match","n","n",1,0.7211
"06-May-2018_14:50:33","Exp",7304,25,"female","R",2,1,14,"immoralSelf","immoralSelf","match","n","n",1,0.7231
"06-May-2018_14:50:35","Exp",7304,25,"female","R",2,1,15,"immoralOther","moralOther","mismatch","m",NA,-1,1.033
"06-May-2018_14:50:38","Exp",7304,25,"female","R",2,1,16,"immoralOther","immoralOther","match","n","n",1,0.7774
"06-May-2018_14:50:40","Exp",7304,25,"female","R",2,1,17,"immoralOther","immoralOther","match","n","n",1,0.7995
"06-May-2018_14:50:42","Exp",7304,25,"female","R",2,1,18,"moralSelf","moralOther","mismatch","m","m",1,0.6896
"06-May-2018_14:50:44","Exp",7304,25,"female","R",2,1,19,"immoralSelf","immoralSelf","match","n","n",1,0.6257
"06-May-2018_14:50:46","Exp",7304,25,"female","R",2,1,20,"moralSelf","moralSelf","match","n","n",1,0.6799
"06-May-2018_14:50:48","Exp",7304,25,"female","R",2,1,21,"immoralOther","immoralOther","match","n","n",1,0.874
"06-May-2018_14:50:50","Exp",7304,25,"female","R",2,1,22,"moralOther","immoralOther","mismatch","m","m",1,0.7181
"06-May-2018_14:50:52","Exp",7304,25,"female","R",2,1,23,"immoralSelf","immoralSelf","match","n","n",1,0.7442
"06-May-2018_14:50:54","Exp",7304,25,"female","R",2,1,24,"immoralOther","immoralSelf","mismatch","m","m",1,0.8463
"06-May-2018_14:50:57","Exp",7304,25,"female","R",2,2,1,"moralSelf","immoralOther","mismatch","m","m",1,0.8724
"06-May-2018_14:50:59","Exp",7304,25,"female","R",2,2,2,"immoralOther","moralOther","mismatch","m","m",1,0.8446
"06-May-2018_14:51:01","Exp",7304,25,"female","R",2,2,3,"immoralSelf","immoralSelf","match","n","n",1,0.7347
"06-May-2018_14:51:03","Exp",7304,25,"female","R",2,2,4,"moralOther","immoralSelf","mismatch","m","m",1,0.7668
"06-May-2018_14:51:05","Exp",7304,25,"female","R",2,2,5,"moralOther","moralOther","match","n","m",0,0.8809
"06-May-2018_14:51:07","Exp",7304,25,"female","R",2,2,6,"immoralSelf","immoralSelf","match","n","n",1,0.811
"06-May-2018_14:51:09","Exp",7304,25,"female","R",2,2,7,"immoralOther","moralOther","mismatch","m","m",1,0.7392
"06-May-2018_14:51:12","Exp",7304,25,"female","R",2,2,8,"immoralOther","immoralOther","match","n","n",1,0.8333
"06-May-2018_14:51:14","Exp",7304,25,"female","R",2,2,9,"immoralOther","moralSelf","mismatch","m","m",1,0.8374
"06-May-2018_14:51:16","Exp",7304,25,"female","R",2,2,10,"moralOther","moralOther","match","n","n",1,0.8155
"06-May-2018_14:51:18","Exp",7304,25,"female","R",2,2,11,"moralSelf","moralSelf","match","n","n",1,0.6557
"06-May-2018_14:51:20","Exp",7304,25,"female","R",2,2,12,"moralSelf","moralSelf","match","n","n",1,0.6158
"06-May-2018_14:51:22","Exp",7304,25,"female","R",2,2,13,"immoralSelf","moralOther","mismatch","m","m",1,0.7119
"06-May-2018_14:51:24","Exp",7304,25,"female","R",2,2,14,"moralOther","immoralOther","mismatch","m","m",1,0.7561
"06-May-2018_14:51:26","Exp",7304,25,"female","R",2,2,15,"immoralOther","immoralOther","match","n","n",1,0.8241
"06-May-2018_14:51:28","Exp",7304,25,"female","R",2,2,16,"moralOther","immoralSelf","mismatch","m","m",1,0.7103
"06-May-2018_14:51:30","Exp",7304,25,"female","R",2,2,17,"immoralSelf","immoralOther","mismatch","m","n",0,0.7544
"06-May-2018_14:51:32","Exp",7304,25,"female","R",2,2,18,"moralSelf","immoralOther","mismatch","m","m",1,0.7186
"06-May-2018_14:51:35","Exp",7304,25,"female","R",2,2,19,"moralSelf","moralOther","mismatch","m","m",1,0.8006
"06-May-2018_14:51:37","Exp",7304,25,"female","R",2,2,20,"immoralOther","immoralOther","match","n","m",0,0.8508
"06-May-2018_14:51:39","Exp",7304,25,"female","R",2,2,21,"immoralSelf","immoralSelf","match","n",NA,-1,1.033
"06-May-2018_14:51:41","Exp",7304,25,"female","R",2,2,22,"immoralSelf","immoralOther","mismatch","m","m",1,0.6311
"06-May-2018_14:51:43","Exp",7304,25,"female","R",2,2,23,"moralSelf","moralSelf","match","n","n",1,0.6112
"06-May-2018_14:51:45","Exp",7304,25,"female","R",2,2,24,"moralOther","moralOther","match","n","n",1,0.8992
"06-May-2018_14:51:47","Exp",7304,25,"female","R",2,3,1,"moralSelf","immoralSelf","mismatch","m","n",0,0.5694
"06-May-2018_14:51:49","Exp",7304,25,"female","R",2,3,2,"moralSelf","moralSelf","match","n","n",1,0.5295
"06-May-2018_14:51:51","Exp",7304,25,"female","R",2,3,3,"moralOther","immoralSelf","mismatch","m","n",0,0.6576
"06-May-2018_14:51:53","Exp",7304,25,"female","R",2,3,4,"immoralOther","immoralOther","match","n","n",1,0.7997
"06-May-2018_14:51:56","Exp",7304,25,"female","R",2,3,5,"immoralOther","immoralSelf","mismatch","m","m",1,0.8738
"06-May-2018_14:51:58","Exp",7304,25,"female","R",2,3,6,"moralSelf","immoralOther","mismatch","m","n",0,0.6219
"06-May-2018_14:52:00","Exp",7304,25,"female","R",2,3,7,"immoralOther","immoralOther","match","n",NA,-1,1.033
"06-May-2018_14:52:02","Exp",7304,25,"female","R",2,3,8,"immoralSelf","immoralSelf","match","n","n",1,0.6163
"06-May-2018_14:52:04","Exp",7304,25,"female","R",2,3,9,"moralOther","moralSelf","mismatch","m","n",0,0.4003
"06-May-2018_14:52:06","Exp",7304,25,"female","R",2,3,10,"immoralSelf","moralSelf","mismatch","m","n",0,0.5944
"06-May-2018_14:52:07","Exp",7304,25,"female","R",2,3,11,"moralSelf","moralSelf","match","n","n",1,0.3586
"06-May-2018_14:52:09","Exp",7304,25,"female","R",2,3,12,"moralSelf","immoralOther","mismatch","m","n",0,0.3286
"06-May-2018_14:52:11","Exp",7304,25,"female","R",2,3,13,"moralOther","moralOther","match","n",NA,-1,1.0329
"06-May-2018_14:52:13","Exp",7304,25,"female","R",2,3,14,"moralOther","moralSelf","mismatch","m","n",0,0.5888
"06-May-2018_14:52:15","Exp",7304,25,"female","R",2,3,15,"immoralSelf","immoralSelf","match","n","n",1,0.6489
"06-May-2018_14:52:17","Exp",7304,25,"female","R",2,3,16,"moralOther","moralOther","match","n","n",1,0.6251
"06-May-2018_14:52:19","Exp",7304,25,"female","R",2,3,17,"immoralOther","immoralOther","match","n","m",0,0.5591
"06-May-2018_14:52:21","Exp",7304,25,"female","R",2,3,18,"immoralSelf","immoralSelf","match","n","n",1,0.5533
