SubjectID Age Gender Handness moralSelfShape immoralSelfShape moralOtherShape immoralOtherShape Block Bin Trial Task shapeName Identity Morality RT ResponseKey Accuracy trialType
7330 22 female R P Tra C S 1 1 1 importance Tra self immoral 1.0841 NA -1 important
7330 22 female R P Tra C S 1 1 2 importance S other immoral 0.7415 P 1 unimportant
7330 22 female R P Tra C S 1 1 3 importance Tra self immoral 1.0042 O 1 important
7330 22 female R P Tra C S 1 1 4 importance C other moral 1.0841 NA -1 unimportant
7330 22 female R P Tra C S 1 1 5 importance S other immoral 1.0237 P 1 unimportant
7330 22 female R P Tra C S 1 1 6 importance S other immoral 0.9349 P 1 unimportant
7330 22 female R P Tra C S 1 1 7 importance P self moral 0.6126 O 1 important
7330 22 female R P Tra C S 1 1 8 importance S other immoral 0.6330 P 1 unimportant
7330 22 female R P Tra C S 1 1 9 importance S other immoral 0.5078 O 0 unimportant
7330 22 female R P Tra C S 1 1 10 importance S other immoral 0.3667 O 0 unimportant
7330 22 female R P Tra C S 1 1 11 importance P self moral 0.7325 P 0 important
7330 22 female R P Tra C S 1 1 12 importance Tra self immoral 1.0597 O 1 important
7330 22 female R P Tra C S 1 1 13 importance Tra self immoral 0.7590 O 1 important
7330 22 female R P Tra C S 1 1 14 importance Tra self immoral 0.4302 O 1 important
7330 22 female R P Tra C S 1 1 15 importance C other moral 1.0841 NA -1 unimportant
7330 22 female R P Tra C S 1 1 16 importance P self moral 1.0841 NA -1 important
7330 22 female R P Tra C S 1 1 17 importance P self moral 0.7029 P 0 important
7330 22 female R P Tra C S 1 1 18 importance C other moral 0.4245 O 0 unimportant
7330 22 female R P Tra C S 1 1 19 importance Tra self immoral 0.7346 O 1 important
7330 22 female R P Tra C S 1 1 20 importance C other moral 0.7211 P 1 unimportant
7330 22 female R P Tra C S 1 1 21 importance C other moral 0.5537 P 1 unimportant
7330 22 female R P Tra C S 1 1 22 importance P self moral 0.6097 O 1 important
7330 22 female R P Tra C S 1 1 23 importance P self moral 0.4089 O 1 important
7330 22 female R P Tra C S 1 1 24 importance C other moral 0.5742 O 0 unimportant
7330 22 female R P Tra C S 1 2 1 importance S other immoral 0.4632 P 1 unimportant
7330 22 female R P Tra C S 1 2 2 importance S other immoral 0.4044 P 1 unimportant
7330 22 female R P Tra C S 1 2 3 importance C other moral 0.3730 P 1 unimportant
7330 22 female R P Tra C S 1 2 4 importance P self moral 0.3106 P 0 important
7330 22 female R P Tra C S 1 2 5 importance C other moral 0.5144 P 1 unimportant
7330 22 female R P Tra C S 1 2 6 importance S other immoral 0.6599 P 1 unimportant
7330 22 female R P Tra C S 1 2 7 importance C other moral 0.4720 P 1 unimportant
7330 22 female R P Tra C S 1 2 8 importance P self moral 0.3015 O 1 important
7330 22 female R P Tra C S 1 2 9 importance P self moral 0.3011 O 1 important
7330 22 female R P Tra C S 1 2 10 importance P self moral 0.2998 O 1 important
7330 22 female R P Tra C S 1 2 11 importance Tra self immoral 0.6068 O 1 important
7330 22 female R P Tra C S 1 2 12 importance S other immoral 0.4044 P 1 unimportant
7330 22 female R P Tra C S 1 2 13 importance Tra self immoral 0.3622 P 0 important
7330 22 female R P Tra C S 1 2 14 importance Tra self immoral 0.3271 O 1 important
7330 22 female R P Tra C S 1 2 15 importance P self moral 0.3991 O 1 important
7330 22 female R P Tra C S 1 2 16 importance C other moral 0.3611 O 0 unimportant
7330 22 female R P Tra C S 1 2 17 importance Tra self immoral 0.4628 O 1 important
7330 22 female R P Tra C S 1 2 18 importance Tra self immoral 0.3509 O 1 important
7330 22 female R P Tra C S 1 2 19 importance S other immoral 1.0841 NA -1 unimportant
7330 22 female R P Tra C S 1 2 20 importance C other moral 0.3596 P 1 unimportant
7330 22 female R P Tra C S 1 2 21 importance Tra self immoral 0.4077 P 0 important
7330 22 female R P Tra C S 1 2 22 importance P self moral 0.3377 O 1 important
7330 22 female R P Tra C S 1 2 23 importance C other moral 0.4173 P 1 unimportant
7330 22 female R P Tra C S 1 2 24 importance S other immoral 0.5255 P 1 unimportant
7330 22 female R P Tra C S 1 3 1 importance C other moral 0.3779 P 1 unimportant
7330 22 female R P Tra C S 1 3 2 importance Tra self immoral 0.3747 O 1 important
7330 22 female R P Tra C S 1 3 3 importance S other immoral 0.3771 P 1 unimportant
7330 22 female R P Tra C S 1 3 4 importance P self moral 0.2620 O 1 important
7330 22 female R P Tra C S 1 3 5 importance P self moral 0.5882 O 1 important
7330 22 female R P Tra C S 1 3 6 importance Tra self immoral 0.5345 O 1 important
7330 22 female R P Tra C S 1 3 7 importance C other moral 0.2707 P 1 unimportant
7330 22 female R P Tra C S 1 3 8 importance S other immoral 0.1894 P 1 unimportant
7330 22 female R P Tra C S 1 3 9 importance S other immoral 0.2586 P 1 unimportant
7330 22 female R P Tra C S 1 3 10 importance C other moral 0.2163 P 1 unimportant
7330 22 female R P Tra C S 1 3 11 importance S other immoral 0.3215 P 1 unimportant
7330 22 female R P Tra C S 1 3 12 importance C other moral 0.2645 P 1 unimportant
7330 22 female R P Tra C S 1 3 13 importance P self moral 0.2199 P 0 important
7330 22 female R P Tra C S 1 3 14 importance Tra self immoral 0.5108 P 0 important
7330 22 female R P Tra C S 1 3 15 importance P self moral 0.2568 O 1 important
7330 22 female R P Tra C S 1 3 16 importance Tra self immoral 0.2151 O 1 important
7330 22 female R P Tra C S 1 3 17 importance C other moral 0.3276 P 1 unimportant
7330 22 female R P Tra C S 1 3 18 importance S other immoral 0.5169 P 1 unimportant
7330 22 female R P Tra C S 1 3 19 importance Tra self immoral 0.2403 O 1 important
7330 22 female R P Tra C S 1 3 20 importance P self moral 0.2313 O 1 important
7330 22 female R P Tra C S 1 3 21 importance C other moral 0.5717 P 1 unimportant
7330 22 female R P Tra C S 1 3 22 importance S other immoral 0.4828 P 1 unimportant
7330 22 female R P Tra C S 1 3 23 importance Tra self immoral 0.7182 O 1 important
7330 22 female R P Tra C S 1 3 24 importance P self moral 0.2411 O 1 important
7330 22 female R P Tra C S 1 4 1 importance S other immoral 0.7141 O 0 unimportant
7330 22 female R P Tra C S 1 4 2 importance C other moral 0.4338 P 1 unimportant
7330 22 female R P Tra C S 1 4 3 importance P self moral 0.3755 O 1 important
7330 22 female R P Tra C S 1 4 4 importance C other moral 0.4232 O 0 unimportant
7330 22 female R P Tra C S 1 4 5 importance Tra self immoral 0.3527 P 0 important
7330 22 female R P Tra C S 1 4 6 importance S other immoral 0.4473 P 1 unimportant
7330 22 female R P Tra C S 1 4 7 importance P self moral 0.4328 O 1 important
7330 22 female R P Tra C S 1 4 8 importance Tra self immoral 0.3817 O 1 important
7330 22 female R P Tra C S 1 4 9 importance P self moral 0.3907 O 1 important
7330 22 female R P Tra C S 1 4 10 importance C other moral 0.3380 P 1 unimportant
7330 22 female R P Tra C S 1 4 11 importance Tra self immoral 0.5442 O 1 important
7330 22 female R P Tra C S 1 4 12 importance S other immoral 0.6004 P 1 unimportant
7330 22 female R P Tra C S 1 4 13 importance P self moral 0.5257 O 1 important
7330 22 female R P Tra C S 1 4 14 importance P self moral 0.4626 O 1 important
7330 22 female R P Tra C S 1 4 15 importance S other immoral 0.5611 P 1 unimportant
7330 22 female R P Tra C S 1 4 16 importance C other moral 0.3674 P 1 unimportant
7330 22 female R P Tra C S 1 4 17 importance Tra self immoral 0.3368 O 1 important
7330 22 female R P Tra C S 1 4 18 importance C other moral 0.4005 P 1 unimportant
7330 22 female R P Tra C S 1 4 19 importance C other moral 0.5620 P 1 unimportant
7330 22 female R P Tra C S 1 4 20 importance Tra self immoral 0.5042 O 1 important
7330 22 female R P Tra C S 1 4 21 importance S other immoral 0.3823 P 1 unimportant
7330 22 female R P Tra C S 1 4 22 importance P self moral 0.4055 O 1 important
7330 22 female R P Tra C S 1 4 23 importance Tra self immoral 0.3557 O 1 important
7330 22 female R P Tra C S 1 4 24 importance S other immoral 0.3925 P 1 unimportant
7330 22 female R P Tra C S 1 5 1 importance P self moral 0.3898 O 1 important
7330 22 female R P Tra C S 1 5 2 importance P self moral 0.7248 O 1 important
7330 22 female R P Tra C S 1 5 3 importance P self moral 0.2760 P 0 important
7330 22 female R P Tra C S 1 5 4 importance P self moral 0.5693 O 1 important
7330 22 female R P Tra C S 1 5 5 importance S other immoral 0.3166 P 1 unimportant
7330 22 female R P Tra C S 1 5 6 importance Tra self immoral 0.4867 O 1 important
7330 22 female R P Tra C S 1 5 7 importance S other immoral 0.3649 P 1 unimportant
7330 22 female R P Tra C S 1 5 8 importance S other immoral 0.2567 P 1 unimportant
7330 22 female R P Tra C S 1 5 9 importance Tra self immoral 0.4893 O 1 important
7330 22 female R P Tra C S 1 5 10 importance Tra self immoral 0.4635 O 1 important
7330 22 female R P Tra C S 1 5 11 importance Tra self immoral 0.2946 O 1 important
7330 22 female R P Tra C S 1 5 12 importance P self moral 0.3672 O 1 important
7330 22 female R P Tra C S 1 5 13 importance S other immoral 0.2906 P 1 unimportant
7330 22 female R P Tra C S 1 5 14 importance C other moral 0.3622 P 1 unimportant
7330 22 female R P Tra C S 1 5 15 importance S other immoral 0.2573 P 1 unimportant
7330 22 female R P Tra C S 1 5 16 importance Tra self immoral 0.6993 P 0 important
7330 22 female R P Tra C S 1 5 17 importance S other immoral 0.3672 P 1 unimportant
7330 22 female R P Tra C S 1 5 18 importance Tra self immoral 0.3536 O 1 important
7330 22 female R P Tra C S 1 5 19 importance C other moral 0.4262 P 1 unimportant
7330 22 female R P Tra C S 1 5 20 importance P self moral 0.4917 O 1 important
7330 22 female R P Tra C S 1 5 21 importance C other moral 0.4320 P 1 unimportant
7330 22 female R P Tra C S 1 5 22 importance C other moral 0.8947 P 1 unimportant
7330 22 female R P Tra C S 1 5 23 importance C other moral 0.3004 P 1 unimportant
7330 22 female R P Tra C S 1 5 24 importance C other moral 0.2893 P 1 unimportant
7330 22 female R P Tra C S 1 6 1 importance P self moral 0.5143 O 1 important
7330 22 female R P Tra C S 1 6 2 importance C other moral 0.3675 O 0 unimportant
7330 22 female R P Tra C S 1 6 3 importance Tra self immoral 0.4552 P 0 important
7330 22 female R P Tra C S 1 6 4 importance C other moral 0.4750 O 0 unimportant
7330 22 female R P Tra C S 1 6 5 importance Tra self immoral 0.5387 P 0 important
7330 22 female R P Tra C S 1 6 6 importance C other moral 0.3233 O 0 unimportant
7330 22 female R P Tra C S 1 6 7 importance S other immoral 0.3623 P 1 unimportant
7330 22 female R P Tra C S 1 6 8 importance P self moral 0.5107 O 1 important
7330 22 female R P Tra C S 1 6 9 importance C other moral 0.3404 O 0 unimportant
7330 22 female R P Tra C S 1 6 10 importance S other immoral 0.6313 P 1 unimportant
7330 22 female R P Tra C S 1 6 11 importance S other immoral 0.2757 P 1 unimportant
7330 22 female R P Tra C S 1 6 12 importance C other moral 0.3995 P 1 unimportant
7330 22 female R P Tra C S 1 6 13 importance S other immoral 0.4580 P 1 unimportant
7330 22 female R P Tra C S 1 6 14 importance P self moral 0.5032 O 1 important
7330 22 female R P Tra C S 1 6 15 importance Tra self immoral 0.5608 O 1 important
7330 22 female R P Tra C S 1 6 16 importance P self moral 0.4493 O 1 important
7330 22 female R P Tra C S 1 6 17 importance Tra self immoral 0.4390 O 1 important
7330 22 female R P Tra C S 1 6 18 importance P self moral 0.4193 O 1 important
7330 22 female R P Tra C S 1 6 19 importance Tra self immoral 0.3616 O 1 important
7330 22 female R P Tra C S 1 6 20 importance S other immoral 0.4246 P 1 unimportant
7330 22 female R P Tra C S 1 6 21 importance S other immoral 0.3387 P 1 unimportant
7330 22 female R P Tra C S 1 6 22 importance Tra self immoral 0.5962 O 1 important
7330 22 female R P Tra C S 1 6 23 importance P self moral 0.4504 O 1 important
7330 22 female R P Tra C S 1 6 24 importance C other moral 0.5602 P 1 unimportant
SubjectID Age Gender Handness moralSelfShape immoralSelfShape moralOtherShape immoralOtherShape Block Bin Trial Task shapeName Identity Morality RT ResponseKey Accuracy trialType
7330 22 female R P Tra C S 2 1 1 self C other moral 0.5942 H 1 other
7330 22 female R P Tra C S 2 1 2 self C other moral 0.3727 H 1 other
7330 22 female R P Tra C S 2 1 3 self Tra self immoral 0.4462 J 1 self
7330 22 female R P Tra C S 2 1 4 self C other moral 0.3927 H 1 other
7330 22 female R P Tra C S 2 1 5 self C other moral 0.3890 H 1 other
7330 22 female R P Tra C S 2 1 6 self S other immoral 0.5143 J 0 other
7330 22 female R P Tra C S 2 1 7 self P self moral 0.4730 J 1 self
7330 22 female R P Tra C S 2 1 8 self C other moral 0.4137 H 1 other
7330 22 female R P Tra C S 2 1 9 self S other immoral 0.4910 H 1 other
7330 22 female R P Tra C S 2 1 10 self Tra self immoral 0.5985 J 1 self
7330 22 female R P Tra C S 2 1 11 self S other immoral 0.6169 H 1 other
7330 22 female R P Tra C S 2 1 12 self Tra self immoral 0.3963 J 1 self
7330 22 female R P Tra C S 2 1 13 self S other immoral 0.5121 H 1 other
7330 22 female R P Tra C S 2 1 14 self P self moral 0.3738 J 1 self
7330 22 female R P Tra C S 2 1 15 self C other moral 0.3598 H 1 other
7330 22 female R P Tra C S 2 1 16 self P self moral 0.3189 J 1 self
7330 22 female R P Tra C S 2 1 17 self P self moral 0.2979 J 1 self
7330 22 female R P Tra C S 2 1 18 self S other immoral 0.3045 H 1 other
7330 22 female R P Tra C S 2 1 19 self P self moral 0.6020 J 1 self
7330 22 female R P Tra C S 2 1 20 self Tra self immoral 0.5645 J 1 self
7330 22 female R P Tra C S 2 1 21 self S other immoral 0.3241 H 1 other
7330 22 female R P Tra C S 2 1 22 self Tra self immoral 0.3505 J 1 self
7330 22 female R P Tra C S 2 1 23 self Tra self immoral 0.4142 J 1 self
7330 22 female R P Tra C S 2 1 24 self P self moral 0.3781 H 0 self
7330 22 female R P Tra C S 2 2 1 self P self moral 0.2709 J 1 self
7330 22 female R P Tra C S 2 2 2 self S other immoral 0.3777 H 1 other
7330 22 female R P Tra C S 2 2 3 self S other immoral 0.6441 H 1 other
7330 22 female R P Tra C S 2 2 4 self Tra self immoral 0.4691 J 1 self
7330 22 female R P Tra C S 2 2 5 self P self moral 0.3356 J 1 self
7330 22 female R P Tra C S 2 2 6 self Tra self immoral 0.3716 J 1 self
7330 22 female R P Tra C S 2 2 7 self Tra self immoral 0.3209 J 1 self
7330 22 female R P Tra C S 2 2 8 self P self moral 0.3820 J 1 self
7330 22 female R P Tra C S 2 2 9 self P self moral 0.3007 J 1 self
7330 22 female R P Tra C S 2 2 10 self C other moral 0.4566 H 1 other
7330 22 female R P Tra C S 2 2 11 self S other immoral 0.6553 H 1 other
7330 22 female R P Tra C S 2 2 12 self Tra self immoral 0.4064 J 1 self
7330 22 female R P Tra C S 2 2 13 self C other moral 0.4084 H 1 other
7330 22 female R P Tra C S 2 2 14 self P self moral 0.5332 J 1 self
7330 22 female R P Tra C S 2 2 15 self S other immoral 0.4005 H 1 other
7330 22 female R P Tra C S 2 2 16 self S other immoral 0.3724 H 1 other
7330 22 female R P Tra C S 2 2 17 self C other moral 0.5697 H 1 other
7330 22 female R P Tra C S 2 2 18 self Tra self immoral 0.4762 J 1 self
7330 22 female R P Tra C S 2 2 19 self C other moral 0.4146 H 1 other
7330 22 female R P Tra C S 2 2 20 self P self moral 0.4933 J 1 self
7330 22 female R P Tra C S 2 2 21 self C other moral 0.4209 H 1 other
7330 22 female R P Tra C S 2 2 22 self S other immoral 0.4497 H 1 other
7330 22 female R P Tra C S 2 2 23 self C other moral 0.4112 H 1 other
7330 22 female R P Tra C S 2 2 24 self Tra self immoral 0.3822 J 1 self
7330 22 female R P Tra C S 2 3 1 self Tra self immoral 0.2627 J 1 self
7330 22 female R P Tra C S 2 3 2 self S other immoral 0.5249 H 1 other
7330 22 female R P Tra C S 2 3 3 self C other moral 0.3753 H 1 other
7330 22 female R P Tra C S 2 3 4 self P self moral 0.4691 J 1 self
7330 22 female R P Tra C S 2 3 5 self S other immoral 0.3609 H 1 other
7330 22 female R P Tra C S 2 3 6 self S other immoral 0.3916 H 1 other
7330 22 female R P Tra C S 2 3 7 self C other moral 0.3790 H 1 other
7330 22 female R P Tra C S 2 3 8 self P self moral 0.3476 J 1 self
7330 22 female R P Tra C S 2 3 9 self C other moral 0.5477 H 1 other
7330 22 female R P Tra C S 2 3 10 self P self moral 0.3962 J 1 self
7330 22 female R P Tra C S 2 3 11 self P self moral 0.3629 J 1 self
7330 22 female R P Tra C S 2 3 12 self Tra self immoral 0.5009 J 1 self
7330 22 female R P Tra C S 2 3 13 self Tra self immoral 0.3414 J 1 self
7330 22 female R P Tra C S 2 3 14 self S other immoral 0.3849 H 1 other
7330 22 female R P Tra C S 2 3 15 self Tra self immoral 0.3110 J 1 self
7330 22 female R P Tra C S 2 3 16 self P self moral 0.3939 J 1 self
7330 22 female R P Tra C S 2 3 17 self Tra self immoral 0.3155 J 1 self
7330 22 female R P Tra C S 2 3 18 self S other immoral 0.3937 H 1 other
7330 22 female R P Tra C S 2 3 19 self P self moral 0.3214 J 1 self
7330 22 female R P Tra C S 2 3 20 self C other moral 0.3651 H 1 other
7330 22 female R P Tra C S 2 3 21 self C other moral 0.3640 H 1 other
7330 22 female R P Tra C S 2 3 22 self C other moral 0.3978 H 1 other
7330 22 female R P Tra C S 2 3 23 self S other immoral 0.4482 H 1 other
7330 22 female R P Tra C S 2 3 24 self Tra self immoral 0.3528 J 1 self
7330 22 female R P Tra C S 2 4 1 self P self moral 0.6483 J 1 self
7330 22 female R P Tra C S 2 4 2 self C other moral 0.4027 H 1 other
7330 22 female R P Tra C S 2 4 3 self Tra self immoral 0.4838 J 1 self
7330 22 female R P Tra C S 2 4 4 self C other moral 0.5028 H 1 other
7330 22 female R P Tra C S 2 4 5 self P self moral 0.4120 J 1 self
7330 22 female R P Tra C S 2 4 6 self Tra self immoral 0.3862 J 1 self
7330 22 female R P Tra C S 2 4 7 self Tra self immoral 0.3510 J 1 self
7330 22 female R P Tra C S 2 4 8 self S other immoral 0.4175 H 1 other
7330 22 female R P Tra C S 2 4 9 self Tra self immoral 0.5719 J 1 self
7330 22 female R P Tra C S 2 4 10 self P self moral 0.4990 J 1 self
7330 22 female R P Tra C S 2 4 11 self P self moral 0.4332 J 1 self
7330 22 female R P Tra C S 2 4 12 self P self moral 0.3345 J 1 self
7330 22 female R P Tra C S 2 4 13 self S other immoral 0.3830 H 1 other
7330 22 female R P Tra C S 2 4 14 self S other immoral 0.2646 H 1 other
7330 22 female R P Tra C S 2 4 15 self C other moral 0.3583 J 0 other
7330 22 female R P Tra C S 2 4 16 self Tra self immoral 0.5217 J 1 self
7330 22 female R P Tra C S 2 4 17 self S other immoral 0.5374 H 1 other
7330 22 female R P Tra C S 2 4 18 self S other immoral 0.4273 H 1 other
7330 22 female R P Tra C S 2 4 19 self C other moral 0.4933 H 1 other
7330 22 female R P Tra C S 2 4 20 self C other moral 0.3884 H 1 other
7330 22 female R P Tra C S 2 4 21 self P self moral 0.3889 J 1 self
7330 22 female R P Tra C S 2 4 22 self Tra self immoral 0.2926 J 1 self
7330 22 female R P Tra C S 2 4 23 self C other moral 0.4499 H 1 other
7330 22 female R P Tra C S 2 4 24 self S other immoral 0.3718 H 1 other
7330 22 female R P Tra C S 2 5 1 self P self moral 0.5221 J 1 self
7330 22 female R P Tra C S 2 5 2 self P self moral 0.3330 J 1 self
7330 22 female R P Tra C S 2 5 3 self Tra self immoral 0.3364 J 1 self
7330 22 female R P Tra C S 2 5 4 self Tra self immoral 0.3242 J 1 self
7330 22 female R P Tra C S 2 5 5 self C other moral 0.3887 H 1 other
7330 22 female R P Tra C S 2 5 6 self C other moral 0.3357 H 1 other
7330 22 female R P Tra C S 2 5 7 self Tra self immoral 0.3635 J 1 self
7330 22 female R P Tra C S 2 5 8 self C other moral 0.3547 H 1 other
7330 22 female R P Tra C S 2 5 9 self C other moral 0.3948 H 1 other
7330 22 female R P Tra C S 2 5 10 self P self moral 0.4410 J 1 self
7330 22 female R P Tra C S 2 5 11 self S other immoral 0.3644 H 1 other
7330 22 female R P Tra C S 2 5 12 self S other immoral 0.3885 H 1 other
7330 22 female R P Tra C S 2 5 13 self Tra self immoral 0.3750 J 1 self
7330 22 female R P Tra C S 2 5 14 self S other immoral 0.4132 H 1 other
7330 22 female R P Tra C S 2 5 15 self S other immoral 0.5168 H 1 other
7330 22 female R P Tra C S 2 5 16 self C other moral 0.5409 H 1 other
7330 22 female R P Tra C S 2 5 17 self P self moral 0.5658 J 1 self
7330 22 female R P Tra C S 2 5 18 self P self moral 0.2912 J 1 self
7330 22 female R P Tra C S 2 5 19 self S other immoral 0.4207 H 1 other
7330 22 female R P Tra C S 2 5 20 self Tra self immoral 0.4918 J 1 self
7330 22 female R P Tra C S 2 5 21 self S other immoral 0.4995 H 1 other
7330 22 female R P Tra C S 2 5 22 self C other moral 0.5470 H 1 other
7330 22 female R P Tra C S 2 5 23 self Tra self immoral 0.5707 J 1 self
7330 22 female R P Tra C S 2 5 24 self P self moral 0.4437 J 1 self
7330 22 female R P Tra C S 2 6 1 self P self moral 0.8259 J 1 self
7330 22 female R P Tra C S 2 6 2 self C other moral 0.4500 H 1 other
7330 22 female R P Tra C S 2 6 3 self S other immoral 0.4924 J 0 other
7330 22 female R P Tra C S 2 6 4 self C other moral 0.3669 H 1 other
7330 22 female R P Tra C S 2 6 5 self Tra self immoral 0.6145 J 1 self
7330 22 female R P Tra C S 2 6 6 self C other moral 0.4527 H 1 other
7330 22 female R P Tra C S 2 6 7 self S other immoral 0.5991 H 1 other
7330 22 female R P Tra C S 2 6 8 self C other moral 0.4373 H 1 other
7330 22 female R P Tra C S 2 6 9 self S other immoral 0.3814 H 1 other
7330 22 female R P Tra C S 2 6 10 self P self moral 0.6206 J 1 self
7330 22 female R P Tra C S 2 6 11 self P self moral 0.6673 J 1 self
7330 22 female R P Tra C S 2 6 12 self P self moral 0.3262 J 1 self
7330 22 female R P Tra C S 2 6 13 self S other immoral 0.5253 H 1 other
7330 22 female R P Tra C S 2 6 14 self Tra self immoral 0.5644 J 1 self
7330 22 female R P Tra C S 2 6 15 self Tra self immoral 0.3717 J 1 self
7330 22 female R P Tra C S 2 6 16 self P self moral 0.3910 J 1 self
7330 22 female R P Tra C S 2 6 17 self C other moral 0.4066 H 1 other
7330 22 female R P Tra C S 2 6 18 self P self moral 0.4406 J 1 self
7330 22 female R P Tra C S 2 6 19 self Tra self immoral 0.4064 J 1 self
7330 22 female R P Tra C S 2 6 20 self S other immoral 0.4167 H 1 other
7330 22 female R P Tra C S 2 6 21 self Tra self immoral 0.5120 J 1 self
7330 22 female R P Tra C S 2 6 22 self Tra self immoral 0.3798 J 1 self
7330 22 female R P Tra C S 2 6 23 self C other moral 0.5229 H 1 other
7330 22 female R P Tra C S 2 6 24 self S other immoral 0.5677 J 0 other
SubjectID Age Gender Handness moralSelfShape immoralSelfShape moralOtherShape immoralOtherShape Block Bin Trial Task shapeName Identity Morality RT ResponseKey Accuracy trialType
7330 22 female R P Tra C S 3 1 1 moral C other moral 0.3604 Y 1 moral
7330 22 female R P Tra C S 3 1 2 moral Tra self immoral 0.4458 U 1 immoral
7330 22 female R P Tra C S 3 1 3 moral Tra self immoral 0.3103 U 1 immoral
7330 22 female R P Tra C S 3 1 4 moral P self moral 0.6916 U 0 moral
7330 22 female R P Tra C S 3 1 5 moral Tra self immoral 0.5373 U 1 immoral
7330 22 female R P Tra C S 3 1 6 moral Tra self immoral 0.3732 U 1 immoral
7330 22 female R P Tra C S 3 1 7 moral S other immoral 0.4523 Y 0 immoral
7330 22 female R P Tra C S 3 1 8 moral S other immoral 0.4909 U 1 immoral
7330 22 female R P Tra C S 3 1 9 moral Tra self immoral 0.6388 U 1 immoral
7330 22 female R P Tra C S 3 1 10 moral C other moral 0.5636 Y 1 moral
7330 22 female R P Tra C S 3 1 11 moral P self moral 0.3355 Y 1 moral
7330 22 female R P Tra C S 3 1 12 moral P self moral 0.3432 Y 1 moral
7330 22 female R P Tra C S 3 1 13 moral S other immoral 0.3710 U 1 immoral
7330 22 female R P Tra C S 3 1 14 moral S other immoral 0.3749 U 1 immoral
7330 22 female R P Tra C S 3 1 15 moral P self moral 0.4084 U 0 moral
7330 22 female R P Tra C S 3 1 16 moral C other moral 0.5318 Y 1 moral
7330 22 female R P Tra C S 3 1 17 moral S other immoral 0.4377 U 1 immoral
7330 22 female R P Tra C S 3 1 18 moral C other moral 0.3386 Y 1 moral
7330 22 female R P Tra C S 3 1 19 moral P self moral 0.4901 U 0 moral
7330 22 female R P Tra C S 3 1 20 moral Tra self immoral 0.4281 U 1 immoral
7330 22 female R P Tra C S 3 1 21 moral C other moral 0.4658 Y 1 moral
7330 22 female R P Tra C S 3 1 22 moral C other moral 0.4852 Y 1 moral
7330 22 female R P Tra C S 3 1 23 moral S other immoral 0.3916 U 1 immoral
7330 22 female R P Tra C S 3 1 24 moral P self moral 0.3945 Y 1 moral
7330 22 female R P Tra C S 3 2 1 moral Tra self immoral 0.4986 U 1 immoral
7330 22 female R P Tra C S 3 2 2 moral S other immoral 0.4065 U 1 immoral
7330 22 female R P Tra C S 3 2 3 moral P self moral 0.4927 Y 1 moral
7330 22 female R P Tra C S 3 2 4 moral S other immoral 0.4707 U 1 immoral
7330 22 female R P Tra C S 3 2 5 moral C other moral 0.5545 Y 1 moral
7330 22 female R P Tra C S 3 2 6 moral P self moral 0.6295 Y 1 moral
7330 22 female R P Tra C S 3 2 7 moral Tra self immoral 0.4988 U 1 immoral
7330 22 female R P Tra C S 3 2 8 moral Tra self immoral 0.3539 U 1 immoral
7330 22 female R P Tra C S 3 2 9 moral P self moral 0.7126 Y 1 moral
7330 22 female R P Tra C S 3 2 10 moral C other moral 0.3979 Y 1 moral
7330 22 female R P Tra C S 3 2 11 moral S other immoral 0.4374 U 1 immoral
7330 22 female R P Tra C S 3 2 12 moral S other immoral 0.4088 U 1 immoral
7330 22 female R P Tra C S 3 2 13 moral C other moral 0.3911 Y 1 moral
7330 22 female R P Tra C S 3 2 14 moral Tra self immoral 0.3737 U 1 immoral
7330 22 female R P Tra C S 3 2 15 moral P self moral 0.4557 Y 1 moral
7330 22 female R P Tra C S 3 2 16 moral S other immoral 0.3169 U 1 immoral
7330 22 female R P Tra C S 3 2 17 moral Tra self immoral 0.4714 U 1 immoral
7330 22 female R P Tra C S 3 2 18 moral C other moral 0.3529 Y 1 moral
7330 22 female R P Tra C S 3 2 19 moral Tra self immoral 0.4080 U 1 immoral
7330 22 female R P Tra C S 3 2 20 moral P self moral 0.2792 Y 1 moral
7330 22 female R P Tra C S 3 2 21 moral C other moral 0.3240 Y 1 moral
7330 22 female R P Tra C S 3 2 22 moral P self moral 0.3071 Y 1 moral
7330 22 female R P Tra C S 3 2 23 moral S other immoral 0.3548 U 1 immoral
7330 22 female R P Tra C S 3 2 24 moral C other moral 0.6598 Y 1 moral
7330 22 female R P Tra C S 3 3 1 moral S other immoral 0.3568 U 1 immoral
7330 22 female R P Tra C S 3 3 2 moral S other immoral 0.3630 U 1 immoral
7330 22 female R P Tra C S 3 3 3 moral P self moral 0.4135 Y 1 moral
7330 22 female R P Tra C S 3 3 4 moral P self moral 0.3674 Y 1 moral
7330 22 female R P Tra C S 3 3 5 moral C other moral 0.4339 Y 1 moral
7330 22 female R P Tra C S 3 3 6 moral S other immoral 0.3917 U 1 immoral
7330 22 female R P Tra C S 3 3 7 moral Tra self immoral 0.5776 U 1 immoral
7330 22 female R P Tra C S 3 3 8 moral P self moral 0.3594 Y 1 moral
7330 22 female R P Tra C S 3 3 9 moral C other moral 0.4347 Y 1 moral
7330 22 female R P Tra C S 3 3 10 moral C other moral 0.4038 Y 1 moral
7330 22 female R P Tra C S 3 3 11 moral C other moral 0.3384 Y 1 moral
7330 22 female R P Tra C S 3 3 12 moral Tra self immoral 0.5117 U 1 immoral
7330 22 female R P Tra C S 3 3 13 moral S other immoral 0.5362 U 1 immoral
7330 22 female R P Tra C S 3 3 14 moral C other moral 0.4201 Y 1 moral
7330 22 female R P Tra C S 3 3 15 moral Tra self immoral 0.4348 U 1 immoral
7330 22 female R P Tra C S 3 3 16 moral Tra self immoral 0.3347 U 1 immoral
7330 22 female R P Tra C S 3 3 17 moral C other moral 0.3649 Y 1 moral
7330 22 female R P Tra C S 3 3 18 moral S other immoral 0.3419 U 1 immoral
7330 22 female R P Tra C S 3 3 19 moral S other immoral 0.3664 U 1 immoral
7330 22 female R P Tra C S 3 3 20 moral P self moral 0.4079 Y 1 moral
7330 22 female R P Tra C S 3 3 21 moral P self moral 0.3158 Y 1 moral
7330 22 female R P Tra C S 3 3 22 moral Tra self immoral 0.4237 U 1 immoral
7330 22 female R P Tra C S 3 3 23 moral Tra self immoral 0.3414 U 1 immoral
7330 22 female R P Tra C S 3 3 24 moral P self moral 0.4173 Y 1 moral
7330 22 female R P Tra C S 3 4 1 moral Tra self immoral 0.5042 U 1 immoral
7330 22 female R P Tra C S 3 4 2 moral C other moral 0.3614 Y 1 moral
7330 22 female R P Tra C S 3 4 3 moral Tra self immoral 0.3049 U 1 immoral
7330 22 female R P Tra C S 3 4 4 moral S other immoral 0.4024 U 1 immoral
7330 22 female R P Tra C S 3 4 5 moral C other moral 0.3661 Y 1 moral
7330 22 female R P Tra C S 3 4 6 moral S other immoral 0.3579 U 1 immoral
7330 22 female R P Tra C S 3 4 7 moral P self moral 0.6173 Y 1 moral
7330 22 female R P Tra C S 3 4 8 moral P self moral 0.3449 Y 1 moral
7330 22 female R P Tra C S 3 4 9 moral C other moral 0.4001 U 0 moral
7330 22 female R P Tra C S 3 4 10 moral S other immoral 0.3865 U 1 immoral
7330 22 female R P Tra C S 3 4 11 moral S other immoral 0.4115 U 1 immoral
7330 22 female R P Tra C S 3 4 12 moral C other moral 0.3593 Y 1 moral
7330 22 female R P Tra C S 3 4 13 moral P self moral 0.5307 Y 1 moral
7330 22 female R P Tra C S 3 4 14 moral P self moral 0.3417 Y 1 moral
7330 22 female R P Tra C S 3 4 15 moral C other moral 0.4011 Y 1 moral
7330 22 female R P Tra C S 3 4 16 moral P self moral 0.3594 Y 1 moral
7330 22 female R P Tra C S 3 4 17 moral C other moral 0.4586 Y 1 moral
7330 22 female R P Tra C S 3 4 18 moral Tra self immoral 0.3956 U 1 immoral
7330 22 female R P Tra C S 3 4 19 moral Tra self immoral 0.3858 U 1 immoral
7330 22 female R P Tra C S 3 4 20 moral Tra self immoral 0.3959 U 1 immoral
7330 22 female R P Tra C S 3 4 21 moral Tra self immoral 0.2872 U 1 immoral
7330 22 female R P Tra C S 3 4 22 moral S other immoral 0.5100 U 1 immoral
7330 22 female R P Tra C S 3 4 23 moral S other immoral 0.3346 U 1 immoral
7330 22 female R P Tra C S 3 4 24 moral P self moral 0.5642 Y 1 moral
7330 22 female R P Tra C S 3 5 1 moral P self moral 0.3568 Y 1 moral
7330 22 female R P Tra C S 3 5 2 moral P self moral 0.3282 Y 1 moral
7330 22 female R P Tra C S 3 5 3 moral P self moral 0.3853 Y 1 moral
7330 22 female R P Tra C S 3 5 4 moral S other immoral 0.4799 U 1 immoral
7330 22 female R P Tra C S 3 5 5 moral P self moral 0.4758 Y 1 moral
7330 22 female R P Tra C S 3 5 6 moral Tra self immoral 0.4946 U 1 immoral
7330 22 female R P Tra C S 3 5 7 moral C other moral 0.4452 Y 1 moral
7330 22 female R P Tra C S 3 5 8 moral Tra self immoral 0.4633 U 1 immoral
7330 22 female R P Tra C S 3 5 9 moral P self moral 0.4464 Y 1 moral
7330 22 female R P Tra C S 3 5 10 moral C other moral 0.3227 Y 1 moral
7330 22 female R P Tra C S 3 5 11 moral Tra self immoral 0.4527 U 1 immoral
7330 22 female R P Tra C S 3 5 12 moral S other immoral 0.4589 U 1 immoral
7330 22 female R P Tra C S 3 5 13 moral P self moral 0.4430 Y 1 moral
7330 22 female R P Tra C S 3 5 14 moral Tra self immoral 0.4694 U 1 immoral
7330 22 female R P Tra C S 3 5 15 moral S other immoral 0.5288 U 1 immoral
7330 22 female R P Tra C S 3 5 16 moral Tra self immoral 0.3627 U 1 immoral
7330 22 female R P Tra C S 3 5 17 moral S other immoral 0.4160 U 1 immoral
7330 22 female R P Tra C S 3 5 18 moral Tra self immoral 0.3856 U 1 immoral
7330 22 female R P Tra C S 3 5 19 moral C other moral 0.4072 Y 1 moral
7330 22 female R P Tra C S 3 5 20 moral S other immoral 0.4097 U 1 immoral
7330 22 female R P Tra C S 3 5 21 moral C other moral 0.5082 Y 1 moral
7330 22 female R P Tra C S 3 5 22 moral C other moral 0.3826 Y 1 moral
7330 22 female R P Tra C S 3 5 23 moral C other moral 0.4651 Y 1 moral
7330 22 female R P Tra C S 3 5 24 moral S other immoral 0.4759 U 1 immoral
7330 22 female R P Tra C S 3 6 1 moral C other moral 0.4718 Y 1 moral
7330 22 female R P Tra C S 3 6 2 moral Tra self immoral 0.6221 U 1 immoral
7330 22 female R P Tra C S 3 6 3 moral S other immoral 0.3901 U 1 immoral
7330 22 female R P Tra C S 3 6 4 moral Tra self immoral 0.3252 U 1 immoral
7330 22 female R P Tra C S 3 6 5 moral C other moral 0.3832 Y 1 moral
7330 22 female R P Tra C S 3 6 6 moral S other immoral 0.3462 U 1 immoral
7330 22 female R P Tra C S 3 6 7 moral C other moral 0.4696 Y 1 moral
7330 22 female R P Tra C S 3 6 8 moral Tra self immoral 0.5552 U 1 immoral
7330 22 female R P Tra C S 3 6 9 moral C other moral 0.4273 Y 1 moral
7330 22 female R P Tra C S 3 6 10 moral P self moral 0.5738 Y 1 moral
7330 22 female R P Tra C S 3 6 11 moral C other moral 0.5173 Y 1 moral
7330 22 female R P Tra C S 3 6 12 moral P self moral 0.5245 Y 1 moral
7330 22 female R P Tra C S 3 6 13 moral S other immoral 0.5152 U 1 immoral
7330 22 female R P Tra C S 3 6 14 moral S other immoral 0.2856 U 1 immoral
7330 22 female R P Tra C S 3 6 15 moral Tra self immoral 0.5041 U 1 immoral
7330 22 female R P Tra C S 3 6 16 moral P self moral 0.6049 Y 1 moral
7330 22 female R P Tra C S 3 6 17 moral S other immoral 0.5688 U 1 immoral
7330 22 female R P Tra C S 3 6 18 moral C other moral 0.5416 Y 1 moral
7330 22 female R P Tra C S 3 6 19 moral P self moral 0.4249 Y 1 moral
7330 22 female R P Tra C S 3 6 20 moral S other immoral 0.6537 U 1 immoral
7330 22 female R P Tra C S 3 6 21 moral Tra self immoral 0.4929 U 1 immoral
7330 22 female R P Tra C S 3 6 22 moral P self moral 0.5090 Y 1 moral
7330 22 female R P Tra C S 3 6 23 moral Tra self immoral 0.5119 U 1 immoral
7330 22 female R P Tra C S 3 6 24 moral P self moral 0.4757 Y 1 moral
SubjectID Age Gender Handness moralSelfShape immoralSelfShape moralOtherShape immoralOtherShape Block Bin Trial Task shapeName Identity Morality RT ResponseKey Accuracy trialType
7330 22 female R P Tra C S 4 1 1 self C other moral 0.6130 H 1 other
7330 22 female R P Tra C S 4 1 2 self Tra self immoral 0.3750 J 1 self
7330 22 female R P Tra C S 4 1 3 self S other immoral 0.3911 H 1 other
7330 22 female R P Tra C S 4 1 4 self Tra self immoral 0.3770 J 1 self
7330 22 female R P Tra C S 4 1 5 self S other immoral 0.4483 H 1 other
7330 22 female R P Tra C S 4 1 6 self S other immoral 0.4224 H 1 other
7330 22 female R P Tra C S 4 1 7 self Tra self immoral 0.3850 J 1 self
7330 22 female R P Tra C S 4 1 8 self P self moral 0.4984 J 1 self
7330 22 female R P Tra C S 4 1 9 self Tra self immoral 0.4326 J 1 self
7330 22 female R P Tra C S 4 1 10 self Tra self immoral 0.3442 J 1 self
7330 22 female R P Tra C S 4 1 11 self Tra self immoral 0.3371 J 1 self
7330 22 female R P Tra C S 4 1 12 self C other moral 0.4347 H 1 other
7330 22 female R P Tra C S 4 1 13 self P self moral 0.4202 J 1 self
7330 22 female R P Tra C S 4 1 14 self P self moral 0.3663 J 1 self
7330 22 female R P Tra C S 4 1 15 self P self moral 0.4204 J 1 self
7330 22 female R P Tra C S 4 1 16 self P self moral 0.3481 J 1 self
7330 22 female R P Tra C S 4 1 17 self C other moral 0.3637 H 1 other
7330 22 female R P Tra C S 4 1 18 self S other immoral 0.3821 J 0 other
7330 22 female R P Tra C S 4 1 19 self S other immoral 0.4110 H 1 other
7330 22 female R P Tra C S 4 1 20 self C other moral 0.5272 J 0 other
7330 22 female R P Tra C S 4 1 21 self P self moral 0.4192 J 1 self
7330 22 female R P Tra C S 4 1 22 self C other moral 0.4268 H 1 other
7330 22 female R P Tra C S 4 1 23 self C other moral 0.5256 H 1 other
7330 22 female R P Tra C S 4 1 24 self S other immoral 0.5008 H 1 other
7330 22 female R P Tra C S 4 2 1 self S other immoral 0.4199 H 1 other
7330 22 female R P Tra C S 4 2 2 self P self moral 0.3914 J 1 self
7330 22 female R P Tra C S 4 2 3 self C other moral 0.4686 H 1 other
7330 22 female R P Tra C S 4 2 4 self S other immoral 0.4236 H 1 other
7330 22 female R P Tra C S 4 2 5 self Tra self immoral 0.4998 J 1 self
7330 22 female R P Tra C S 4 2 6 self Tra self immoral 0.3748 J 1 self
7330 22 female R P Tra C S 4 2 7 self S other immoral 0.5268 H 1 other
7330 22 female R P Tra C S 4 2 8 self Tra self immoral 0.4248 J 1 self
7330 22 female R P Tra C S 4 2 9 self P self moral 0.3647 J 1 self
7330 22 female R P Tra C S 4 2 10 self P self moral 0.4306 J 1 self
7330 22 female R P Tra C S 4 2 11 self P self moral 0.3512 J 1 self
7330 22 female R P Tra C S 4 2 12 self Tra self immoral 0.3221 J 1 self
7330 22 female R P Tra C S 4 2 13 self C other moral 1.0841 NA -1 other
7330 22 female R P Tra C S 4 2 14 self S other immoral 0.3105 H 1 other
7330 22 female R P Tra C S 4 2 15 self C other moral 0.4537 H 1 other
7330 22 female R P Tra C S 4 2 16 self C other moral 0.4961 H 1 other
7330 22 female R P Tra C S 4 2 17 self P self moral 0.4002 J 1 self
7330 22 female R P Tra C S 4 2 18 self C other moral 0.3678 H 1 other
7330 22 female R P Tra C S 4 2 19 self S other immoral 0.5515 H 1 other
7330 22 female R P Tra C S 4 2 20 self Tra self immoral 0.4330 J 1 self
7330 22 female R P Tra C S 4 2 21 self S other immoral 0.4256 H 1 other
7330 22 female R P Tra C S 4 2 22 self P self moral 0.4007 J 1 self
7330 22 female R P Tra C S 4 2 23 self C other moral 0.4093 H 1 other
7330 22 female R P Tra C S 4 2 24 self Tra self immoral 0.3448 J 1 self
7330 22 female R P Tra C S 4 3 1 self C other moral 0.4202 H 1 other
7330 22 female R P Tra C S 4 3 2 self Tra self immoral 0.3083 J 1 self
7330 22 female R P Tra C S 4 3 3 self Tra self immoral 0.3485 J 1 self
7330 22 female R P Tra C S 4 3 4 self Tra self immoral 0.3029 J 1 self
7330 22 female R P Tra C S 4 3 5 self S other immoral 0.4173 H 1 other
7330 22 female R P Tra C S 4 3 6 self C other moral 0.5204 H 1 other
7330 22 female R P Tra C S 4 3 7 self C other moral 0.3945 H 1 other
7330 22 female R P Tra C S 4 3 8 self P self moral 0.4336 J 1 self
7330 22 female R P Tra C S 4 3 9 self S other immoral 0.5442 H 1 other
7330 22 female R P Tra C S 4 3 10 self P self moral 0.3707 J 1 self
7330 22 female R P Tra C S 4 3 11 self P self moral 0.2983 J 1 self
7330 22 female R P Tra C S 4 3 12 self S other immoral 0.4923 H 1 other
7330 22 female R P Tra C S 4 3 13 self Tra self immoral 0.5093 J 1 self
7330 22 female R P Tra C S 4 3 14 self Tra self immoral 0.3881 J 1 self
7330 22 female R P Tra C S 4 3 15 self Tra self immoral 0.3664 J 1 self
7330 22 female R P Tra C S 4 3 16 self S other immoral 0.4065 H 1 other
7330 22 female R P Tra C S 4 3 17 self S other immoral 0.4692 H 1 other
7330 22 female R P Tra C S 4 3 18 self C other moral 0.5489 H 1 other
7330 22 female R P Tra C S 4 3 19 self P self moral 0.4549 J 1 self
7330 22 female R P Tra C S 4 3 20 self C other moral 0.4893 H 1 other
7330 22 female R P Tra C S 4 3 21 self S other immoral 0.4385 H 1 other
7330 22 female R P Tra C S 4 3 22 self C other moral 0.4932 H 1 other
7330 22 female R P Tra C S 4 3 23 self P self moral 0.4067 J 1 self
7330 22 female R P Tra C S 4 3 24 self P self moral 0.4859 J 1 self
7330 22 female R P Tra C S 4 4 1 self S other immoral 0.6131 H 1 other
7330 22 female R P Tra C S 4 4 2 self S other immoral 0.3342 H 1 other
7330 22 female R P Tra C S 4 4 3 self P self moral 0.4219 J 1 self
7330 22 female R P Tra C S 4 4 4 self S other immoral 0.4803 H 1 other
7330 22 female R P Tra C S 4 4 5 self C other moral 1.0841 NA -1 other
7330 22 female R P Tra C S 4 4 6 self C other moral 0.4579 H 1 other
7330 22 female R P Tra C S 4 4 7 self P self moral 0.3582 J 1 self
7330 22 female R P Tra C S 4 4 8 self P self moral 0.3681 J 1 self
7330 22 female R P Tra C S 4 4 9 self Tra self immoral 0.5170 J 1 self
7330 22 female R P Tra C S 4 4 10 self Tra self immoral 0.3745 J 1 self
7330 22 female R P Tra C S 4 4 11 self C other moral 0.4419 H 1 other
7330 22 female R P Tra C S 4 4 12 self P self moral 0.3370 H 0 self
7330 22 female R P Tra C S 4 4 13 self C other moral 0.4087 H 1 other
7330 22 female R P Tra C S 4 4 14 self C other moral 0.4473 H 1 other
7330 22 female R P Tra C S 4 4 15 self S other immoral 0.6314 H 1 other
7330 22 female R P Tra C S 4 4 16 self Tra self immoral 0.4611 J 1 self
7330 22 female R P Tra C S 4 4 17 self S other immoral 0.4364 H 1 other
7330 22 female R P Tra C S 4 4 18 self P self moral 0.4581 J 1 self
7330 22 female R P Tra C S 4 4 19 self C other moral 0.3791 H 1 other
7330 22 female R P Tra C S 4 4 20 self P self moral 0.3387 J 1 self
7330 22 female R P Tra C S 4 4 21 self S other immoral 0.3731 H 1 other
7330 22 female R P Tra C S 4 4 22 self Tra self immoral 0.5069 J 1 self
7330 22 female R P Tra C S 4 4 23 self Tra self immoral 0.3918 J 1 self
7330 22 female R P Tra C S 4 4 24 self Tra self immoral 0.3640 J 1 self
7330 22 female R P Tra C S 4 5 1 self Tra self immoral 0.3613 J 1 self
7330 22 female R P Tra C S 4 5 2 self Tra self immoral 0.3322 J 1 self
7330 22 female R P Tra C S 4 5 3 self S other immoral 0.4156 H 1 other
7330 22 female R P Tra C S 4 5 4 self C other moral 0.4524 H 1 other
7330 22 female R P Tra C S 4 5 5 self P self moral 0.3922 J 1 self
7330 22 female R P Tra C S 4 5 6 self P self moral 0.3386 J 1 self
7330 22 female R P Tra C S 4 5 7 self Tra self immoral 0.4479 H 0 self
7330 22 female R P Tra C S 4 5 8 self C other moral 0.3915 H 1 other
7330 22 female R P Tra C S 4 5 9 self P self moral 0.4292 J 1 self
7330 22 female R P Tra C S 4 5 10 self C other moral 0.4863 H 1 other
7330 22 female R P Tra C S 4 5 11 self S other immoral 0.5415 H 1 other
7330 22 female R P Tra C S 4 5 12 self Tra self immoral 0.4126 J 1 self
7330 22 female R P Tra C S 4 5 13 self S other immoral 0.4560 H 1 other
7330 22 female R P Tra C S 4 5 14 self P self moral 0.3652 J 1 self
7330 22 female R P Tra C S 4 5 15 self P self moral 0.3842 J 1 self
7330 22 female R P Tra C S 4 5 16 self C other moral 0.4190 H 1 other
7330 22 female R P Tra C S 4 5 17 self S other immoral 0.6271 J 0 other
7330 22 female R P Tra C S 4 5 18 self C other moral 0.5431 H 1 other
7330 22 female R P Tra C S 4 5 19 self Tra self immoral 0.5521 J 1 self
7330 22 female R P Tra C S 4 5 20 self Tra self immoral 0.3742 J 1 self
7330 22 female R P Tra C S 4 5 21 self P self moral 0.4416 J 1 self
7330 22 female R P Tra C S 4 5 22 self C other moral 0.5038 H 1 other
7330 22 female R P Tra C S 4 5 23 self S other immoral 0.3901 H 1 other
7330 22 female R P Tra C S 4 5 24 self S other immoral 0.6555 H 1 other
7330 22 female R P Tra C S 4 6 1 self P self moral 0.4819 J 1 self
7330 22 female R P Tra C S 4 6 2 self S other immoral 0.6322 H 1 other
7330 22 female R P Tra C S 4 6 3 self S other immoral 0.6078 H 1 other
7330 22 female R P Tra C S 4 6 4 self C other moral 0.7594 H 1 other
7330 22 female R P Tra C S 4 6 5 self C other moral 0.4946 H 1 other
7330 22 female R P Tra C S 4 6 6 self Tra self immoral 0.4292 J 1 self
7330 22 female R P Tra C S 4 6 7 self S other immoral 0.3978 H 1 other
7330 22 female R P Tra C S 4 6 8 self Tra self immoral 0.4666 J 1 self
7330 22 female R P Tra C S 4 6 9 self P self moral 0.4201 J 1 self
7330 22 female R P Tra C S 4 6 10 self C other moral 0.4918 H 1 other
7330 22 female R P Tra C S 4 6 11 self S other immoral 0.8179 H 1 other
7330 22 female R P Tra C S 4 6 12 self P self moral 0.4826 J 1 self
7330 22 female R P Tra C S 4 6 13 self S other immoral 0.5160 H 1 other
7330 22 female R P Tra C S 4 6 14 self C other moral 0.5590 H 1 other
7330 22 female R P Tra C S 4 6 15 self C other moral 0.8763 H 1 other
7330 22 female R P Tra C S 4 6 16 self Tra self immoral 0.6302 J 1 self
7330 22 female R P Tra C S 4 6 17 self Tra self immoral 0.4176 J 1 self
7330 22 female R P Tra C S 4 6 18 self P self moral 0.3941 J 1 self
7330 22 female R P Tra C S 4 6 19 self Tra self immoral 0.3976 J 1 self
7330 22 female R P Tra C S 4 6 20 self S other immoral 0.4612 H 1 other
7330 22 female R P Tra C S 4 6 21 self P self moral 0.5257 J 1 self
7330 22 female R P Tra C S 4 6 22 self Tra self immoral 0.4462 J 1 self
7330 22 female R P Tra C S 4 6 23 self P self moral 0.4097 J 1 self
7330 22 female R P Tra C S 4 6 24 self C other moral 0.6403 H 1 other
SubjectID Age Gender Handness moralSelfShape immoralSelfShape moralOtherShape immoralOtherShape Block Bin Trial Task shapeName Identity Morality RT ResponseKey Accuracy trialType
7330 22 female R P Tra C S 5 1 1 moral P self moral 0.4518 U 0 moral
7330 22 female R P Tra C S 5 1 2 moral S other immoral 0.4260 U 1 immoral
7330 22 female R P Tra C S 5 1 3 moral Tra self immoral 0.5447 U 1 immoral
7330 22 female R P Tra C S 5 1 4 moral S other immoral 0.5886 U 1 immoral
7330 22 female R P Tra C S 5 1 5 moral Tra self immoral 0.3722 U 1 immoral
7330 22 female R P Tra C S 5 1 6 moral P self moral 0.4974 Y 1 moral
7330 22 female R P Tra C S 5 1 7 moral S other immoral 0.4368 U 1 immoral
7330 22 female R P Tra C S 5 1 8 moral Tra self immoral 0.4854 U 1 immoral
7330 22 female R P Tra C S 5 1 9 moral C other moral 0.3886 Y 1 moral
7330 22 female R P Tra C S 5 1 10 moral C other moral 0.3260 Y 1 moral
7330 22 female R P Tra C S 5 1 11 moral S other immoral 0.5289 U 1 immoral
7330 22 female R P Tra C S 5 1 12 moral C other moral 0.6076 Y 1 moral
7330 22 female R P Tra C S 5 1 13 moral P self moral 0.4675 Y 1 moral
7330 22 female R P Tra C S 5 1 14 moral Tra self immoral 0.5048 U 1 immoral
7330 22 female R P Tra C S 5 1 15 moral P self moral 0.3778 Y 1 moral
7330 22 female R P Tra C S 5 1 16 moral C other moral 0.3995 Y 1 moral
7330 22 female R P Tra C S 5 1 17 moral C other moral 0.3944 Y 1 moral
7330 22 female R P Tra C S 5 1 18 moral P self moral 0.4248 Y 1 moral
7330 22 female R P Tra C S 5 1 19 moral Tra self immoral 0.5128 U 1 immoral
7330 22 female R P Tra C S 5 1 20 moral Tra self immoral 0.4272 U 1 immoral
7330 22 female R P Tra C S 5 1 21 moral C other moral 0.4161 Y 1 moral
7330 22 female R P Tra C S 5 1 22 moral P self moral 0.4312 Y 1 moral
7330 22 female R P Tra C S 5 1 23 moral S other immoral 0.5682 U 1 immoral
7330 22 female R P Tra C S 5 1 24 moral S other immoral 0.3692 U 1 immoral
7330 22 female R P Tra C S 5 2 1 moral Tra self immoral 0.4230 U 1 immoral
7330 22 female R P Tra C S 5 2 2 moral S other immoral 0.4898 U 1 immoral
7330 22 female R P Tra C S 5 2 3 moral Tra self immoral 0.4707 U 1 immoral
7330 22 female R P Tra C S 5 2 4 moral P self moral 0.4171 Y 1 moral
7330 22 female R P Tra C S 5 2 5 moral S other immoral 0.3890 U 1 immoral
7330 22 female R P Tra C S 5 2 6 moral C other moral 0.4036 Y 1 moral
7330 22 female R P Tra C S 5 2 7 moral S other immoral 0.5143 U 1 immoral
7330 22 female R P Tra C S 5 2 8 moral P self moral 0.4608 Y 1 moral
7330 22 female R P Tra C S 5 2 9 moral Tra self immoral 0.4063 Y 0 immoral
7330 22 female R P Tra C S 5 2 10 moral P self moral 0.4610 Y 1 moral
7330 22 female R P Tra C S 5 2 11 moral Tra self immoral 0.4756 U 1 immoral
7330 22 female R P Tra C S 5 2 12 moral S other immoral 0.4904 U 1 immoral
7330 22 female R P Tra C S 5 2 13 moral C other moral 0.4293 Y 1 moral
7330 22 female R P Tra C S 5 2 14 moral Tra self immoral 0.5282 U 1 immoral
7330 22 female R P Tra C S 5 2 15 moral P self moral 0.4364 Y 1 moral
7330 22 female R P Tra C S 5 2 16 moral C other moral 0.3915 Y 1 moral
7330 22 female R P Tra C S 5 2 17 moral P self moral 0.3741 Y 1 moral
7330 22 female R P Tra C S 5 2 18 moral S other immoral 0.4329 U 1 immoral
7330 22 female R P Tra C S 5 2 19 moral C other moral 0.3173 Y 1 moral
7330 22 female R P Tra C S 5 2 20 moral C other moral 0.3799 Y 1 moral
7330 22 female R P Tra C S 5 2 21 moral C other moral 0.3410 Y 1 moral
7330 22 female R P Tra C S 5 2 22 moral Tra self immoral 0.4355 U 1 immoral
7330 22 female R P Tra C S 5 2 23 moral P self moral 0.4230 Y 1 moral
7330 22 female R P Tra C S 5 2 24 moral S other immoral 0.4425 U 1 immoral
7330 22 female R P Tra C S 5 3 1 moral Tra self immoral 0.3724 U 1 immoral
7330 22 female R P Tra C S 5 3 2 moral C other moral 0.4003 Y 1 moral
7330 22 female R P Tra C S 5 3 3 moral S other immoral 0.4969 U 1 immoral
7330 22 female R P Tra C S 5 3 4 moral C other moral 0.4334 Y 1 moral
7330 22 female R P Tra C S 5 3 5 moral Tra self immoral 0.4437 U 1 immoral
7330 22 female R P Tra C S 5 3 6 moral Tra self immoral 0.4552 U 1 immoral
7330 22 female R P Tra C S 5 3 7 moral P self moral 0.4407 Y 1 moral
7330 22 female R P Tra C S 5 3 8 moral C other moral 0.5411 Y 1 moral
7330 22 female R P Tra C S 5 3 9 moral S other immoral 0.3976 U 1 immoral
7330 22 female R P Tra C S 5 3 10 moral S other immoral 0.3962 U 1 immoral
7330 22 female R P Tra C S 5 3 11 moral C other moral 0.3992 Y 1 moral
7330 22 female R P Tra C S 5 3 12 moral Tra self immoral 0.4308 U 1 immoral
7330 22 female R P Tra C S 5 3 13 moral P self moral 0.3650 Y 1 moral
7330 22 female R P Tra C S 5 3 14 moral P self moral 0.3755 Y 1 moral
7330 22 female R P Tra C S 5 3 15 moral C other moral 0.4019 Y 1 moral
7330 22 female R P Tra C S 5 3 16 moral P self moral 0.4523 Y 1 moral
7330 22 female R P Tra C S 5 3 17 moral Tra self immoral 0.3917 U 1 immoral
7330 22 female R P Tra C S 5 3 18 moral P self moral 0.3631 Y 1 moral
7330 22 female R P Tra C S 5 3 19 moral Tra self immoral 0.4004 U 1 immoral
7330 22 female R P Tra C S 5 3 20 moral S other immoral 0.4823 U 1 immoral
7330 22 female R P Tra C S 5 3 21 moral C other moral 0.4265 Y 1 moral
7330 22 female R P Tra C S 5 3 22 moral S other immoral 0.4604 U 1 immoral
7330 22 female R P Tra C S 5 3 23 moral P self moral 0.3504 Y 1 moral
7330 22 female R P Tra C S 5 3 24 moral S other immoral 0.4808 U 1 immoral
7330 22 female R P Tra C S 5 4 1 moral Tra self immoral 0.5334 U 1 immoral
7330 22 female R P Tra C S 5 4 2 moral Tra self immoral 0.4347 U 1 immoral
7330 22 female R P Tra C S 5 4 3 moral S other immoral 0.5034 U 1 immoral
7330 22 female R P Tra C S 5 4 4 moral Tra self immoral 0.3712 U 1 immoral
7330 22 female R P Tra C S 5 4 5 moral P self moral 0.4175 Y 1 moral
7330 22 female R P Tra C S 5 4 6 moral S other immoral 0.3883 U 1 immoral
7330 22 female R P Tra C S 5 4 7 moral S other immoral 0.2746 U 1 immoral
7330 22 female R P Tra C S 5 4 8 moral P self moral 0.4615 Y 1 moral
7330 22 female R P Tra C S 5 4 9 moral C other moral 0.3943 Y 1 moral
7330 22 female R P Tra C S 5 4 10 moral P self moral 0.4038 Y 1 moral
7330 22 female R P Tra C S 5 4 11 moral Tra self immoral 0.4566 U 1 immoral
7330 22 female R P Tra C S 5 4 12 moral C other moral 0.3601 Y 1 moral
7330 22 female R P Tra C S 5 4 13 moral Tra self immoral 0.5061 U 1 immoral
7330 22 female R P Tra C S 5 4 14 moral Tra self immoral 0.4031 U 1 immoral
7330 22 female R P Tra C S 5 4 15 moral S other immoral 0.5712 U 1 immoral
7330 22 female R P Tra C S 5 4 16 moral P self moral 0.4919 Y 1 moral
7330 22 female R P Tra C S 5 4 17 moral C other moral 0.4463 Y 1 moral
7330 22 female R P Tra C S 5 4 18 moral P self moral 0.3645 Y 1 moral
7330 22 female R P Tra C S 5 4 19 moral C other moral 0.4563 Y 1 moral
7330 22 female R P Tra C S 5 4 20 moral C other moral 0.4602 Y 1 moral
7330 22 female R P Tra C S 5 4 21 moral C other moral 0.4523 Y 1 moral
7330 22 female R P Tra C S 5 4 22 moral P self moral 0.3931 Y 1 moral
7330 22 female R P Tra C S 5 4 23 moral S other immoral 0.5687 U 1 immoral
7330 22 female R P Tra C S 5 4 24 moral S other immoral 0.2761 U 1 immoral
7330 22 female R P Tra C S 5 5 1 moral Tra self immoral 0.4371 U 1 immoral
7330 22 female R P Tra C S 5 5 2 moral P self moral 0.5247 Y 1 moral
7330 22 female R P Tra C S 5 5 3 moral P self moral 0.4363 Y 1 moral
7330 22 female R P Tra C S 5 5 4 moral C other moral 0.5466 Y 1 moral
7330 22 female R P Tra C S 5 5 5 moral P self moral 0.5062 Y 1 moral
7330 22 female R P Tra C S 5 5 6 moral S other immoral 0.4347 U 1 immoral
7330 22 female R P Tra C S 5 5 7 moral C other moral 0.6485 Y 1 moral
7330 22 female R P Tra C S 5 5 8 moral P self moral 0.5832 Y 1 moral
7330 22 female R P Tra C S 5 5 9 moral Tra self immoral 0.4383 U 1 immoral
7330 22 female R P Tra C S 5 5 10 moral C other moral 0.3965 Y 1 moral
7330 22 female R P Tra C S 5 5 11 moral S other immoral 0.5641 U 1 immoral
7330 22 female R P Tra C S 5 5 12 moral P self moral 0.5469 Y 1 moral
7330 22 female R P Tra C S 5 5 13 moral P self moral 0.4062 Y 1 moral
7330 22 female R P Tra C S 5 5 14 moral Tra self immoral 0.3809 U 1 immoral
7330 22 female R P Tra C S 5 5 15 moral C other moral 0.4374 Y 1 moral
7330 22 female R P Tra C S 5 5 16 moral Tra self immoral 0.4483 U 1 immoral
7330 22 female R P Tra C S 5 5 17 moral S other immoral 0.4235 U 1 immoral
7330 22 female R P Tra C S 5 5 18 moral Tra self immoral 0.4739 U 1 immoral
7330 22 female R P Tra C S 5 5 19 moral S other immoral 0.3988 U 1 immoral
7330 22 female R P Tra C S 5 5 20 moral C other moral 0.4906 Y 1 moral
7330 22 female R P Tra C S 5 5 21 moral S other immoral 0.4667 U 1 immoral
7330 22 female R P Tra C S 5 5 22 moral C other moral 0.4672 Y 1 moral
7330 22 female R P Tra C S 5 5 23 moral Tra self immoral 0.5427 U 1 immoral
7330 22 female R P Tra C S 5 5 24 moral S other immoral 0.3860 U 1 immoral
7330 22 female R P Tra C S 5 6 1 moral S other immoral 0.3762 U 1 immoral
7330 22 female R P Tra C S 5 6 2 moral S other immoral 0.3100 U 1 immoral
7330 22 female R P Tra C S 5 6 3 moral S other immoral 0.3246 U 1 immoral
7330 22 female R P Tra C S 5 6 4 moral P self moral 0.4974 Y 1 moral
7330 22 female R P Tra C S 5 6 5 moral C other moral 0.4151 Y 1 moral
7330 22 female R P Tra C S 5 6 6 moral C other moral 0.3819 Y 1 moral
7330 22 female R P Tra C S 5 6 7 moral P self moral 0.6120 Y 1 moral
7330 22 female R P Tra C S 5 6 8 moral C other moral 0.4243 Y 1 moral
7330 22 female R P Tra C S 5 6 9 moral S other immoral 0.6362 U 1 immoral
7330 22 female R P Tra C S 5 6 10 moral S other immoral 0.4988 U 1 immoral
7330 22 female R P Tra C S 5 6 11 moral Tra self immoral 0.4698 Y 0 immoral
7330 22 female R P Tra C S 5 6 12 moral C other moral 0.4732 Y 1 moral
7330 22 female R P Tra C S 5 6 13 moral Tra self immoral 0.3994 U 1 immoral
7330 22 female R P Tra C S 5 6 14 moral Tra self immoral 0.4724 U 1 immoral
7330 22 female R P Tra C S 5 6 15 moral Tra self immoral 0.3940 U 1 immoral
7330 22 female R P Tra C S 5 6 16 moral Tra self immoral 0.2368 U 1 immoral
7330 22 female R P Tra C S 5 6 17 moral P self moral 0.5476 Y 1 moral
7330 22 female R P Tra C S 5 6 18 moral P self moral 0.5448 Y 1 moral
7330 22 female R P Tra C S 5 6 19 moral Tra self immoral 0.8828 U 1 immoral
7330 22 female R P Tra C S 5 6 20 moral C other moral 0.5130 Y 1 moral
7330 22 female R P Tra C S 5 6 21 moral S other immoral 0.8081 U 1 immoral
7330 22 female R P Tra C S 5 6 22 moral C other moral 0.4378 Y 1 moral
7330 22 female R P Tra C S 5 6 23 moral P self moral 0.5622 Y 1 moral
7330 22 female R P Tra C S 5 6 24 moral P self moral 0.4775 Y 1 moral
SubjectID Age Gender Handness moralSelfShape immoralSelfShape moralOtherShape immoralOtherShape Block Bin Trial Task shapeName Identity Morality RT ResponseKey Accuracy trialType
7330 22 female R P Tra C S 6 1 1 importance C other moral 0.5254 O 1 important
7330 22 female R P Tra C S 6 1 2 importance S other immoral 0.3133 P 1 unimportant
7330 22 female R P Tra C S 6 1 3 importance S other immoral 0.2527 P 1 unimportant
7330 22 female R P Tra C S 6 1 4 importance C other moral 0.4038 O 1 important
7330 22 female R P Tra C S 6 1 5 importance Tra self immoral 0.3682 O 1 important
7330 22 female R P Tra C S 6 1 6 importance C other moral 0.5118 O 1 important
7330 22 female R P Tra C S 6 1 7 importance Tra self immoral 0.3354 P 0 important
7330 22 female R P Tra C S 6 1 8 importance P self moral 0.6189 O 1 important
7330 22 female R P Tra C S 6 1 9 importance P self moral 0.4166 O 1 important
7330 22 female R P Tra C S 6 1 10 importance S other immoral 0.4293 P 1 unimportant
7330 22 female R P Tra C S 6 1 11 importance C other moral 0.3559 O 1 important
7330 22 female R P Tra C S 6 1 12 importance P self moral 0.3966 O 1 important
7330 22 female R P Tra C S 6 1 13 importance C other moral 0.4522 O 1 important
7330 22 female R P Tra C S 6 1 14 importance Tra self immoral 0.6207 O 1 important
7330 22 female R P Tra C S 6 1 15 importance S other immoral 0.4101 P 1 unimportant
7330 22 female R P Tra C S 6 1 16 importance Tra self immoral 0.6891 O 1 important
7330 22 female R P Tra C S 6 1 17 importance Tra self immoral 0.3402 O 1 important
7330 22 female R P Tra C S 6 1 18 importance P self moral 0.3661 O 1 important
7330 22 female R P Tra C S 6 1 19 importance Tra self immoral 0.3972 O 1 important
7330 22 female R P Tra C S 6 1 20 importance P self moral 0.4090 O 1 important
7330 22 female R P Tra C S 6 1 21 importance S other immoral 0.3522 P 1 unimportant
7330 22 female R P Tra C S 6 1 22 importance C other moral 0.7325 O 1 important
7330 22 female R P Tra C S 6 1 23 importance P self moral 0.4997 O 1 important
7330 22 female R P Tra C S 6 1 24 importance S other immoral 0.4443 P 1 unimportant
7330 22 female R P Tra C S 6 2 1 importance C other moral 0.5423 O 1 important
7330 22 female R P Tra C S 6 2 2 importance C other moral 0.4378 O 1 important
7330 22 female R P Tra C S 6 2 3 importance Tra self immoral 0.5777 O 1 important
7330 22 female R P Tra C S 6 2 4 importance Tra self immoral 0.4451 O 1 important
7330 22 female R P Tra C S 6 2 5 importance P self moral 0.5346 O 1 important
7330 22 female R P Tra C S 6 2 6 importance P self moral 0.4476 O 1 important
7330 22 female R P Tra C S 6 2 7 importance Tra self immoral 0.4049 O 1 important
7330 22 female R P Tra C S 6 2 8 importance Tra self immoral 0.4600 O 1 important
7330 22 female R P Tra C S 6 2 9 importance C other moral 0.4700 O 1 important
7330 22 female R P Tra C S 6 2 10 importance S other immoral 0.3341 P 1 unimportant
7330 22 female R P Tra C S 6 2 11 importance P self moral 0.4429 O 1 important
7330 22 female R P Tra C S 6 2 12 importance P self moral 0.3253 O 1 important
7330 22 female R P Tra C S 6 2 13 importance P self moral 0.3513 O 1 important
7330 22 female R P Tra C S 6 2 14 importance Tra self immoral 0.4841 O 1 important
7330 22 female R P Tra C S 6 2 15 importance P self moral 0.3755 O 1 important
7330 22 female R P Tra C S 6 2 16 importance S other immoral 0.4264 P 1 unimportant
7330 22 female R P Tra C S 6 2 17 importance S other immoral 0.4016 P 1 unimportant
7330 22 female R P Tra C S 6 2 18 importance S other immoral 0.3287 P 1 unimportant
7330 22 female R P Tra C S 6 2 19 importance C other moral 0.4248 O 1 important
7330 22 female R P Tra C S 6 2 20 importance C other moral 0.3580 O 1 important
7330 22 female R P Tra C S 6 2 21 importance S other immoral 0.4048 P 1 unimportant
7330 22 female R P Tra C S 6 2 22 importance Tra self immoral 0.5032 O 1 important
7330 22 female R P Tra C S 6 2 23 importance S other immoral 0.4026 P 1 unimportant
7330 22 female R P Tra C S 6 2 24 importance C other moral 0.5443 O 1 important
7330 22 female R P Tra C S 6 3 1 importance C other moral 0.6126 O 1 important
7330 22 female R P Tra C S 6 3 2 importance P self moral 0.5276 O 1 important
7330 22 female R P Tra C S 6 3 3 importance C other moral 0.4140 O 1 important
7330 22 female R P Tra C S 6 3 4 importance C other moral 0.4252 O 1 important
7330 22 female R P Tra C S 6 3 5 importance P self moral 0.4139 O 1 important
7330 22 female R P Tra C S 6 3 6 importance P self moral 0.4027 O 1 important
7330 22 female R P Tra C S 6 3 7 importance S other immoral 0.6065 O 0 unimportant
7330 22 female R P Tra C S 6 3 8 importance P self moral 0.5492 O 1 important
7330 22 female R P Tra C S 6 3 9 importance C other moral 0.3070 O 1 important
7330 22 female R P Tra C S 6 3 10 importance S other immoral 0.3235 P 1 unimportant
7330 22 female R P Tra C S 6 3 11 importance C other moral 0.3829 O 1 important
7330 22 female R P Tra C S 6 3 12 importance S other immoral 0.3590 P 1 unimportant
7330 22 female R P Tra C S 6 3 13 importance C other moral 0.4118 O 1 important
7330 22 female R P Tra C S 6 3 14 importance Tra self immoral 0.5238 O 1 important
7330 22 female R P Tra C S 6 3 15 importance P self moral 0.4703 O 1 important
7330 22 female R P Tra C S 6 3 16 importance Tra self immoral 0.4685 O 1 important
7330 22 female R P Tra C S 6 3 17 importance Tra self immoral 0.3312 O 1 important
7330 22 female R P Tra C S 6 3 18 importance Tra self immoral 0.3553 O 1 important
7330 22 female R P Tra C S 6 3 19 importance S other immoral 0.4274 P 1 unimportant
7330 22 female R P Tra C S 6 3 20 importance P self moral 0.3945 O 1 important
7330 22 female R P Tra C S 6 3 21 importance Tra self immoral 0.3730 O 1 important
7330 22 female R P Tra C S 6 3 22 importance Tra self immoral 0.4116 O 1 important
7330 22 female R P Tra C S 6 3 23 importance S other immoral 0.4461 P 1 unimportant
7330 22 female R P Tra C S 6 3 24 importance S other immoral 0.3615 P 1 unimportant
7330 22 female R P Tra C S 6 4 1 importance S other immoral 0.7345 P 1 unimportant
7330 22 female R P Tra C S 6 4 2 importance C other moral 0.4686 O 1 important
7330 22 female R P Tra C S 6 4 3 importance S other immoral 0.4936 P 1 unimportant
7330 22 female R P Tra C S 6 4 4 importance Tra self immoral 0.6156 O 1 important
7330 22 female R P Tra C S 6 4 5 importance Tra self immoral 0.3385 O 1 important
7330 22 female R P Tra C S 6 4 6 importance P self moral 0.4436 O 1 important
7330 22 female R P Tra C S 6 4 7 importance C other moral 0.9839 O 1 important
7330 22 female R P Tra C S 6 4 8 importance Tra self immoral 0.6734 O 1 important
7330 22 female R P Tra C S 6 4 9 importance P self moral 0.5102 O 1 important
7330 22 female R P Tra C S 6 4 10 importance P self moral 0.4270 O 1 important
7330 22 female R P Tra C S 6 4 11 importance P self moral 0.3409 O 1 important
7330 22 female R P Tra C S 6 4 12 importance S other immoral 0.6906 P 1 unimportant
7330 22 female R P Tra C S 6 4 13 importance S other immoral 0.3571 P 1 unimportant
7330 22 female R P Tra C S 6 4 14 importance S other immoral 0.3582 P 1 unimportant
7330 22 female R P Tra C S 6 4 15 importance C other moral 0.4029 O 1 important
7330 22 female R P Tra C S 6 4 16 importance P self moral 0.7272 P 0 important
7330 22 female R P Tra C S 6 4 17 importance C other moral 0.4027 O 1 important
7330 22 female R P Tra C S 6 4 18 importance Tra self immoral 0.4494 O 1 important
7330 22 female R P Tra C S 6 4 19 importance C other moral 0.2913 O 1 important
7330 22 female R P Tra C S 6 4 20 importance C other moral 0.4820 O 1 important
7330 22 female R P Tra C S 6 4 21 importance Tra self immoral 0.3296 O 1 important
7330 22 female R P Tra C S 6 4 22 importance Tra self immoral 0.3645 O 1 important
7330 22 female R P Tra C S 6 4 23 importance P self moral 0.3774 O 1 important
7330 22 female R P Tra C S 6 4 24 importance S other immoral 0.6932 P 1 unimportant
7330 22 female R P Tra C S 6 5 1 importance C other moral 0.5208 O 1 important
7330 22 female R P Tra C S 6 5 2 importance P self moral 0.6572 O 1 important
7330 22 female R P Tra C S 6 5 3 importance C other moral 0.4370 O 1 important
7330 22 female R P Tra C S 6 5 4 importance C other moral 0.4248 O 1 important
7330 22 female R P Tra C S 6 5 5 importance P self moral 0.5218 O 1 important
7330 22 female R P Tra C S 6 5 6 importance Tra self immoral 0.4494 O 1 important
7330 22 female R P Tra C S 6 5 7 importance Tra self immoral 0.4684 O 1 important
7330 22 female R P Tra C S 6 5 8 importance P self moral 0.5123 O 1 important
7330 22 female R P Tra C S 6 5 9 importance S other immoral 0.4583 P 1 unimportant
7330 22 female R P Tra C S 6 5 10 importance S other immoral 0.4352 P 1 unimportant
7330 22 female R P Tra C S 6 5 11 importance P self moral 0.5860 O 1 important
7330 22 female R P Tra C S 6 5 12 importance C other moral 0.6171 O 1 important
7330 22 female R P Tra C S 6 5 13 importance Tra self immoral 0.5315 O 1 important
7330 22 female R P Tra C S 6 5 14 importance C other moral 0.7396 O 1 important
7330 22 female R P Tra C S 6 5 15 importance P self moral 0.4517 O 1 important
7330 22 female R P Tra C S 6 5 16 importance C other moral 0.4588 O 1 important
7330 22 female R P Tra C S 6 5 17 importance Tra self immoral 0.5168 O 1 important
7330 22 female R P Tra C S 6 5 18 importance S other immoral 0.5136 P 1 unimportant
7330 22 female R P Tra C S 6 5 19 importance Tra self immoral 0.9650 O 1 important
7330 22 female R P Tra C S 6 5 20 importance S other immoral 0.6277 P 1 unimportant
7330 22 female R P Tra C S 6 5 21 importance Tra self immoral 0.6188 O 1 important
7330 22 female R P Tra C S 6 5 22 importance P self moral 0.5323 O 1 important
7330 22 female R P Tra C S 6 5 23 importance S other immoral 0.6486 P 1 unimportant
7330 22 female R P Tra C S 6 5 24 importance S other immoral 0.4403 P 1 unimportant
7330 22 female R P Tra C S 6 6 1 importance P self moral 0.5763 O 1 important
7330 22 female R P Tra C S 6 6 2 importance P self moral 0.4319 O 1 important
7330 22 female R P Tra C S 6 6 3 importance S other immoral 0.4175 P 1 unimportant
7330 22 female R P Tra C S 6 6 4 importance S other immoral 0.4128 P 1 unimportant
7330 22 female R P Tra C S 6 6 5 importance P self moral 0.4392 O 1 important
7330 22 female R P Tra C S 6 6 6 importance P self moral 0.3484 O 1 important
7330 22 female R P Tra C S 6 6 7 importance C other moral 0.3933 P 0 important
7330 22 female R P Tra C S 6 6 8 importance Tra self immoral 0.4832 O 1 important
7330 22 female R P Tra C S 6 6 9 importance Tra self immoral 0.3732 O 1 important
7330 22 female R P Tra C S 6 6 10 importance P self moral 0.3682 O 1 important
7330 22 female R P Tra C S 6 6 11 importance Tra self immoral 0.3476 O 1 important
7330 22 female R P Tra C S 6 6 12 importance C other moral 0.6823 O 1 important
7330 22 female R P Tra C S 6 6 13 importance Tra self immoral 0.4715 O 1 important
7330 22 female R P Tra C S 6 6 14 importance C other moral 0.4880 O 1 important
7330 22 female R P Tra C S 6 6 15 importance S other immoral 0.4039 P 1 unimportant
7330 22 female R P Tra C S 6 6 16 importance S other immoral 0.6472 P 1 unimportant
7330 22 female R P Tra C S 6 6 17 importance C other moral 0.8869 O 1 important
7330 22 female R P Tra C S 6 6 18 importance Tra self immoral 0.4027 O 1 important
7330 22 female R P Tra C S 6 6 19 importance C other moral 0.4447 O 1 important
7330 22 female R P Tra C S 6 6 20 importance S other immoral 0.6086 P 1 unimportant
7330 22 female R P Tra C S 6 6 21 importance P self moral 0.4035 O 1 important
7330 22 female R P Tra C S 6 6 22 importance C other moral 0.5236 O 1 important
7330 22 female R P Tra C S 6 6 23 importance S other immoral 0.5341 P 1 unimportant
7330 22 female R P Tra C S 6 6 24 importance Tra self immoral 0.6965 O 1 important
