par1,par2,par3,par4,par5,par6,par7,par8,par9,part10,par11,par12,meanGroup,facesDisplayTime,maskTime,id,trial,faceIdentity,faceTime,realSD,rating,rt,numberFaces,condition,oldID,socialAnxiety1,socialAnxiety2,socialAnxiety3,socialAnxiety4,socialAnxiety5,socialAnxiety6,needToBelong1,needToBelong2,needToBelong3,needToBelong4,needToBelong5,needToBelong6,needToBelong7,needToBelong8,needToBelong9,needToBelong10,bigFiveExtraverted,bigFiveCritical,bigFiveCons,bigFiveNeuro,bigFiveOpen,bigFiveReserved,bigFiveWarm,bigFiveCareless,bigFiveCalm,bigFiceConventional,politicalBinary,age,sex,usCitizen,usCitizenText,bornUS,moveUS,geography,geography_text,raceBlack,raceLatin,raceWhite,raceAsian,raceOther,other_text,edu,income
112,NA,128,116,118,114,124,140,134,132,136,138,126.545,0.990381,0.233506,1,1,1,1,9.9453,113,2.70784,10,positive,33,1,2,2,1,2,1,2,4,1,5,5,2,1,5,4,5,5,2,5,5,7,4,5,4,3,2,1,21,male,1,NA,1,N/A,2,NA,1,0,1,1,0,NA,3,1
NA,118,136,NA,134,NA,138,120,126,114,NA,122,126,0.999562,0.233518,1,2,3,1,9.9453,143,3.31396,7,negative,33,1,2,2,1,2,1,2,4,1,5,5,2,1,5,4,5,5,2,5,5,7,4,5,4,3,2,1,21,male,1,NA,1,N/A,2,NA,1,0,1,1,0,NA,3,1
NA,NA,120,132,148,NA,NA,NA,146,122,124,126,131.143,0.983941,0.233539,1,3,3,1,9.9453,121,2.07151,6,negative,33,1,2,2,1,2,1,2,4,1,5,5,2,1,5,4,5,5,2,5,5,7,4,5,4,3,2,1,21,male,1,NA,1,N/A,2,NA,1,0,1,1,0,NA,3,1
118,138,112,134,NA,136,124,NA,116,120,NA,NA,124.75,0.984068,0.233611,1,4,1,1,9.9453,111,1.00027,7,positive,33,1,2,2,1,2,1,2,4,1,5,5,2,1,5,4,5,5,2,5,5,7,4,5,4,3,2,1,21,male,1,NA,1,N/A,2,NA,1,0,1,1,0,NA,3,1
104,128,124,115,121,109,NA,104,107,NA,129,105,114.6,0.984361,0.233638,1,5,2,1,9.89949,116,4.01932,9,negative,33,1,2,2,1,2,1,2,4,1,5,5,2,1,5,4,5,5,2,5,5,7,4,5,4,3,2,1,21,male,1,NA,1,N/A,2,NA,1,0,1,1,0,NA,3,1
NA,NA,NA,NA,NA,137,139,NA,129,119,NA,NA,131,0.998981,0.233507,1,6,2,1,9.9453,125,4.25862,3,negative,33,1,2,2,1,2,1,2,4,1,5,5,2,1,5,4,5,5,2,5,5,7,4,5,4,3,2,1,21,male,1,NA,1,N/A,2,NA,1,0,1,1,0,NA,3,1
121,NA,149,NA,137,145,NA,NA,NA,141,125,147,137.857,0.98409,0.233757,1,7,3,1,9.9453,125,3.6009,6,negative,33,1,2,2,1,2,1,2,4,1,5,5,2,1,5,4,5,5,2,5,5,7,4,5,4,3,2,1,21,male,1,NA,1,N/A,2,NA,1,0,1,1,0,NA,3,1
119,111,133,127,107,131,NA,NA,115,109,129,135,121.6,0.984122,0.250132,1,8,1,1,9.9453,122,2.40869,9,positive,33,1,2,2,1,2,1,2,4,1,5,5,2,1,5,4,5,5,2,5,5,7,4,5,4,3,2,1,21,male,1,NA,1,N/A,2,NA,1,0,1,1,0,NA,3,1
NA,NA,NA,NA,101,NA,NA,101,NA,NA,NA,NA,101,0.983943,0.233471,1,9,1,1,9.89949,101,5.74238,1,positive,33,1,2,2,1,2,1,2,4,1,5,5,2,1,5,4,5,5,2,5,5,7,4,5,4,3,2,1,21,male,1,NA,1,N/A,2,NA,1,0,1,1,0,NA,3,1
118,101,112,125,104,101,NA,106,103,101,121,126,110.727,0.984552,0.250198,1,10,3,1,9.89949,121,7.13616,10,negative,33,1,2,2,1,2,1,2,4,1,5,5,2,1,5,4,5,5,2,5,5,7,4,5,4,3,2,1,21,male,1,NA,1,N/A,2,NA,1,0,1,1,0,NA,3,1
NA,108,112,116,106,NA,126,132,130,110,104,NA,116,0.98406,0.233552,1,11,4,1,9.9453,111,0.866943,8,negative,33,1,2,2,1,2,1,2,4,1,5,5,2,1,5,4,5,5,2,5,5,7,4,5,4,3,2,1,21,male,1,NA,1,N/A,2,NA,1,0,1,1,0,NA,3,1
126,133,144,149,127,149,138,NA,124,150,147,147,139.455,0.984137,0.233508,1,12,1,1,9.88111,144,4.68955,10,negative,33,1,2,2,1,2,1,2,4,1,5,5,2,1,5,4,5,5,2,5,5,7,4,5,4,3,2,1,21,male,1,NA,1,N/A,2,NA,1,0,1,1,0,NA,3,1
NA,114,112,134,116,NA,NA,110,124,132,NA,130,121.5,0.983945,0.233666,1,13,3,1,9.9453,128,10.4387,7,positive,33,1,2,2,1,2,1,2,4,1,5,5,2,1,5,4,5,5,2,5,5,7,4,5,4,3,2,1,21,male,1,NA,1,N/A,2,NA,1,0,1,1,0,NA,3,1
116,NA,107,NA,105,105,105,130,NA,129,NA,110,113.375,0.98409,0.23343,1,14,4,1,9.89949,121,3.55989,7,positive,33,1,2,2,1,2,1,2,4,1,5,5,2,1,5,4,5,5,2,5,5,7,4,5,4,3,2,1,21,male,1,NA,1,N/A,2,NA,1,0,1,1,0,NA,3,1
NA,107,NA,NA,117,NA,NA,NA,105,121,111,NA,112.2,0.984076,0.250119,1,15,1,1,9.9453,108,0.625027,4,positive,33,1,2,2,1,2,1,2,4,1,5,5,2,1,5,4,5,5,2,5,5,7,4,5,4,3,2,1,21,male,1,NA,1,N/A,2,NA,1,0,1,1,0,NA,3,1
123,125,129,105,121,107,103,109,117,127,NA,113,116.273,0.984223,0.250194,1,16,3,1,9.9453,111,1.65044,10,positive,33,1,2,2,1,2,1,2,4,1,5,5,2,1,5,4,5,5,2,5,5,7,4,5,4,3,2,1,21,male,1,NA,1,N/A,2,NA,1,0,1,1,0,NA,3,1
NA,NA,129,NA,NA,NA,NA,135,NA,NA,119,133,129,0.983915,0.233525,1,17,4,1,9.9453,131,1.85176,3,positive,33,1,2,2,1,2,1,2,4,1,5,5,2,1,5,4,5,5,2,5,5,7,4,5,4,3,2,1,21,male,1,NA,1,N/A,2,NA,1,0,1,1,0,NA,3,1
NA,NA,NA,NA,120,NA,NA,142,NA,NA,NA,NA,131,0.983834,0.233579,1,18,4,1,9.9453,131,2.94617,1,positive,33,1,2,2,1,2,1,2,4,1,5,5,2,1,5,4,5,5,2,5,5,7,4,5,4,3,2,1,21,male,1,NA,1,N/A,2,NA,1,0,1,1,0,NA,3,1
NA,122,146,NA,NA,144,NA,NA,NA,120,NA,NA,133,0.983874,0.233454,1,19,1,1,9.9453,140,2.11128,3,negative,33,1,2,2,1,2,1,2,4,1,5,5,2,1,5,4,5,5,2,5,5,7,4,5,4,3,2,1,21,male,1,NA,1,N/A,2,NA,1,0,1,1,0,NA,3,1
129,122,NA,105,116,NA,106,NA,NA,130,NA,110,116.857,0.983835,0.250124,1,20,4,1,9.89949,125,3.7551,6,positive,33,1,2,2,1,2,1,2,4,1,5,5,2,1,5,4,5,5,2,5,5,7,4,5,4,3,2,1,21,male,1,NA,1,N/A,2,NA,1,0,1,1,0,NA,3,1
NA,NA,123,NA,129,NA,NA,NA,NA,119,NA,NA,123.667,1.00023,0.233475,1,21,1,1,9.9453,137,4.52521,2,positive,33,1,2,2,1,2,1,2,4,1,5,5,2,1,5,4,5,5,2,5,5,7,4,5,4,3,2,1,21,male,1,NA,1,N/A,2,NA,1,0,1,1,0,NA,3,1
NA,145,139,NA,135,NA,128,NA,150,NA,134,150,140.143,0.983834,0.23353,1,22,2,1,9.78364,142,5.86445,6,negative,33,1,2,2,1,2,1,2,4,1,5,5,2,1,5,4,5,5,2,5,5,7,4,5,4,3,2,1,21,male,1,NA,1,N/A,2,NA,1,0,1,1,0,NA,3,1
NA,123,139,NA,125,NA,NA,NA,NA,121,NA,NA,127,0.983972,0.233365,1,23,1,1,9.9453,134,2.5896,3,positive,33,1,2,2,1,2,1,2,4,1,5,5,2,1,5,4,5,5,2,5,5,7,4,5,4,3,2,1,21,male,1,NA,1,N/A,2,NA,1,0,1,1,0,NA,3,1
137,125,135,133,111,113,129,109,131,117,121,115,123,0.984403,0.233509,1,24,2,1,9.9453,137,4.65463,11,positive,33,1,2,2,1,2,1,2,4,1,5,5,2,1,5,4,5,5,2,5,5,7,4,5,4,3,2,1,21,male,1,NA,1,N/A,2,NA,1,0,1,1,0,NA,3,1
106,122,NA,NA,107,NA,NA,105,NA,105,NA,NA,109,0.984127,0.233532,1,25,3,1,9.89949,125,2.6041,4,positive,33,1,2,2,1,2,1,2,4,1,5,5,2,1,5,4,5,5,2,5,5,7,4,5,4,3,2,1,21,male,1,NA,1,N/A,2,NA,1,0,1,1,0,NA,3,1
132,112,NA,NA,NA,134,NA,NA,136,118,NA,116,124.667,0.984031,0.233535,1,26,2,1,9.9453,122,8.79229,5,negative,33,1,2,2,1,2,1,2,4,1,5,5,2,1,5,4,5,5,2,5,5,7,4,5,4,3,2,1,21,male,1,NA,1,N/A,2,NA,1,0,1,1,0,NA,3,1
138,134,116,142,118,120,126,140,130,122,114,NA,127.273,1.00063,0.233525,1,27,4,1,9.9453,129,4.60709,10,positive,33,1,2,2,1,2,1,2,4,1,5,5,2,1,5,4,5,5,2,5,5,7,4,5,4,3,2,1,21,male,1,NA,1,N/A,2,NA,1,0,1,1,0,NA,3,1
NA,141,NA,123,NA,NA,125,NA,NA,121,NA,143,130.6,0.983937,0.233644,1,28,4,1,9.9453,120,8.15905,4,positive,33,1,2,2,1,2,1,2,4,1,5,5,2,1,5,4,5,5,2,5,5,7,4,5,4,3,2,1,21,male,1,NA,1,N/A,2,NA,1,0,1,1,0,NA,3,1
127,107,NA,129,105,NA,121,109,NA,117,113,NA,116,0.984351,0.233514,1,29,4,1,9.9453,145,14.6075,7,negative,33,1,2,2,1,2,1,2,4,1,5,5,2,1,5,4,5,5,2,5,5,7,4,5,4,3,2,1,21,male,1,NA,1,N/A,2,NA,1,0,1,1,0,NA,3,1
125,NA,121,NA,NA,129,149,NA,145,127,133,NA,132.714,0.984002,0.233543,1,30,2,1,9.9453,125,4.09398,6,negative,33,1,2,2,1,2,1,2,4,1,5,5,2,1,5,4,5,5,2,5,5,7,4,5,4,3,2,1,21,male,1,NA,1,N/A,2,NA,1,0,1,1,0,NA,3,1
NA,111,NA,NA,NA,NA,NA,NA,NA,NA,NA,NA,111,0.999798,0.25004,1,31,3,1,9.9453,111,3.05087,0,positive,33,1,2,2,1,2,1,2,4,1,5,5,2,1,5,4,5,5,2,5,5,7,4,5,4,3,2,1,21,male,1,NA,1,N/A,2,NA,1,0,1,1,0,NA,3,1
NA,148,NA,NA,132,NA,NA,NA,126,146,NA,NA,138,0.999606,0.233504,1,32,3,1,9.98598,148,10.8227,3,negative,33,1,2,2,1,2,1,2,4,1,5,5,2,1,5,4,5,5,2,5,5,7,4,5,4,3,2,1,21,male,1,NA,1,N/A,2,NA,1,0,1,1,0,NA,3,1
126,133,NA,147,134,138,NA,NA,150,NA,NA,NA,138,0.983702,0.233515,1,33,3,1,9.88111,150,7.53558,5,negative,33,1,2,2,1,2,1,2,4,1,5,5,2,1,5,4,5,5,2,5,5,7,4,5,4,3,2,1,21,male,1,NA,1,N/A,2,NA,1,0,1,1,0,NA,3,1
137,133,127,NA,139,117,131,119,113,NA,NA,111,125.222,0.984126,0.23355,1,34,1,1,9.9453,133,4.02544,8,negative,33,1,2,2,1,2,1,2,4,1,5,5,2,1,5,4,5,5,2,5,5,7,4,5,4,3,2,1,21,male,1,NA,1,N/A,2,NA,1,0,1,1,0,NA,3,1
134,132,108,118,110,128,130,126,106,114,112,122,120,0.984128,0.233593,1,35,4,1,9.9453,138,7.36009,11,positive,33,1,2,2,1,2,1,2,4,1,5,5,2,1,5,4,5,5,2,5,5,7,4,5,4,3,2,1,21,male,1,NA,1,N/A,2,NA,1,0,1,1,0,NA,3,1
114,NA,118,122,NA,NA,110,124,104,NA,108,102,112.75,0.983917,0.250131,1,36,3,1,9.9453,140,4.19548,7,negative,33,1,2,2,1,2,1,2,4,1,5,5,2,1,5,4,5,5,2,5,5,7,4,5,4,3,2,1,21,male,1,NA,1,N/A,2,NA,1,0,1,1,0,NA,3,1
128,NA,NA,120,127,104,103,105,108,123,103,106,112.7,0.983977,0.250142,1,37,3,1,9.89949,112,5.03476,9,negative,33,1,2,2,1,2,1,2,4,1,5,5,2,1,5,4,5,5,2,5,5,7,4,5,4,3,2,1,21,male,1,NA,1,N/A,2,NA,1,0,1,1,0,NA,3,1
105,NA,121,109,NA,113,NA,NA,NA,NA,NA,NA,112,0.983928,0.233552,1,38,4,1,9.9453,110,4.06411,3,negative,33,1,2,2,1,2,1,2,4,1,5,5,2,1,5,4,5,5,2,5,5,7,4,5,4,3,2,1,21,male,1,NA,1,N/A,2,NA,1,0,1,1,0,NA,3,1
117,137,NA,NA,NA,121,NA,NA,NA,NA,NA,NA,125,0.983729,0.233455,1,39,2,1,9.9453,123,3.92135,2,negative,33,1,2,2,1,2,1,2,4,1,5,5,2,1,5,4,5,5,2,5,5,7,4,5,4,3,2,1,21,male,1,NA,1,N/A,2,NA,1,0,1,1,0,NA,3,1
NA,NA,147,NA,NA,143,121,NA,NA,NA,NA,NA,137,0.983736,0.250099,1,40,4,1,9.9453,107,4.65523,2,positive,33,1,2,2,1,2,1,2,4,1,5,5,2,1,5,4,5,5,2,5,5,7,4,5,4,3,2,1,21,male,1,NA,1,N/A,2,NA,1,0,1,1,0,NA,3,1
NA,137,NA,111,NA,133,115,NA,117,NA,127,113,121.857,1.00025,0.23353,1,41,3,1,9.9453,134,4.47768,6,positive,33,1,2,2,1,2,1,2,4,1,5,5,2,1,5,4,5,5,2,5,5,7,4,5,4,3,2,1,21,male,1,NA,1,N/A,2,NA,1,0,1,1,0,NA,3,1
NA,104,116,NA,112,110,108,106,NA,NA,128,120,113,0.984173,0.233597,1,42,1,1,9.9453,111,1.15028,7,positive,33,1,2,2,1,2,1,2,4,1,5,5,2,1,5,4,5,5,2,5,5,7,4,5,4,3,2,1,21,male,1,NA,1,N/A,2,NA,1,0,1,1,0,NA,3,1
NA,NA,NA,NA,NA,119,NA,NA,NA,NA,137,NA,128,0.983856,0.250071,1,43,4,1,9.9453,121,5.46034,1,positive,33,1,2,2,1,2,1,2,4,1,5,5,2,1,5,4,5,5,2,5,5,7,4,5,4,3,2,1,21,male,1,NA,1,N/A,2,NA,1,0,1,1,0,NA,3,1
NA,NA,NA,138,NA,NA,NA,146,148,126,122,NA,136,0.98396,0.233557,1,44,2,1,9.9453,147,7.73687,4,positive,33,1,2,2,1,2,1,2,4,1,5,5,2,1,5,4,5,5,2,5,5,7,4,5,4,3,2,1,21,male,1,NA,1,N/A,2,NA,1,0,1,1,0,NA,3,1
108,104,130,102,122,118,124,126,106,114,110,128,116,0.9843,0.233568,1,45,3,1,9.9453,122,3.7615,11,negative,33,1,2,2,1,2,1,2,4,1,5,5,2,1,5,4,5,5,2,5,5,7,4,5,4,3,2,1,21,male,1,NA,1,N/A,2,NA,1,0,1,1,0,NA,3,1
NA,142,132,NA,146,136,NA,NA,140,124,122,148,136.25,0.983773,0.233517,1,46,3,1,9.9453,142,9.72196,7,positive,33,1,2,2,1,2,1,2,4,1,5,5,2,1,5,4,5,5,2,5,5,7,4,5,4,3,2,1,21,male,1,NA,1,N/A,2,NA,1,0,1,1,0,NA,3,1
120,NA,140,116,136,138,112,NA,134,114,124,118,125.2,0.98404,0.233523,1,47,1,1,9.9453,143,2.20293,9,positive,33,1,2,2,1,2,1,2,4,1,5,5,2,1,5,4,5,5,2,5,5,7,4,5,4,3,2,1,21,male,1,NA,1,N/A,2,NA,1,0,1,1,0,NA,3,1
NA,NA,NA,131,NA,NA,NA,NA,NA,NA,NA,NA,131,0.983563,0.233503,1,48,2,1,9.9453,150,5.9301,0,positive,33,1,2,2,1,2,1,2,4,1,5,5,2,1,5,4,5,5,2,5,5,7,4,5,4,3,2,1,21,male,1,NA,1,N/A,2,NA,1,0,1,1,0,NA,3,1
NA,NA,129,133,NA,113,NA,119,115,NA,125,NA,122.333,1.00049,0.250118,1,49,4,1,9.9453,134,3.41108,5,negative,33,1,2,2,1,2,1,2,4,1,5,5,2,1,5,4,5,5,2,5,5,7,4,5,4,3,2,1,21,male,1,NA,1,N/A,2,NA,1,0,1,1,0,NA,3,1
NA,NA,NA,NA,NA,NA,NA,NA,NA,121,NA,NA,121,0.983955,0.233503,1,50,1,1,9.9453,137,1.83756,0,positive,33,1,2,2,1,2,1,2,4,1,5,5,2,1,5,4,5,5,2,5,5,7,4,5,4,3,2,1,21,male,1,NA,1,N/A,2,NA,1,0,1,1,0,NA,3,1
116,112,NA,NA,NA,134,NA,NA,132,NA,124,114,122,0.983884,0.233562,1,51,2,1,9.9453,126,2.13205,5,positive,33,1,2,2,1,2,1,2,4,1,5,5,2,1,5,4,5,5,2,5,5,7,4,5,4,3,2,1,21,male,1,NA,1,N/A,2,NA,1,0,1,1,0,NA,3,1
146,NA,NA,146,126,150,NA,NA,148,123,125,NA,137.714,0.984353,0.233542,1,52,4,1,9.98598,137,4.02219,6,negative,33,1,2,2,1,2,1,2,4,1,5,5,2,1,5,4,5,5,2,5,5,7,4,5,4,3,2,1,21,male,1,NA,1,N/A,2,NA,1,0,1,1,0,NA,3,1
128,122,138,148,142,144,NA,124,146,126,134,130,134.727,0.983976,0.233565,1,53,2,1,9.9453,150,4.70133,10,positive,33,1,2,2,1,2,1,2,4,1,5,5,2,1,5,4,5,5,2,5,5,7,4,5,4,3,2,1,21,male,1,NA,1,N/A,2,NA,1,0,1,1,0,NA,3,1
137,126,NA,NA,NA,143,146,NA,NA,NA,NA,146,139.6,0.984018,0.233609,1,54,1,1,9.98598,138,1.33509,4,positive,33,1,2,2,1,2,1,2,4,1,5,5,2,1,5,4,5,5,2,5,5,7,4,5,4,3,2,1,21,male,1,NA,1,N/A,2,NA,1,0,1,1,0,NA,3,1
113,137,NA,141,121,115,119,133,139,135,129,NA,128.2,0.983949,0.23357,1,55,4,1,9.9453,118,3.20196,9,positive,33,1,2,2,1,2,1,2,4,1,5,5,2,1,5,4,5,5,2,5,5,7,4,5,4,3,2,1,21,male,1,NA,1,N/A,2,NA,1,0,1,1,0,NA,3,1
NA,129,NA,NA,NA,107,NA,NA,127,NA,NA,101,116,0.983855,0.233464,1,56,4,1,9.9453,120,3.85334,3,negative,33,1,2,2,1,2,1,2,4,1,5,5,2,1,5,4,5,5,2,5,5,7,4,5,4,3,2,1,21,male,1,NA,1,N/A,2,NA,1,0,1,1,0,NA,3,1
116,NA,NA,NA,NA,NA,NA,NA,NA,NA,NA,NA,116,0.983806,0.233534,1,57,1,1,9.9453,123,2.59794,0,positive,33,1,2,2,1,2,1,2,4,1,5,5,2,1,5,4,5,5,2,5,5,7,4,5,4,3,2,1,21,male,1,NA,1,N/A,2,NA,1,0,1,1,0,NA,3,1
NA,131,119,115,107,127,109,113,123,135,111,129,119.909,1.00052,0.233582,1,58,1,1,9.9453,125,5.73218,10,negative,33,1,2,2,1,2,1,2,4,1,5,5,2,1,5,4,5,5,2,5,5,7,4,5,4,3,2,1,21,male,1,NA,1,N/A,2,NA,1,0,1,1,0,NA,3,1
NA,129,109,103,125,NA,113,NA,107,121,127,105,115.444,0.984177,0.25014,1,59,3,1,9.9453,102,14.9129,8,positive,33,1,2,2,1,2,1,2,4,1,5,5,2,1,5,4,5,5,2,5,5,7,4,5,4,3,2,1,21,male,1,NA,1,N/A,2,NA,1,0,1,1,0,NA,3,1
114,128,NA,NA,130,136,108,132,NA,134,116,124,124.667,1.00046,0.250183,1,60,1,1,9.9453,133,3.05484,8,negative,33,1,2,2,1,2,1,2,4,1,5,5,2,1,5,4,5,5,2,5,5,7,4,5,4,3,2,1,21,male,1,NA,1,N/A,2,NA,1,0,1,1,0,NA,3,1
NA,NA,148,124,142,132,122,128,136,126,144,146,134.8,0.983986,0.233426,1,61,1,1,9.9453,108,3.26779,9,negative,33,1,2,2,1,2,1,2,4,1,5,5,2,1,5,4,5,5,2,5,5,7,4,5,4,3,2,1,21,male,1,NA,1,N/A,2,NA,1,0,1,1,0,NA,3,1
NA,NA,NA,NA,NA,NA,NA,119,NA,NA,NA,NA,119,0.983776,0.23338,1,62,4,1,9.9453,122,3.52769,0,positive,33,1,2,2,1,2,1,2,4,1,5,5,2,1,5,4,5,5,2,5,5,7,4,5,4,3,2,1,21,male,1,NA,1,N/A,2,NA,1,0,1,1,0,NA,3,1
142,118,124,NA,136,116,138,144,140,NA,NA,NA,132.25,1.00036,0.23352,1,63,1,1,9.9453,130,2.38436,7,negative,33,1,2,2,1,2,1,2,4,1,5,5,2,1,5,4,5,5,2,5,5,7,4,5,4,3,2,1,21,male,1,NA,1,N/A,2,NA,1,0,1,1,0,NA,3,1
103,NA,NA,107,NA,NA,127,NA,101,129,105,121,113.286,0.98417,0.250088,1,64,1,1,9.9453,107,2.88649,6,positive,33,1,2,2,1,2,1,2,4,1,5,5,2,1,5,4,5,5,2,5,5,7,4,5,4,3,2,1,21,male,1,NA,1,N/A,2,NA,1,0,1,1,0,NA,3,1
NA,NA,135,115,NA,113,137,NA,121,133,131,NA,126.429,0.984196,0.233538,1,65,2,1,9.9453,122,8.2893,6,negative,33,1,2,2,1,2,1,2,4,1,5,5,2,1,5,4,5,5,2,5,5,7,4,5,4,3,2,1,21,male,1,NA,1,N/A,2,NA,1,0,1,1,0,NA,3,1
106,NA,127,NA,120,NA,NA,105,104,128,103,NA,113.286,0.983999,0.250124,1,66,2,1,9.89949,111,1.18383,6,negative,33,1,2,2,1,2,1,2,4,1,5,5,2,1,5,4,5,5,2,5,5,7,4,5,4,3,2,1,21,male,1,NA,1,N/A,2,NA,1,0,1,1,0,NA,3,1
127,NA,NA,105,NA,NA,NA,NA,113,NA,NA,NA,115,0.983898,0.233458,1,67,4,1,9.9453,101,10.6677,2,positive,33,1,2,2,1,2,1,2,4,1,5,5,2,1,5,4,5,5,2,5,5,7,4,5,4,3,2,1,21,male,1,NA,1,N/A,2,NA,1,0,1,1,0,NA,3,1
124,144,142,140,NA,126,118,138,122,146,134,NA,133.4,1.00035,0.233487,1,68,4,1,9.9453,133,1.21947,9,positive,33,1,2,2,1,2,1,2,4,1,5,5,2,1,5,4,5,5,2,5,5,7,4,5,4,3,2,1,21,male,1,NA,1,N/A,2,NA,1,0,1,1,0,NA,3,1
123,NA,113,NA,135,NA,NA,NA,NA,NA,109,NA,120,0.983861,0.250056,1,69,1,1,9.9453,138,3.13614,3,positive,33,1,2,2,1,2,1,2,4,1,5,5,2,1,5,4,5,5,2,5,5,7,4,5,4,3,2,1,21,male,1,NA,1,N/A,2,NA,1,0,1,1,0,NA,3,1
113,125,NA,NA,NA,111,NA,NA,NA,131,129,115,120.667,0.983957,0.233669,1,70,2,1,9.9453,111,1.13366,5,positive,33,1,2,2,1,2,1,2,4,1,5,5,2,1,5,4,5,5,2,5,5,7,4,5,4,3,2,1,21,male,1,NA,1,N/A,2,NA,1,0,1,1,0,NA,3,1
NA,NA,NA,102,NA,NA,NA,NA,NA,112,NA,106,106.667,0.983727,0.233445,1,71,1,1,9.89949,111,1.21698,2,positive,33,1,2,2,1,2,1,2,4,1,5,5,2,1,5,4,5,5,2,5,5,7,4,5,4,3,2,1,21,male,1,NA,1,N/A,2,NA,1,0,1,1,0,NA,3,1
NA,NA,NA,127,NA,NA,101,105,NA,103,NA,NA,109,0.984301,0.233635,1,72,2,1,9.9453,111,1.05036,3,positive,33,1,2,2,1,2,1,2,4,1,5,5,2,1,5,4,5,5,2,5,5,7,4,5,4,3,2,1,21,male,1,NA,1,N/A,2,NA,1,0,1,1,0,NA,3,1
NA,NA,103,NA,NA,NA,NA,NA,NA,NA,NA,NA,103,0.983918,0.250057,1,73,3,1,9.89949,111,0.816976,0,negative,33,1,2,2,1,2,1,2,4,1,5,5,2,1,5,4,5,5,2,5,5,7,4,5,4,3,2,1,21,male,1,NA,1,N/A,2,NA,1,0,1,1,0,NA,3,1
140,120,NA,132,116,136,142,124,NA,118,138,NA,129.556,0.984025,0.233609,1,74,3,1,9.9453,139,2.36909,8,positive,33,1,2,2,1,2,1,2,4,1,5,5,2,1,5,4,5,5,2,5,5,7,4,5,4,3,2,1,21,male,1,NA,1,N/A,2,NA,1,0,1,1,0,NA,3,1
NA,NA,135,NA,113,133,NA,NA,125,NA,NA,129,127,0.98427,0.23349,1,75,4,1,9.9453,127,2.30148,4,positive,33,1,2,2,1,2,1,2,4,1,5,5,2,1,5,4,5,5,2,5,5,7,4,5,4,3,2,1,21,male,1,NA,1,N/A,2,NA,1,0,1,1,0,NA,3,1
NA,NA,123,NA,139,141,135,127,115,143,NA,131,131.75,0.984356,0.250101,1,76,2,1,9.9453,129,2.53496,7,positive,33,1,2,2,1,2,1,2,4,1,5,5,2,1,5,4,5,5,2,5,5,7,4,5,4,3,2,1,21,male,1,NA,1,N/A,2,NA,1,0,1,1,0,NA,3,1
NA,NA,NA,NA,NA,NA,NA,NA,NA,NA,136,132,134,0.984095,0.233343,1,77,2,1,9.9453,130,1.9596,1,positive,33,1,2,2,1,2,1,2,4,1,5,5,2,1,5,4,5,5,2,5,5,7,4,5,4,3,2,1,21,male,1,NA,1,N/A,2,NA,1,0,1,1,0,NA,3,1
122,116,NA,105,NA,106,NA,NA,NA,NA,125,NA,114.8,0.984033,0.233581,1,78,4,1,9.89949,111,0.834202,4,negative,33,1,2,2,1,2,1,2,4,1,5,5,2,1,5,4,5,5,2,5,5,7,4,5,4,3,2,1,21,male,1,NA,1,N/A,2,NA,1,0,1,1,0,NA,3,1
NA,NA,NA,NA,NA,NA,NA,NA,NA,125,109,NA,117,0.984033,0.233567,1,79,3,1,9.9453,127,2.78794,1,positive,33,1,2,2,1,2,1,2,4,1,5,5,2,1,5,4,5,5,2,5,5,7,4,5,4,3,2,1,21,male,1,NA,1,N/A,2,NA,1,0,1,1,0,NA,3,1
145,139,NA,NA,148,NA,NA,NA,NA,NA,127,150,141.8,0.98414,0.233597,1,80,1,1,9.78364,137,5.87343,4,negative,33,1,2,2,1,2,1,2,4,1,5,5,2,1,5,4,5,5,2,5,5,7,4,5,4,3,2,1,21,male,1,NA,1,N/A,2,NA,1,0,1,1,0,NA,3,1
NA,135,NA,111,127,129,NA,NA,115,NA,119,NA,122.667,0.984106,0.233489,1,81,4,1,9.9453,150,6.88782,5,negative,33,1,2,2,1,2,1,2,4,1,5,5,2,1,5,4,5,5,2,5,5,7,4,5,4,3,2,1,21,male,1,NA,1,N/A,2,NA,1,0,1,1,0,NA,3,1
126,NA,NA,NA,128,NA,130,142,138,NA,148,150,137.429,0.984279,0.233468,1,82,1,1,9.9453,141,5.53733,6,negative,33,1,2,2,1,2,1,2,4,1,5,5,2,1,5,4,5,5,2,5,5,7,4,5,4,3,2,1,21,male,1,NA,1,N/A,2,NA,1,0,1,1,0,NA,3,1
105,NA,NA,NA,NA,122,102,102,103,104,NA,113,107.286,0.984252,0.233534,1,83,2,1,9.89949,111,0.78353,6,positive,33,1,2,2,1,2,1,2,4,1,5,5,2,1,5,4,5,5,2,5,5,7,4,5,4,3,2,1,21,male,1,NA,1,N/A,2,NA,1,0,1,1,0,NA,3,1
109,113,129,103,107,NA,117,NA,105,101,125,127,113.6,0.984284,0.250173,1,84,4,1,9.9453,127,9.38819,9,negative,33,1,2,2,1,2,1,2,4,1,5,5,2,1,5,4,5,5,2,5,5,7,4,5,4,3,2,1,21,male,1,NA,1,N/A,2,NA,1,0,1,1,0,NA,3,1
137,143,145,133,129,119,139,117,121,NA,123,NA,130.6,0.98393,0.23353,1,85,2,1,9.9453,145,2.97726,9,negative,33,1,2,2,1,2,1,2,4,1,5,5,2,1,5,4,5,5,2,5,5,7,4,5,4,3,2,1,21,male,1,NA,1,N/A,2,NA,1,0,1,1,0,NA,3,1
127,NA,131,NA,NA,121,NA,129,NA,111,109,117,120.714,0.983886,0.250078,1,86,2,1,9.9453,132,2.80673,6,positive,33,1,2,2,1,2,1,2,4,1,5,5,2,1,5,4,5,5,2,5,5,7,4,5,4,3,2,1,21,male,1,NA,1,N/A,2,NA,1,0,1,1,0,NA,3,1
115,NA,113,NA,135,129,121,NA,NA,137,NA,131,125.857,0.983948,0.23355,1,87,3,1,9.9453,150,4.22033,6,positive,33,1,2,2,1,2,1,2,4,1,5,5,2,1,5,4,5,5,2,5,5,7,4,5,4,3,2,1,21,male,1,NA,1,N/A,2,NA,1,0,1,1,0,NA,3,1
138,128,112,120,140,114,118,NA,136,NA,116,NA,124.667,0.9843,0.233479,1,88,1,1,9.9453,107,2.93732,8,negative,33,1,2,2,1,2,1,2,4,1,5,5,2,1,5,4,5,5,2,5,5,7,4,5,4,3,2,1,21,male,1,NA,1,N/A,2,NA,1,0,1,1,0,NA,3,1
NA,125,127,119,121,145,NA,NA,131,NA,139,NA,129.571,0.984071,0.233545,1,89,1,1,9.9453,129,11.1107,6,negative,33,1,2,2,1,2,1,2,4,1,5,5,2,1,5,4,5,5,2,5,5,7,4,5,4,3,2,1,21,male,1,NA,1,N/A,2,NA,1,0,1,1,0,NA,3,1
131,129,119,103,105,107,127,109,123,NA,111,115,116.273,0.984147,0.23347,1,90,1,1,9.9453,101,1.51697,10,negative,33,1,2,2,1,2,1,2,4,1,5,5,2,1,5,4,5,5,2,5,5,7,4,5,4,3,2,1,21,male,1,NA,1,N/A,2,NA,1,0,1,1,0,NA,3,1
115,121,117,143,131,141,135,119,137,139,123,127,129,0.984384,0.233512,1,91,3,1,9.9453,141,5.12371,11,positive,33,1,2,2,1,2,1,2,4,1,5,5,2,1,5,4,5,5,2,5,5,7,4,5,4,3,2,1,21,male,1,NA,1,N/A,2,NA,1,0,1,1,0,NA,3,1
142,120,118,NA,NA,140,NA,126,130,NA,138,122,129.5,0.984089,0.23356,1,92,2,1,9.9453,133,1.93258,7,negative,33,1,2,2,1,2,1,2,4,1,5,5,2,1,5,4,5,5,2,5,5,7,4,5,4,3,2,1,21,male,1,NA,1,N/A,2,NA,1,0,1,1,0,NA,3,1
130,118,106,104,122,110,NA,NA,102,NA,114,108,112.667,0.984271,0.233507,1,93,1,1,9.9453,112,2.11389,8,positive,33,1,2,2,1,2,1,2,4,1,5,5,2,1,5,4,5,5,2,5,5,7,4,5,4,3,2,1,21,male,1,NA,1,N/A,2,NA,1,0,1,1,0,NA,3,1
NA,133,NA,135,NA,115,131,119,NA,NA,137,NA,128.333,0.983988,0.250142,1,94,2,1,9.9453,141,1.95096,5,positive,33,1,2,2,1,2,1,2,4,1,5,5,2,1,5,4,5,5,2,5,5,7,4,5,4,3,2,1,21,male,1,NA,1,N/A,2,NA,1,0,1,1,0,NA,3,1
NA,149,NA,NA,NA,NA,NA,NA,NA,NA,NA,NA,149,0.984171,0.233594,1,95,2,1,9.98598,147,4.38314,0,positive,33,1,2,2,1,2,1,2,4,1,5,5,2,1,5,4,5,5,2,5,5,7,4,5,4,3,2,1,21,male,1,NA,1,N/A,2,NA,1,0,1,1,0,NA,3,1
NA,NA,128,148,135,NA,127,NA,139,NA,134,150,137.286,1.00041,0.250099,1,96,2,1,9.78364,133,4.81725,6,negative,33,1,2,2,1,2,1,2,4,1,5,5,2,1,5,4,5,5,2,5,5,7,4,5,4,3,2,1,21,male,1,NA,1,N/A,2,NA,1,0,1,1,0,NA,3,1
122,NA,NA,NA,120,NA,NA,142,NA,NA,NA,NA,128,0.984029,0.250204,1,97,2,1,9.9453,145,2.30136,2,positive,33,1,2,2,1,2,1,2,4,1,5,5,2,1,5,4,5,5,2,5,5,7,4,5,4,3,2,1,21,male,1,NA,1,N/A,2,NA,1,0,1,1,0,NA,3,1
NA,109,NA,NA,NA,113,NA,NA,NA,NA,NA,117,113,0.983781,0.233553,1,98,3,1,9.9453,123,9.29532,2,negative,33,1,2,2,1,2,1,2,4,1,5,5,2,1,5,4,5,5,2,5,5,7,4,5,4,3,2,1,21,male,1,NA,1,N/A,2,NA,1,0,1,1,0,NA,3,1
119,139,137,131,141,123,117,115,143,135,121,127,129,0.984452,0.233482,1,99,2,1,9.9453,126,1.58358,11,negative,33,1,2,2,1,2,1,2,4,1,5,5,2,1,5,4,5,5,2,5,5,7,4,5,4,3,2,1,21,male,1,NA,1,N/A,2,NA,1,0,1,1,0,NA,3,1
NA,118,128,112,110,134,NA,130,122,NA,114,132,122.222,0.984137,0.233455,1,100,3,1,9.9453,139,2.28795,8,negative,33,1,2,2,1,2,1,2,4,1,5,5,2,1,5,4,5,5,2,5,5,7,4,5,4,3,2,1,21,male,1,NA,1,N/A,2,NA,1,0,1,1,0,NA,3,1
NA,NA,114,NA,NA,NA,116,NA,NA,NA,138,NA,122.667,0.984167,0.233528,1,101,4,1,9.9453,111,2.10066,2,positive,33,1,2,2,1,2,1,2,4,1,5,5,2,1,5,4,5,5,2,5,5,7,4,5,4,3,2,1,21,male,1,NA,1,N/A,2,NA,1,0,1,1,0,NA,3,1
NA,NA,NA,NA,135,NA,NA,NA,121,NA,NA,NA,128,0.983807,0.233517,1,102,4,1,9.9453,124,4.10819,1,positive,33,1,2,2,1,2,1,2,4,1,5,5,2,1,5,4,5,5,2,5,5,7,4,5,4,3,2,1,21,male,1,NA,1,N/A,2,NA,1,0,1,1,0,NA,3,1
150,138,134,122,148,128,144,124,130,142,146,126,136,0.984433,0.233573,1,103,3,1,9.9453,131,4.81356,11,negative,33,1,2,2,1,2,1,2,4,1,5,5,2,1,5,4,5,5,2,5,5,7,4,5,4,3,2,1,21,male,1,NA,1,N/A,2,NA,1,0,1,1,0,NA,3,1
NA,119,127,NA,107,102,102,NA,102,NA,104,113,109.5,0.984193,0.233442,1,104,1,1,9.89949,111,1.71717,7,positive,33,1,2,2,1,2,1,2,4,1,5,5,2,1,5,4,5,5,2,5,5,7,4,5,4,3,2,1,21,male,1,NA,1,N/A,2,NA,1,0,1,1,0,NA,3,1
NA,NA,118,134,NA,126,NA,NA,NA,140,120,136,129,0.984209,0.233469,1,105,2,1,9.9453,133,9.40746,5,negative,33,1,2,2,1,2,1,2,4,1,5,5,2,1,5,4,5,5,2,5,5,7,4,5,4,3,2,1,21,male,1,NA,1,N/A,2,NA,1,0,1,1,0,NA,3,1
NA,136,NA,NA,NA,NA,NA,NA,NA,NA,NA,NA,136,0.983737,0.250085,1,106,2,1,9.9453,133,2.44985,0,negative,33,1,2,2,1,2,1,2,4,1,5,5,2,1,5,4,5,5,2,5,5,7,4,5,4,3,2,1,21,male,1,NA,1,N/A,2,NA,1,0,1,1,0,NA,3,1
NA,NA,130,124,NA,108,128,114,NA,116,134,NA,122,1.00044,0.233489,1,107,4,1,9.9453,142,2.25317,6,negative,33,1,2,2,1,2,1,2,4,1,5,5,2,1,5,4,5,5,2,5,5,7,4,5,4,3,2,1,21,male,1,NA,1,N/A,2,NA,1,0,1,1,0,NA,3,1
119,NA,NA,NA,NA,113,109,115,123,133,135,NA,121,0.984227,0.23355,1,108,1,1,9.9453,111,1.18352,6,negative,33,1,2,2,1,2,1,2,4,1,5,5,2,1,5,4,5,5,2,5,5,7,4,5,4,3,2,1,21,male,1,NA,1,N/A,2,NA,1,0,1,1,0,NA,3,1
127,NA,NA,NA,125,NA,NA,103,NA,NA,105,NA,115,0.983955,0.233422,1,109,3,1,9.9453,128,3.28884,3,negative,33,1,2,2,1,2,1,2,4,1,5,5,2,1,5,4,5,5,2,5,5,7,4,5,4,3,2,1,21,male,1,NA,1,N/A,2,NA,1,0,1,1,0,NA,3,1
NA,131,117,NA,NA,115,127,137,NA,NA,NA,NA,125.4,0.984174,0.23352,1,110,2,1,9.9453,128,6.62269,4,negative,33,1,2,2,1,2,1,2,4,1,5,5,2,1,5,4,5,5,2,5,5,7,4,5,4,3,2,1,21,male,1,NA,1,N/A,2,NA,1,0,1,1,0,NA,3,1
139,148,NA,NA,145,150,128,150,127,125,NA,150,140.222,0.984063,0.233566,1,111,1,1,9.78364,129,1.33443,8,positive,33,1,2,2,1,2,1,2,4,1,5,5,2,1,5,4,5,5,2,5,5,7,4,5,4,3,2,1,21,male,1,NA,1,N/A,2,NA,1,0,1,1,0,NA,3,1
110,112,118,138,126,132,130,NA,NA,136,134,116,125.2,0.98423,0.2337,1,112,4,1,9.9453,118,1.5871,9,positive,33,1,2,2,1,2,1,2,4,1,5,5,2,1,5,4,5,5,2,5,5,7,4,5,4,3,2,1,21,male,1,NA,1,N/A,2,NA,1,0,1,1,0,NA,3,1
150,125,NA,145,148,128,NA,134,139,150,NA,NA,139.875,0.999932,0.250111,1,113,2,1,9.78364,150,2.89976,7,negative,33,1,2,2,1,2,1,2,4,1,5,5,2,1,5,4,5,5,2,5,5,7,4,5,4,3,2,1,21,male,1,NA,1,N/A,2,NA,1,0,1,1,0,NA,3,1
NA,NA,NA,104,102,NA,122,103,NA,NA,NA,NA,107.75,0.984085,0.233545,1,114,2,1,9.89949,106,8.98913,3,positive,33,1,2,2,1,2,1,2,4,1,5,5,2,1,5,4,5,5,2,5,5,7,4,5,4,3,2,1,21,male,1,NA,1,N/A,2,NA,1,0,1,1,0,NA,3,1
119,125,NA,137,113,135,NA,NA,115,121,141,139,127.222,0.984006,0.233602,1,115,1,1,9.9453,150,2.284,8,negative,33,1,2,2,1,2,1,2,4,1,5,5,2,1,5,4,5,5,2,5,5,7,4,5,4,3,2,1,21,male,1,NA,1,N/A,2,NA,1,0,1,1,0,NA,3,1
145,NA,147,NA,NA,NA,142,NA,122,NA,149,NA,141,0.984209,0.233571,1,116,3,1,9.98598,145,3.416,4,positive,33,1,2,2,1,2,1,2,4,1,5,5,2,1,5,4,5,5,2,5,5,7,4,5,4,3,2,1,21,male,1,NA,1,N/A,2,NA,1,0,1,1,0,NA,3,1
113,125,NA,127,NA,NA,NA,129,117,131,109,NA,121.571,0.984289,0.233534,1,117,2,1,9.9453,137,3.39591,6,negative,33,1,2,2,1,2,1,2,4,1,5,5,2,1,5,4,5,5,2,5,5,7,4,5,4,3,2,1,21,male,1,NA,1,N/A,2,NA,1,0,1,1,0,NA,3,1
NA,102,127,102,NA,107,113,122,105,104,NA,NA,110.25,0.984104,0.250139,1,118,4,1,9.89949,111,2.16728,7,negative,33,1,2,2,1,2,1,2,4,1,5,5,2,1,5,4,5,5,2,5,5,7,4,5,4,3,2,1,21,male,1,NA,1,N/A,2,NA,1,0,1,1,0,NA,3,1
116,130,NA,NA,120,126,134,NA,136,142,140,138,131.333,0.984248,0.250225,1,119,2,1,9.9453,150,5.93508,8,positive,33,1,2,2,1,2,1,2,4,1,5,5,2,1,5,4,5,5,2,5,5,7,4,5,4,3,2,1,21,male,1,NA,1,N/A,2,NA,1,0,1,1,0,NA,3,1
107,NA,117,125,NA,105,109,121,NA,129,NA,101,114.25,0.984138,0.233567,1,120,3,1,9.9453,101,3.83275,7,negative,33,1,2,2,1,2,1,2,4,1,5,5,2,1,5,4,5,5,2,5,5,7,4,5,4,3,2,1,21,male,1,NA,1,N/A,2,NA,1,0,1,1,0,NA,3,1
NA,113,131,NA,NA,NA,NA,107,NA,NA,NA,NA,117,0.98386,0.233475,1,121,3,1,9.9453,120,2.30881,2,positive,33,1,2,2,1,2,1,2,4,1,5,5,2,1,5,4,5,5,2,5,5,7,4,5,4,3,2,1,21,male,1,NA,1,N/A,2,NA,1,0,1,1,0,NA,3,1
105,109,131,123,115,107,127,119,103,125,129,111,117,0.984217,0.233562,1,122,4,1,9.9453,123,2.48626,11,negative,33,1,2,2,1,2,1,2,4,1,5,5,2,1,5,4,5,5,2,5,5,7,4,5,4,3,2,1,21,male,1,NA,1,N/A,2,NA,1,0,1,1,0,NA,3,1
NA,NA,135,NA,NA,NA,123,117,NA,115,139,131,126.667,0.984192,0.233547,1,123,2,1,9.9453,143,1.74354,5,positive,33,1,2,2,1,2,1,2,4,1,5,5,2,1,5,4,5,5,2,5,5,7,4,5,4,3,2,1,21,male,1,NA,1,N/A,2,NA,1,0,1,1,0,NA,3,1
NA,102,NA,NA,102,127,122,NA,119,NA,NA,102,112.333,0.984253,0.23352,1,124,3,1,9.89949,116,1.29525,5,negative,33,1,2,2,1,2,1,2,4,1,5,5,2,1,5,4,5,5,2,5,5,7,4,5,4,3,2,1,21,male,1,NA,1,N/A,2,NA,1,0,1,1,0,NA,3,1
131,137,NA,113,111,NA,125,NA,NA,109,NA,NA,121,0.984134,0.233565,1,125,1,1,9.9453,115,0.880574,5,positive,33,1,2,2,1,2,1,2,4,1,5,5,2,1,5,4,5,5,2,5,5,7,4,5,4,3,2,1,21,male,1,NA,1,N/A,2,NA,1,0,1,1,0,NA,3,1
NA,NA,NA,NA,NA,NA,126,108,NA,NA,NA,NA,117,0.983931,0.233463,1,126,3,1,9.9453,103,0.942642,1,negative,33,1,2,2,1,2,1,2,4,1,5,5,2,1,5,4,5,5,2,5,5,7,4,5,4,3,2,1,21,male,1,NA,1,N/A,2,NA,1,0,1,1,0,NA,3,1
NA,NA,NA,NA,NA,NA,114,NA,NA,136,NA,NA,125,0.983609,0.233633,1,127,2,1,9.9453,101,2.21613,1,negative,33,1,2,2,1,2,1,2,4,1,5,5,2,1,5,4,5,5,2,5,5,7,4,5,4,3,2,1,21,male,1,NA,1,N/A,2,NA,1,0,1,1,0,NA,3,1
107,126,NA,102,103,104,NA,127,NA,105,113,122,112.111,0.984228,0.233642,1,128,1,1,9.89949,107,10.3366,8,positive,33,1,2,2,1,2,1,2,4,1,5,5,2,1,5,4,5,5,2,5,5,7,4,5,4,3,2,1,21,male,1,NA,1,N/A,2,NA,1,0,1,1,0,NA,3,1
144,127,138,NA,126,147,149,124,134,150,133,147,138.091,0.984266,0.23359,1,129,4,1,9.88111,150,2.62194,10,positive,33,1,2,2,1,2,1,2,4,1,5,5,2,1,5,4,5,5,2,5,5,7,4,5,4,3,2,1,21,male,1,NA,1,N/A,2,NA,1,0,1,1,0,NA,3,1
NA,NA,NA,126,NA,NA,NA,134,NA,NA,NA,NA,130,0.983779,0.233495,1,130,3,1,9.9453,136,6.69764,1,negative,33,1,2,2,1,2,1,2,4,1,5,5,2,1,5,4,5,5,2,5,5,7,4,5,4,3,2,1,21,male,1,NA,1,N/A,2,NA,1,0,1,1,0,NA,3,1
124,NA,120,NA,NA,126,128,NA,122,NA,NA,148,128,0.984093,0.233602,1,131,4,1,9.9453,129,1.51322,5,negative,33,1,2,2,1,2,1,2,4,1,5,5,2,1,5,4,5,5,2,5,5,7,4,5,4,3,2,1,21,male,1,NA,1,N/A,2,NA,1,0,1,1,0,NA,3,1
NA,121,NA,NA,NA,NA,NA,NA,NA,NA,NA,NA,121,0.983822,0.233473,1,132,4,1,9.89949,126,2.51761,0,positive,33,1,2,2,1,2,1,2,4,1,5,5,2,1,5,4,5,5,2,5,5,7,4,5,4,3,2,1,21,male,1,NA,1,N/A,2,NA,1,0,1,1,0,NA,3,1
NA,NA,143,NA,NA,147,NA,NA,NA,NA,NA,NA,145,0.983993,0.233511,1,133,2,1,9.9453,135,2.06999,1,positive,33,1,2,2,1,2,1,2,4,1,5,5,2,1,5,4,5,5,2,5,5,7,4,5,4,3,2,1,21,male,1,NA,1,N/A,2,NA,1,0,1,1,0,NA,3,1
NA,150,135,148,145,139,127,NA,NA,128,150,148,141.111,0.984347,0.2336,1,134,3,1,9.78364,130,1.70421,8,positive,33,1,2,2,1,2,1,2,4,1,5,5,2,1,5,4,5,5,2,5,5,7,4,5,4,3,2,1,21,male,1,NA,1,N/A,2,NA,1,0,1,1,0,NA,3,1
103,128,123,106,103,114,104,120,103,127,105,108,112,0.984271,0.250078,1,135,4,1,9.89949,105,0.96835,11,negative,33,1,2,2,1,2,1,2,4,1,5,5,2,1,5,4,5,5,2,5,5,7,4,5,4,3,2,1,21,male,1,NA,1,N/A,2,NA,1,0,1,1,0,NA,3,1
NA,131,NA,113,NA,135,127,NA,NA,115,NA,123,124,0.984055,0.233492,1,136,1,1,9.9453,125,1.21453,5,positive,33,1,2,2,1,2,1,2,4,1,5,5,2,1,5,4,5,5,2,5,5,7,4,5,4,3,2,1,21,male,1,NA,1,N/A,2,NA,1,0,1,1,0,NA,3,1
139,115,137,117,123,111,113,119,135,127,131,133,125,0.984527,0.233561,1,137,3,1,9.9453,115,1.83595,11,positive,33,1,2,2,1,2,1,2,4,1,5,5,2,1,5,4,5,5,2,5,5,7,4,5,4,3,2,1,21,male,1,NA,1,N/A,2,NA,1,0,1,1,0,NA,3,1
NA,121,NA,NA,104,103,NA,125,NA,101,101,NA,109.167,0.98386,0.250155,1,138,1,1,9.89949,128,3.31067,5,positive,33,1,2,2,1,2,1,2,4,1,5,5,2,1,5,4,5,5,2,5,5,7,4,5,4,3,2,1,21,male,1,NA,1,N/A,2,NA,1,0,1,1,0,NA,3,1
NA,134,NA,147,138,149,149,147,150,124,126,127,139.1,0.984239,0.233565,1,139,4,1,9.88111,133,2.57482,9,negative,33,1,2,2,1,2,1,2,4,1,5,5,2,1,5,4,5,5,2,5,5,7,4,5,4,3,2,1,21,male,1,NA,1,N/A,2,NA,1,0,1,1,0,NA,3,1
NA,135,NA,115,NA,137,129,113,131,125,121,117,124.778,0.984302,0.233553,1,140,1,1,9.9453,123,3.03232,8,positive,33,1,2,2,1,2,1,2,4,1,5,5,2,1,5,4,5,5,2,5,5,7,4,5,4,3,2,1,21,male,1,NA,1,N/A,2,NA,1,0,1,1,0,NA,3,1
NA,NA,NA,NA,139,145,127,NA,148,NA,150,NA,141.8,0.983789,0.250085,1,141,4,1,9.78364,147,3.33875,4,negative,33,1,2,2,1,2,1,2,4,1,5,5,2,1,5,4,5,5,2,5,5,7,4,5,4,3,2,1,21,male,1,NA,1,N/A,2,NA,1,0,1,1,0,NA,3,1
NA,NA,129,NA,NA,NA,NA,NA,NA,NA,NA,NA,129,0.983689,0.250054,1,142,4,1,9.9453,129,2.42811,0,positive,33,1,2,2,1,2,1,2,4,1,5,5,2,1,5,4,5,5,2,5,5,7,4,5,4,3,2,1,21,male,1,NA,1,N/A,2,NA,1,0,1,1,0,NA,3,1
NA,135,NA,NA,127,131,133,109,NA,107,123,115,122.5,0.984133,0.233503,1,143,3,1,9.9453,133,1.41529,7,negative,33,1,2,2,1,2,1,2,4,1,5,5,2,1,5,4,5,5,2,5,5,7,4,5,4,3,2,1,21,male,1,NA,1,N/A,2,NA,1,0,1,1,0,NA,3,1
NA,110,NA,126,130,NA,132,NA,108,104,NA,NA,118.333,0.984169,0.233467,1,144,1,1,9.9453,125,1.33361,5,negative,33,1,2,2,1,2,1,2,4,1,5,5,2,1,5,4,5,5,2,5,5,7,4,5,4,3,2,1,21,male,1,NA,1,N/A,2,NA,1,0,1,1,0,NA,3,1
NA,NA,NA,NA,NA,NA,101,NA,NA,112,NA,NA,106.5,0.983819,0.233573,1,145,3,1,9.89949,126,1.34904,1,positive,33,1,2,2,1,2,1,2,4,1,5,5,2,1,5,4,5,5,2,5,5,7,4,5,4,3,2,1,21,male,1,NA,1,N/A,2,NA,1,0,1,1,0,NA,3,1
NA,NA,NA,NA,105,NA,NA,NA,NA,NA,NA,NA,105,0.983906,0.250059,1,146,2,1,9.89949,111,1.33351,0,negative,33,1,2,2,1,2,1,2,4,1,5,5,2,1,5,4,5,5,2,5,5,7,4,5,4,3,2,1,21,male,1,NA,1,N/A,2,NA,1,0,1,1,0,NA,3,1
109,115,129,111,107,133,NA,NA,135,123,119,113,119.4,0.98399,0.233546,1,147,3,1,9.9453,127,1.56763,9,positive,33,1,2,2,1,2,1,2,4,1,5,5,2,1,5,4,5,5,2,5,5,7,4,5,4,3,2,1,21,male,1,NA,1,N/A,2,NA,1,0,1,1,0,NA,3,1
NA,NA,NA,NA,NA,NA,125,121,NA,NA,NA,133,126.333,0.983988,0.233448,1,148,2,1,9.9453,120,1.61319,2,positive,33,1,2,2,1,2,1,2,4,1,5,5,2,1,5,4,5,5,2,5,5,7,4,5,4,3,2,1,21,male,1,NA,1,N/A,2,NA,1,0,1,1,0,NA,3,1
NA,109,NA,125,NA,129,NA,NA,NA,NA,NA,NA,121,0.984025,0.233508,1,149,4,1,9.9453,127,2.50112,2,negative,33,1,2,2,1,2,1,2,4,1,5,5,2,1,5,4,5,5,2,5,5,7,4,5,4,3,2,1,21,male,1,NA,1,N/A,2,NA,1,0,1,1,0,NA,3,1
120,118,122,NA,NA,134,NA,140,114,138,NA,NA,126.571,0.984392,0.233601,1,150,4,1,9.9453,111,0.850244,6,negative,33,1,2,2,1,2,1,2,4,1,5,5,2,1,5,4,5,5,2,5,5,7,4,5,4,3,2,1,21,male,1,NA,1,N/A,2,NA,1,0,1,1,0,NA,3,1
NA,101,118,121,106,NA,101,126,112,NA,NA,125,113.75,0.990597,0.233467,2,1,1,1,9.89949,115,3.42148,7,positive,34,3,2,1,1,1,3,2,4,2,4,4,1,4,4,3,3,4,2,7,4,4,6,6,6,7,4,3,19,male,1,NA,1,n/a,2,NA,0,0,1,1,1,NA,3,1
NA,111,NA,115,119,129,NA,125,NA,127,105,NA,118.714,0.999371,0.249994,2,2,4,1,9.9453,115,5.05103,6,positive,34,3,2,1,1,1,3,2,4,2,4,4,1,4,4,3,3,4,2,7,4,4,6,6,6,7,4,3,19,male,1,NA,1,n/a,2,NA,0,0,1,1,1,NA,3,1
149,129,147,141,145,133,137,123,127,125,121,143,135,0.984405,0.233575,2,3,2,1,9.9453,126,3.40131,11,positive,34,3,2,1,1,1,3,2,4,2,4,4,1,4,4,3,3,4,2,7,4,4,6,6,6,7,4,3,19,male,1,NA,1,n/a,2,NA,0,0,1,1,1,NA,3,1
NA,NA,134,NA,NA,NA,NA,NA,126,122,NA,NA,127.333,0.983837,0.233418,2,4,1,1,9.9453,135,1.96675,2,negative,34,3,2,1,1,1,3,2,4,2,4,4,1,4,4,3,3,4,2,7,4,4,6,6,6,7,4,3,19,male,1,NA,1,n/a,2,NA,0,0,1,1,1,NA,3,1
125,119,107,109,111,127,131,115,103,NA,105,129,116.455,0.984012,0.233558,2,5,1,1,9.9453,107,8.09797,10,positive,34,3,2,1,1,1,3,2,4,2,4,4,1,4,4,3,3,4,2,7,4,4,6,6,6,7,4,3,19,male,1,NA,1,n/a,2,NA,0,0,1,1,1,NA,3,1
119,137,117,NA,139,NA,113,111,115,NA,NA,133,123,0.98399,0.233518,2,6,4,1,9.9453,111,2.08996,7,negative,34,3,2,1,1,1,3,2,4,2,4,4,1,4,4,3,3,4,2,7,4,4,6,6,6,7,4,3,19,male,1,NA,1,n/a,2,NA,0,0,1,1,1,NA,3,1
118,NA,126,142,122,130,140,144,138,NA,124,120,130.4,0.984293,0.2336,2,7,2,1,9.9453,120,1.83152,9,negative,34,3,2,1,1,1,3,2,4,2,4,4,1,4,4,3,3,4,2,7,4,4,6,6,6,7,4,3,19,male,1,NA,1,n/a,2,NA,0,0,1,1,1,NA,3,1
NA,NA,105,103,NA,NA,NA,NA,103,NA,128,120,111.8,0.983903,0.233476,2,8,1,1,9.89949,109,3.7395,4,positive,34,3,2,1,1,1,3,2,4,2,4,4,1,4,4,3,3,4,2,7,4,4,6,6,6,7,4,3,19,male,1,NA,1,n/a,2,NA,0,0,1,1,1,NA,3,1
NA,130,NA,122,NA,NA,NA,134,NA,NA,NA,126,128,0.984076,0.233474,2,9,1,1,9.9453,125,7.35055,3,positive,34,3,2,1,1,1,3,2,4,2,4,4,1,4,4,3,3,4,2,7,4,4,6,6,6,7,4,3,19,male,1,NA,1,n/a,2,NA,0,0,1,1,1,NA,3,1
126,120,NA,138,NA,142,140,118,124,130,134,122,129.4,0.983987,0.233644,2,10,4,1,9.9453,130,3.99229,9,positive,34,3,2,1,1,1,3,2,4,2,4,4,1,4,4,3,3,4,2,7,4,4,6,6,6,7,4,3,19,male,1,NA,1,n/a,2,NA,0,0,1,1,1,NA,3,1
113,133,131,NA,NA,121,109,NA,117,NA,129,127,122.5,0.98414,0.233575,2,11,4,1,9.9453,133,7.66153,7,negative,34,3,2,1,1,1,3,2,4,2,4,4,1,4,4,3,3,4,2,7,4,4,6,6,6,7,4,3,19,male,1,NA,1,n/a,2,NA,0,0,1,1,1,NA,3,1
NA,119,NA,NA,NA,123,NA,NA,NA,NA,NA,NA,121,0.983963,0.233495,2,12,2,1,9.9453,137,4.61067,1,positive,34,3,2,1,1,1,3,2,4,2,4,4,1,4,4,3,3,4,2,7,4,4,6,6,6,7,4,3,19,male,1,NA,1,n/a,2,NA,0,0,1,1,1,NA,3,1
NA,129,NA,NA,NA,NA,NA,NA,NA,NA,NA,NA,129,1.0001,0.233467,2,13,4,1,9.9453,131,2.29831,0,positive,34,3,2,1,1,1,3,2,4,2,4,4,1,4,4,3,3,4,2,7,4,4,6,6,6,7,4,3,19,male,1,NA,1,n/a,2,NA,0,0,1,1,1,NA,3,1
104,NA,NA,127,NA,113,NA,102,126,103,119,NA,113.429,0.999908,0.233552,2,14,4,1,9.89949,119,4.71082,6,positive,34,3,2,1,1,1,3,2,4,2,4,4,1,4,4,3,3,4,2,7,4,4,6,6,6,7,4,3,19,male,1,NA,1,n/a,2,NA,0,0,1,1,1,NA,3,1
NA,NA,133,NA,117,NA,NA,113,NA,NA,NA,NA,121,0.984047,0.233472,2,15,2,1,9.9453,112,2.89832,2,negative,34,3,2,1,1,1,3,2,4,2,4,4,1,4,4,3,3,4,2,7,4,4,6,6,6,7,4,3,19,male,1,NA,1,n/a,2,NA,0,0,1,1,1,NA,3,1
NA,122,110,NA,NA,NA,118,NA,NA,NA,NA,106,114,0.984028,0.233523,2,16,4,1,9.9453,112,2.55099,3,positive,34,3,2,1,1,1,3,2,4,2,4,4,1,4,4,3,3,4,2,7,4,4,6,6,6,7,4,3,19,male,1,NA,1,n/a,2,NA,0,0,1,1,1,NA,3,1
128,NA,125,NA,127,150,135,150,148,NA,148,134,138.333,0.984052,0.233605,2,17,1,1,9.78364,123,2.90988,8,positive,34,3,2,1,1,1,3,2,4,2,4,4,1,4,4,3,3,4,2,7,4,4,6,6,6,7,4,3,19,male,1,NA,1,n/a,2,NA,0,0,1,1,1,NA,3,1
125,105,107,105,110,129,105,130,108,116,106,122,114,0.984303,0.233554,2,18,4,1,9.89949,120,3.1502,11,positive,34,3,2,1,1,1,3,2,4,2,4,4,1,4,4,3,3,4,2,7,4,4,6,6,6,7,4,3,19,male,1,NA,1,n/a,2,NA,0,0,1,1,1,NA,3,1
122,NA,128,120,140,132,144,124,136,126,142,NA,131.4,0.983967,0.250152,2,19,4,1,9.9453,128,1.76827,9,negative,34,3,2,1,1,1,3,2,4,2,4,4,1,4,4,3,3,4,2,7,4,4,6,6,6,7,4,3,19,male,1,NA,1,n/a,2,NA,0,0,1,1,1,NA,3,1
129,121,119,141,NA,117,137,123,139,125,145,143,130.818,0.984325,0.233479,2,20,2,1,9.9453,129,2.0341,10,negative,34,3,2,1,1,1,3,2,4,2,4,4,1,4,4,3,3,4,2,7,4,4,6,6,6,7,4,3,19,male,1,NA,1,n/a,2,NA,0,0,1,1,1,NA,3,1
NA,NA,NA,NA,NA,NA,NA,NA,NA,NA,117,NA,117,0.983712,0.233478,2,21,2,1,9.9453,128,2.54993,0,positive,34,3,2,1,1,1,3,2,4,2,4,4,1,4,4,3,3,4,2,7,4,4,6,6,6,7,4,3,19,male,1,NA,1,n/a,2,NA,0,0,1,1,1,NA,3,1
137,NA,148,NA,NA,NA,NA,NA,133,NA,NA,NA,139.333,0.983848,0.233498,2,22,2,1,9.98598,138,2.68879,2,negative,34,3,2,1,1,1,3,2,4,2,4,4,1,4,4,3,3,4,2,7,4,4,6,6,6,7,4,3,19,male,1,NA,1,n/a,2,NA,0,0,1,1,1,NA,3,1
NA,132,NA,120,114,108,130,134,124,136,128,116,124.2,0.984206,0.233506,2,23,3,1,9.9453,120,1.23761,9,positive,34,3,2,1,1,1,3,2,4,2,4,4,1,4,4,3,3,4,2,7,4,4,6,6,6,7,4,3,19,male,1,NA,1,n/a,2,NA,0,0,1,1,1,NA,3,1
146,123,NA,NA,NA,NA,NA,NA,NA,132,NA,NA,133.667,0.983788,0.233507,2,24,1,1,9.98598,130,2.34888,2,positive,34,3,2,1,1,1,3,2,4,2,4,4,1,4,4,3,3,4,2,7,4,4,6,6,6,7,4,3,19,male,1,NA,1,n/a,2,NA,0,0,1,1,1,NA,3,1
103,120,127,128,104,106,108,114,103,103,105,123,112,0.984209,0.25006,2,25,2,1,9.89949,126,1.54258,11,positive,34,3,2,1,1,1,3,2,4,2,4,4,1,4,4,3,3,4,2,7,4,4,6,6,6,7,4,3,19,male,1,NA,1,n/a,2,NA,0,0,1,1,1,NA,3,1
NA,NA,NA,NA,NA,NA,136,132,NA,NA,124,134,131.5,1.00005,0.233487,2,26,1,1,9.9453,118,1.75708,3,positive,34,3,2,1,1,1,3,2,4,2,4,4,1,4,4,3,3,4,2,7,4,4,6,6,6,7,4,3,19,male,1,NA,1,n/a,2,NA,0,0,1,1,1,NA,3,1
NA,NA,NA,NA,139,NA,117,NA,NA,NA,NA,NA,128,0.98361,0.233456,2,27,3,1,9.9453,121,1.58372,1,positive,34,3,2,1,1,1,3,2,4,2,4,4,1,4,4,3,3,4,2,7,4,4,6,6,6,7,4,3,19,male,1,NA,1,n/a,2,NA,0,0,1,1,1,NA,3,1
130,NA,NA,116,NA,NA,NA,NA,NA,NA,118,NA,121.333,0.983668,0.233591,2,28,3,1,9.9453,120,1.28137,2,positive,34,3,2,1,1,1,3,2,4,2,4,4,1,4,4,3,3,4,2,7,4,4,6,6,6,7,4,3,19,male,1,NA,1,n/a,2,NA,0,0,1,1,1,NA,3,1
NA,NA,111,NA,NA,115,NA,NA,127,NA,NA,NA,117.667,1.00022,0.23348,2,29,3,1,9.9453,122,0.998273,2,positive,34,3,2,1,1,1,3,2,4,2,4,4,1,4,4,3,3,4,2,7,4,4,6,6,6,7,4,3,19,male,1,NA,1,n/a,2,NA,0,0,1,1,1,NA,3,1
NA,130,NA,NA,NA,NA,NA,138,NA,NA,NA,NA,134,0.983595,0.233714,2,30,2,1,9.9453,133,1.83908,1,negative,34,3,2,1,1,1,3,2,4,2,4,4,1,4,4,3,3,4,2,7,4,4,6,6,6,7,4,3,19,male,1,NA,1,n/a,2,NA,0,0,1,1,1,NA,3,1
NA,NA,NA,NA,NA,NA,122,NA,NA,NA,NA,NA,122,0.983488,0.233537,2,31,2,1,9.9453,125,1.30231,0,negative,34,3,2,1,1,1,3,2,4,2,4,4,1,4,4,3,3,4,2,7,4,4,6,6,6,7,4,3,19,male,1,NA,1,n/a,2,NA,0,0,1,1,1,NA,3,1
119,126,105,122,102,104,103,107,102,NA,113,127,111.818,1.00081,0.233485,2,32,1,1,9.89949,129,1.3984,10,negative,34,3,2,1,1,1,3,2,4,2,4,4,1,4,4,3,3,4,2,7,4,4,6,6,6,7,4,3,19,male,1,NA,1,n/a,2,NA,0,0,1,1,1,NA,3,1
102,NA,126,110,122,104,NA,124,130,114,NA,106,115.333,0.984287,0.233475,2,33,1,1,9.9453,130,1.76318,8,negative,34,3,2,1,1,1,3,2,4,2,4,4,1,4,4,3,3,4,2,7,4,4,6,6,6,7,4,3,19,male,1,NA,1,n/a,2,NA,0,0,1,1,1,NA,3,1
137,133,135,117,NA,123,111,127,113,139,115,NA,125,0.984228,0.233513,2,34,4,1,9.9453,124,1.60754,9,negative,34,3,2,1,1,1,3,2,4,2,4,4,1,4,4,3,3,4,2,7,4,4,6,6,6,7,4,3,19,male,1,NA,1,n/a,2,NA,0,0,1,1,1,NA,3,1
NA,NA,NA,NA,NA,NA,NA,118,128,NA,NA,126,124,0.983779,0.233554,2,35,1,1,9.9453,124,2.20761,2,positive,34,3,2,1,1,1,3,2,4,2,4,4,1,4,4,3,3,4,2,7,4,4,6,6,6,7,4,3,19,male,1,NA,1,n/a,2,NA,0,0,1,1,1,NA,3,1
125,119,141,139,117,135,133,115,129,113,137,121,127,1.00068,0.233532,2,36,4,1,9.9453,137,1.61485,11,positive,34,3,2,1,1,1,3,2,4,2,4,4,1,4,4,3,3,4,2,7,4,4,6,6,6,7,4,3,19,male,1,NA,1,n/a,2,NA,0,0,1,1,1,NA,3,1
NA,NA,NA,NA,130,NA,105,108,NA,NA,110,107,112,0.983904,0.233597,2,37,2,1,9.89949,129,4.41077,4,positive,34,3,2,1,1,1,3,2,4,2,4,4,1,4,4,3,3,4,2,7,4,4,6,6,6,7,4,3,19,male,1,NA,1,n/a,2,NA,0,0,1,1,1,NA,3,1
126,134,110,122,128,112,106,130,108,NA,114,118,118.909,0.984167,0.233525,2,38,3,1,9.9453,123,1.25373,10,positive,34,3,2,1,1,1,3,2,4,2,4,4,1,4,4,3,3,4,2,7,4,4,6,6,6,7,4,3,19,male,1,NA,1,n/a,2,NA,0,0,1,1,1,NA,3,1
NA,NA,118,NA,NA,NA,112,NA,122,114,NA,130,119.2,0.984046,0.233466,2,39,2,1,9.9453,123,2.75636,4,negative,34,3,2,1,1,1,3,2,4,2,4,4,1,4,4,3,3,4,2,7,4,4,6,6,6,7,4,3,19,male,1,NA,1,n/a,2,NA,0,0,1,1,1,NA,3,1
111,113,131,127,119,123,135,107,115,NA,133,129,122.091,0.984081,0.233625,2,40,4,1,9.9453,126,1.33384,10,positive,34,3,2,1,1,1,3,2,4,2,4,4,1,4,4,3,3,4,2,7,4,4,6,6,6,7,4,3,19,male,1,NA,1,n/a,2,NA,0,0,1,1,1,NA,3,1
117,125,129,131,121,135,115,113,NA,109,111,133,121.727,1.00069,0.233597,2,41,2,1,9.9453,123,1.15196,10,positive,34,3,2,1,1,1,3,2,4,2,4,4,1,4,4,3,3,4,2,7,4,4,6,6,6,7,4,3,19,male,1,NA,1,n/a,2,NA,0,0,1,1,1,NA,3,1
132,142,144,124,116,NA,NA,120,138,118,140,128,130.2,0.984193,0.233584,2,42,2,1,9.9453,124,1.68998,9,positive,34,3,2,1,1,1,3,2,4,2,4,4,1,4,4,3,3,4,2,7,4,4,6,6,6,7,4,3,19,male,1,NA,1,n/a,2,NA,0,0,1,1,1,NA,3,1
NA,NA,NA,NA,109,NA,NA,NA,NA,NA,NA,NA,109,0.98347,0.233456,2,43,2,1,9.89949,124,1.53852,0,negative,34,3,2,1,1,1,3,2,4,2,4,4,1,4,4,3,3,4,2,7,4,4,6,6,6,7,4,3,19,male,1,NA,1,n/a,2,NA,0,0,1,1,1,NA,3,1
NA,NA,103,105,127,NA,NA,NA,NA,103,114,NA,110.4,1.00021,0.250032,2,44,4,1,9.89949,112,1.08353,4,negative,34,3,2,1,1,1,3,2,4,2,4,4,1,4,4,3,3,4,2,7,4,4,6,6,6,7,4,3,19,male,1,NA,1,n/a,2,NA,0,0,1,1,1,NA,3,1
NA,NA,NA,NA,NA,NA,NA,NA,NA,139,NA,NA,139,0.983648,0.233484,2,45,3,1,9.9453,137,1.64894,0,negative,34,3,2,1,1,1,3,2,4,2,4,4,1,4,4,3,3,4,2,7,4,4,6,6,6,7,4,3,19,male,1,NA,1,n/a,2,NA,0,0,1,1,1,NA,3,1
NA,NA,NA,NA,NA,NA,NA,NA,125,NA,NA,NA,125,1.00004,0.250089,2,46,3,1,9.98598,123,1.64583,0,positive,34,3,2,1,1,1,3,2,4,2,4,4,1,4,4,3,3,4,2,7,4,4,6,6,6,7,4,3,19,male,1,NA,1,n/a,2,NA,0,0,1,1,1,NA,3,1
NA,NA,NA,NA,NA,NA,NA,NA,NA,NA,NA,115,115,1.00004,0.250053,2,47,3,1,9.9453,140,1.9233,0,negative,34,3,2,1,1,1,3,2,4,2,4,4,1,4,4,3,3,4,2,7,4,4,6,6,6,7,4,3,19,male,1,NA,1,n/a,2,NA,0,0,1,1,1,NA,3,1
115,107,129,131,NA,123,133,135,127,113,119,109,121.909,1.00054,0.250165,2,48,3,1,9.9453,122,1.53263,10,positive,34,3,2,1,1,1,3,2,4,2,4,4,1,4,4,3,3,4,2,7,4,4,6,6,6,7,4,3,19,male,1,NA,1,n/a,2,NA,0,0,1,1,1,NA,3,1
NA,NA,NA,133,NA,115,NA,NA,NA,NA,NA,NA,124,1.00026,0.233483,2,49,1,1,9.9453,124,1.35867,1,positive,34,3,2,1,1,1,3,2,4,2,4,4,1,4,4,3,3,4,2,7,4,4,6,6,6,7,4,3,19,male,1,NA,1,n/a,2,NA,0,0,1,1,1,NA,3,1
NA,NA,NA,140,NA,NA,NA,NA,134,NA,NA,NA,137,1.00018,0.250063,2,50,3,1,9.9453,143,2.10283,1,negative,34,3,2,1,1,1,3,2,4,2,4,4,1,4,4,3,3,4,2,7,4,4,6,6,6,7,4,3,19,male,1,NA,1,n/a,2,NA,0,0,1,1,1,NA,3,1
114,124,118,116,134,NA,128,140,138,136,120,132,127.273,1.00006,0.250114,2,51,2,1,9.9453,117,1.2644,10,negative,34,3,2,1,1,1,3,2,4,2,4,4,1,4,4,3,3,4,2,7,4,4,6,6,6,7,4,3,19,male,1,NA,1,n/a,2,NA,0,0,1,1,1,NA,3,1
137,NA,126,133,125,146,146,NA,148,150,123,NA,137.111,0.983888,0.250157,2,52,4,1,9.98598,132,2.66122,8,negative,34,3,2,1,1,1,3,2,4,2,4,4,1,4,4,3,3,4,2,7,4,4,6,6,6,7,4,3,19,male,1,NA,1,n/a,2,NA,0,0,1,1,1,NA,3,1
102,102,107,NA,NA,113,103,122,104,126,119,102,110,0.984336,0.23351,2,53,1,1,9.89949,118,1.38806,9,positive,34,3,2,1,1,1,3,2,4,2,4,4,1,4,4,3,3,4,2,7,4,4,6,6,6,7,4,3,19,male,1,NA,1,n/a,2,NA,0,0,1,1,1,NA,3,1
NA,NA,NA,123,NA,NA,NA,NA,NA,NA,NA,NA,123,0.983832,0.23342,2,54,3,1,9.9453,131,2.12908,0,positive,34,3,2,1,1,1,3,2,4,2,4,4,1,4,4,3,3,4,2,7,4,4,6,6,6,7,4,3,19,male,1,NA,1,n/a,2,NA,0,0,1,1,1,NA,3,1
127,NA,113,131,123,137,117,139,115,111,133,NA,124.6,0.984159,0.233554,2,55,3,1,9.9453,123,1.59109,9,positive,34,3,2,1,1,1,3,2,4,2,4,4,1,4,4,3,3,4,2,7,4,4,6,6,6,7,4,3,19,male,1,NA,1,n/a,2,NA,0,0,1,1,1,NA,3,1
NA,NA,128,NA,NA,NA,NA,NA,NA,130,134,NA,130.667,0.983653,0.233491,2,56,3,1,9.9453,125,2.05582,2,negative,34,3,2,1,1,1,3,2,4,2,4,4,1,4,4,3,3,4,2,7,4,4,6,6,6,7,4,3,19,male,1,NA,1,n/a,2,NA,0,0,1,1,1,NA,3,1
NA,NA,115,NA,123,133,NA,NA,NA,NA,NA,NA,123.667,0.999767,0.250118,2,57,2,1,9.9453,123,1.97129,2,negative,34,3,2,1,1,1,3,2,4,2,4,4,1,4,4,3,3,4,2,7,4,4,6,6,6,7,4,3,19,male,1,NA,1,n/a,2,NA,0,0,1,1,1,NA,3,1
118,124,144,126,134,NA,130,122,142,120,140,146,131.455,0.984043,0.233643,2,58,2,1,9.9453,127,1.7357,10,negative,34,3,2,1,1,1,3,2,4,2,4,4,1,4,4,3,3,4,2,7,4,4,6,6,6,7,4,3,19,male,1,NA,1,n/a,2,NA,0,0,1,1,1,NA,3,1
150,128,145,134,NA,150,148,NA,NA,150,148,127,142.222,0.983883,0.25013,2,59,1,1,9.78364,133,2.03829,8,negative,34,3,2,1,1,1,3,2,4,2,4,4,1,4,4,3,3,4,2,7,4,4,6,6,6,7,4,3,19,male,1,NA,1,n/a,2,NA,0,0,1,1,1,NA,3,1
147,131,149,147,142,122,145,145,NA,136,124,125,137.545,0.984367,0.233524,2,60,1,1,9.98598,132,1.57996,10,negative,34,3,2,1,1,1,3,2,4,2,4,4,1,4,4,3,3,4,2,7,4,4,6,6,6,7,4,3,19,male,1,NA,1,n/a,2,NA,0,0,1,1,1,NA,3,1
143,123,NA,137,131,119,127,135,141,115,117,139,129.727,0.984219,0.233545,2,61,1,1,9.9453,135,2.72855,10,negative,34,3,2,1,1,1,3,2,4,2,4,4,1,4,4,3,3,4,2,7,4,4,6,6,6,7,4,3,19,male,1,NA,1,n/a,2,NA,0,0,1,1,1,NA,3,1
137,119,NA,NA,NA,113,117,123,NA,139,127,NA,125,0.983886,0.233485,2,62,1,1,9.9453,121,1.77898,6,positive,34,3,2,1,1,1,3,2,4,2,4,4,1,4,4,3,3,4,2,7,4,4,6,6,6,7,4,3,19,male,1,NA,1,n/a,2,NA,0,0,1,1,1,NA,3,1
105,127,103,NA,103,103,106,114,NA,NA,123,120,111.556,0.98386,0.233522,2,63,4,1,9.89949,124,1.7237,8,negative,34,3,2,1,1,1,3,2,4,2,4,4,1,4,4,3,3,4,2,7,4,4,6,6,6,7,4,3,19,male,1,NA,1,n/a,2,NA,0,0,1,1,1,NA,3,1
144,128,NA,124,146,148,122,NA,132,136,140,NA,135.556,0.984202,0.23354,2,64,1,1,9.9453,115,1.7942,8,negative,34,3,2,1,1,1,3,2,4,2,4,4,1,4,4,3,3,4,2,7,4,4,6,6,6,7,4,3,19,male,1,NA,1,n/a,2,NA,0,0,1,1,1,NA,3,1
118,134,NA,138,112,NA,116,110,NA,NA,114,126,121,0.984074,0.250134,2,65,4,1,9.9453,121,1.36244,7,negative,34,3,2,1,1,1,3,2,4,2,4,4,1,4,4,3,3,4,2,7,4,4,6,6,6,7,4,3,19,male,1,NA,1,n/a,2,NA,0,0,1,1,1,NA,3,1
110,116,NA,114,128,124,NA,132,112,108,120,136,120,0.984069,0.233618,2,66,1,1,9.9453,118,1.38803,9,negative,34,3,2,1,1,1,3,2,4,2,4,4,1,4,4,3,3,4,2,7,4,4,6,6,6,7,4,3,19,male,1,NA,1,n/a,2,NA,0,0,1,1,1,NA,3,1
NA,117,NA,NA,NA,129,141,123,121,133,145,143,131.5,0.984151,0.233517,2,67,1,1,9.9453,114,1.03196,7,negative,34,3,2,1,1,1,3,2,4,2,4,4,1,4,4,3,3,4,2,7,4,4,6,6,6,7,4,3,19,male,1,NA,1,n/a,2,NA,0,0,1,1,1,NA,3,1
NA,NA,NA,NA,NA,NA,NA,NA,129,NA,NA,125,127,0.984083,0.233501,2,68,3,1,9.9453,124,1.67004,1,negative,34,3,2,1,1,1,3,2,4,2,4,4,1,4,4,3,3,4,2,7,4,4,6,6,6,7,4,3,19,male,1,NA,1,n/a,2,NA,0,0,1,1,1,NA,3,1
NA,144,NA,120,140,142,122,138,130,124,118,146,132.4,0.984296,0.233451,2,69,3,1,9.9453,126,2.37452,9,positive,34,3,2,1,1,1,3,2,4,2,4,4,1,4,4,3,3,4,2,7,4,4,6,6,6,7,4,3,19,male,1,NA,1,n/a,2,NA,0,0,1,1,1,NA,3,1
NA,123,133,125,148,126,NA,NA,132,150,143,NA,135,0.98428,0.233597,2,70,3,1,9.98598,123,1.26267,7,negative,34,3,2,1,1,1,3,2,4,2,4,4,1,4,4,3,3,4,2,7,4,4,6,6,6,7,4,3,19,male,1,NA,1,n/a,2,NA,0,0,1,1,1,NA,3,1
NA,NA,138,NA,NA,116,NA,NA,NA,114,NA,NA,122.667,0.983684,0.250081,2,71,1,1,9.9453,119,1.5196,2,positive,34,3,2,1,1,1,3,2,4,2,4,4,1,4,4,3,3,4,2,7,4,4,6,6,6,7,4,3,19,male,1,NA,1,n/a,2,NA,0,0,1,1,1,NA,3,1
NA,NA,NA,NA,141,NA,NA,NA,NA,125,NA,NA,133,0.983771,0.25006,2,72,3,1,9.9453,123,1.60835,1,negative,34,3,2,1,1,1,3,2,4,2,4,4,1,4,4,3,3,4,2,7,4,4,6,6,6,7,4,3,19,male,1,NA,1,n/a,2,NA,0,0,1,1,1,NA,3,1
NA,NA,148,NA,NA,132,125,NA,146,NA,NA,NA,137.75,0.984241,0.233491,2,73,2,1,9.98598,124,1.5673,3,negative,34,3,2,1,1,1,3,2,4,2,4,4,1,4,4,3,3,4,2,7,4,4,6,6,6,7,4,3,19,male,1,NA,1,n/a,2,NA,0,0,1,1,1,NA,3,1
NA,130,NA,NA,132,NA,NA,114,122,126,NA,NA,124.8,0.983941,0.250123,2,74,4,1,9.9453,134,1.91129,4,positive,34,3,2,1,1,1,3,2,4,2,4,4,1,4,4,3,3,4,2,7,4,4,6,6,6,7,4,3,19,male,1,NA,1,n/a,2,NA,0,0,1,1,1,NA,3,1
128,134,106,118,108,NA,114,122,NA,110,NA,130,118.889,0.98438,0.233637,2,75,1,1,9.9453,133,2.26582,8,negative,34,3,2,1,1,1,3,2,4,2,4,4,1,4,4,3,3,4,2,7,4,4,6,6,6,7,4,3,19,male,1,NA,1,n/a,2,NA,0,0,1,1,1,NA,3,1
NA,NA,NA,138,NA,130,NA,NA,NA,112,NA,NA,126.667,0.983787,0.250073,2,76,2,1,9.9453,123,1.67702,2,negative,34,3,2,1,1,1,3,2,4,2,4,4,1,4,4,3,3,4,2,7,4,4,6,6,6,7,4,3,19,male,1,NA,1,n/a,2,NA,0,0,1,1,1,NA,3,1
104,128,114,130,108,122,106,110,126,102,124,118,116,0.984376,0.233536,2,77,4,1,9.9453,119,1.90468,11,positive,34,3,2,1,1,1,3,2,4,2,4,4,1,4,4,3,3,4,2,7,4,4,6,6,6,7,4,3,19,male,1,NA,1,n/a,2,NA,0,0,1,1,1,NA,3,1
NA,127,NA,NA,NA,NA,131,NA,NA,NA,NA,NA,129,0.983774,0.233446,2,78,1,1,9.9453,126,2.65126,1,negative,34,3,2,1,1,1,3,2,4,2,4,4,1,4,4,3,3,4,2,7,4,4,6,6,6,7,4,3,19,male,1,NA,1,n/a,2,NA,0,0,1,1,1,NA,3,1
NA,145,147,NA,NA,NA,NA,NA,145,NA,NA,NA,145.667,0.9839,0.233574,2,79,3,1,9.98598,148,3.48773,2,negative,34,3,2,1,1,1,3,2,4,2,4,4,1,4,4,3,3,4,2,7,4,4,6,6,6,7,4,3,19,male,1,NA,1,n/a,2,NA,0,0,1,1,1,NA,3,1
NA,135,NA,115,133,NA,NA,NA,NA,NA,NA,NA,127.667,0.984139,0.233511,2,80,2,1,9.9453,128,1.42615,2,positive,34,3,2,1,1,1,3,2,4,2,4,4,1,4,4,3,3,4,2,7,4,4,6,6,6,7,4,3,19,male,1,NA,1,n/a,2,NA,0,0,1,1,1,NA,3,1
NA,133,105,121,109,125,117,113,129,111,127,131,120.091,0.984127,0.233555,2,81,1,1,9.9453,124,1.15234,10,negative,34,3,2,1,1,1,3,2,4,2,4,4,1,4,4,3,3,4,2,7,4,4,6,6,6,7,4,3,19,male,1,NA,1,n/a,2,NA,0,0,1,1,1,NA,3,1
120,110,NA,116,108,130,124,104,106,112,126,128,116.727,0.984235,0.23367,2,82,2,1,9.9453,119,1.39712,10,positive,34,3,2,1,1,1,3,2,4,2,4,4,1,4,4,3,3,4,2,7,4,4,6,6,6,7,4,3,19,male,1,NA,1,n/a,2,NA,0,0,1,1,1,NA,3,1
NA,109,NA,NA,NA,NA,NA,NA,NA,NA,NA,NA,109,0.983954,0.233361,2,83,3,1,9.9453,141,3.52779,0,negative,34,3,2,1,1,1,3,2,4,2,4,4,1,4,4,3,3,4,2,7,4,4,6,6,6,7,4,3,19,male,1,NA,1,n/a,2,NA,0,0,1,1,1,NA,3,1
NA,116,NA,NA,NA,NA,NA,108,NA,124,110,NA,114.5,1.00029,0.233558,2,84,4,1,9.9453,122,0.988364,3,negative,34,3,2,1,1,1,3,2,4,2,4,4,1,4,4,3,3,4,2,7,4,4,6,6,6,7,4,3,19,male,1,NA,1,n/a,2,NA,0,0,1,1,1,NA,3,1
NA,NA,NA,132,NA,136,NA,124,116,NA,NA,128,127.2,0.983843,0.233485,2,85,3,1,9.9453,137,1.28418,4,negative,34,3,2,1,1,1,3,2,4,2,4,4,1,4,4,3,3,4,2,7,4,4,6,6,6,7,4,3,19,male,1,NA,1,n/a,2,NA,0,0,1,1,1,NA,3,1
NA,NA,NA,NA,NA,NA,NA,NA,NA,NA,NA,132,132,0.983667,0.233557,2,86,4,1,9.9453,131,2.8163,0,positive,34,3,2,1,1,1,3,2,4,2,4,4,1,4,4,3,3,4,2,7,4,4,6,6,6,7,4,3,19,male,1,NA,1,n/a,2,NA,0,0,1,1,1,NA,3,1
112,118,NA,110,NA,NA,NA,NA,134,122,NA,126,120.333,0.983866,0.233513,2,87,3,1,9.9453,120,1.16577,5,positive,34,3,2,1,1,1,3,2,4,2,4,4,1,4,4,3,3,4,2,7,4,4,6,6,6,7,4,3,19,male,1,NA,1,n/a,2,NA,0,0,1,1,1,NA,3,1
NA,128,NA,124,NA,110,NA,116,114,NA,NA,NA,118.4,0.984029,0.233514,2,88,2,1,9.9453,129,0.7618,4,negative,34,3,2,1,1,1,3,2,4,2,4,4,1,4,4,3,3,4,2,7,4,4,6,6,6,7,4,3,19,male,1,NA,1,n/a,2,NA,0,0,1,1,1,NA,3,1
NA,102,NA,103,113,107,126,102,102,127,119,105,110.6,0.98425,0.23366,2,89,4,1,9.89949,119,1.10195,9,negative,34,3,2,1,1,1,3,2,4,2,4,4,1,4,4,3,3,4,2,7,4,4,6,6,6,7,4,3,19,male,1,NA,1,n/a,2,NA,0,0,1,1,1,NA,3,1
114,134,126,132,NA,122,112,110,106,108,130,128,120.182,0.984425,0.233638,2,90,1,1,9.9453,121,1.18474,10,positive,34,3,2,1,1,1,3,2,4,2,4,4,1,4,4,3,3,4,2,7,4,4,6,6,6,7,4,3,19,male,1,NA,1,n/a,2,NA,0,0,1,1,1,NA,3,1
NA,NA,NA,NA,128,108,NA,NA,NA,105,NA,103,111,0.984098,0.23356,2,91,2,1,9.89949,123,1.20704,3,negative,34,3,2,1,1,1,3,2,4,2,4,4,1,4,4,3,3,4,2,7,4,4,6,6,6,7,4,3,19,male,1,NA,1,n/a,2,NA,0,0,1,1,1,NA,3,1
150,NA,138,124,149,127,144,134,NA,133,NA,149,138.667,0.984265,0.233466,2,92,4,1,9.88111,128,1.36171,8,negative,34,3,2,1,1,1,3,2,4,2,4,4,1,4,4,3,3,4,2,7,4,4,6,6,6,7,4,3,19,male,1,NA,1,n/a,2,NA,0,0,1,1,1,NA,3,1
127,107,122,119,104,113,102,102,102,105,103,126,111,0.984523,0.233595,2,93,2,1,9.89949,122,1.16159,11,negative,34,3,2,1,1,1,3,2,4,2,4,4,1,4,4,3,3,4,2,7,4,4,6,6,6,7,4,3,19,male,1,NA,1,n/a,2,NA,0,0,1,1,1,NA,3,1
116,NA,NA,NA,NA,NA,NA,NA,NA,NA,110,NA,113,0.984014,0.23344,2,94,3,1,9.9453,118,1.20156,1,positive,34,3,2,1,1,1,3,2,4,2,4,4,1,4,4,3,3,4,2,7,4,4,6,6,6,7,4,3,19,male,1,NA,1,n/a,2,NA,0,0,1,1,1,NA,3,1
110,108,106,130,126,122,118,124,102,114,NA,128,117.091,0.984126,0.233684,2,95,2,1,9.9453,116,1.19107,10,positive,34,3,2,1,1,1,3,2,4,2,4,4,1,4,4,3,3,4,2,7,4,4,6,6,6,7,4,3,19,male,1,NA,1,n/a,2,NA,0,0,1,1,1,NA,3,1
103,103,NA,NA,127,NA,108,NA,NA,NA,NA,120,112.2,0.984272,0.250058,2,96,3,1,9.89949,123,0.916675,4,positive,34,3,2,1,1,1,3,2,4,2,4,4,1,4,4,3,3,4,2,7,4,4,6,6,6,7,4,3,19,male,1,NA,1,n/a,2,NA,0,0,1,1,1,NA,3,1
135,115,113,137,NA,139,117,NA,NA,131,133,NA,127.5,0.984458,0.233514,2,97,1,1,9.9453,128,1.68623,7,negative,34,3,2,1,1,1,3,2,4,2,4,4,1,4,4,3,3,4,2,7,4,4,6,6,6,7,4,3,19,male,1,NA,1,n/a,2,NA,0,0,1,1,1,NA,3,1
139,NA,117,NA,NA,NA,NA,NA,131,135,NA,115,127.4,0.983958,0.233576,2,98,2,1,9.9453,128,2.11356,4,negative,34,3,2,1,1,1,3,2,4,2,4,4,1,4,4,3,3,4,2,7,4,4,6,6,6,7,4,3,19,male,1,NA,1,n/a,2,NA,0,0,1,1,1,NA,3,1
135,129,133,137,117,125,111,109,115,113,131,121,123,0.984416,0.233576,2,99,2,1,9.9453,131,1.34325,11,negative,34,3,2,1,1,1,3,2,4,2,4,4,1,4,4,3,3,4,2,7,4,4,6,6,6,7,4,3,19,male,1,NA,1,n/a,2,NA,0,0,1,1,1,NA,3,1
NA,NA,125,145,NA,135,NA,NA,128,NA,148,NA,136.2,0.984013,0.233675,2,100,2,1,9.78364,136,2.412,4,positive,34,3,2,1,1,1,3,2,4,2,4,4,1,4,4,3,3,4,2,7,4,4,6,6,6,7,4,3,19,male,1,NA,1,n/a,2,NA,0,0,1,1,1,NA,3,1
NA,NA,NA,145,NA,135,121,NA,123,141,125,NA,131.667,0.984205,0.250161,2,101,2,1,9.9453,137,1.54486,5,positive,34,3,2,1,1,1,3,2,4,2,4,4,1,4,4,3,3,4,2,7,4,4,6,6,6,7,4,3,19,male,1,NA,1,n/a,2,NA,0,0,1,1,1,NA,3,1
122,132,NA,NA,124,118,NA,128,120,136,138,140,128.667,0.984264,0.233602,2,102,2,1,9.9453,125,1.12351,8,negative,34,3,2,1,1,1,3,2,4,2,4,4,1,4,4,3,3,4,2,7,4,4,6,6,6,7,4,3,19,male,1,NA,1,n/a,2,NA,0,0,1,1,1,NA,3,1
NA,NA,NA,NA,NA,NA,113,123,107,115,129,111,116.333,0.983853,0.23351,2,103,3,1,9.9453,139,1.46103,5,negative,34,3,2,1,1,1,3,2,4,2,4,4,1,4,4,3,3,4,2,7,4,4,6,6,6,7,4,3,19,male,1,NA,1,n/a,2,NA,0,0,1,1,1,NA,3,1
115,117,NA,NA,NA,119,129,139,121,NA,113,125,122.25,0.984332,0.233543,2,104,1,1,9.9453,127,1.1128,7,positive,34,3,2,1,1,1,3,2,4,2,4,4,1,4,4,3,3,4,2,7,4,4,6,6,6,7,4,3,19,male,1,NA,1,n/a,2,NA,0,0,1,1,1,NA,3,1
NA,NA,NA,135,115,133,NA,NA,123,NA,119,111,122.667,0.983788,0.233581,2,105,1,1,9.9453,116,2.12307,5,negative,34,3,2,1,1,1,3,2,4,2,4,4,1,4,4,3,3,4,2,7,4,4,6,6,6,7,4,3,19,male,1,NA,1,n/a,2,NA,0,0,1,1,1,NA,3,1
NA,116,106,NA,129,NA,108,107,NA,105,110,NA,111.571,0.984103,0.233527,2,106,4,1,9.89949,121,1.92828,6,negative,34,3,2,1,1,1,3,2,4,2,4,4,1,4,4,3,3,4,2,7,4,4,6,6,6,7,4,3,19,male,1,NA,1,n/a,2,NA,0,0,1,1,1,NA,3,1
115,NA,111,NA,133,121,135,129,109,113,NA,NA,120.75,0.983949,0.233666,2,107,3,1,9.9453,115,1.68275,7,positive,34,3,2,1,1,1,3,2,4,2,4,4,1,4,4,3,3,4,2,7,4,4,6,6,6,7,4,3,19,male,1,NA,1,n/a,2,NA,0,0,1,1,1,NA,3,1
138,130,NA,NA,NA,NA,NA,144,140,NA,NA,NA,138,0.984201,0.233473,2,108,1,1,9.9453,132,1.66761,3,negative,34,3,2,1,1,1,3,2,4,2,4,4,1,4,4,3,3,4,2,7,4,4,6,6,6,7,4,3,19,male,1,NA,1,n/a,2,NA,0,0,1,1,1,NA,3,1
NA,NA,126,NA,NA,NA,NA,NA,NA,NA,NA,NA,126,0.983892,0.233449,2,109,3,1,9.89949,130,2.04282,0,positive,34,3,2,1,1,1,3,2,4,2,4,4,1,4,4,3,3,4,2,7,4,4,6,6,6,7,4,3,19,male,1,NA,1,n/a,2,NA,0,0,1,1,1,NA,3,1
125,NA,145,141,NA,NA,NA,127,NA,137,NA,143,136.333,0.984098,0.233521,2,110,3,1,9.9453,132,1.1913,5,positive,34,3,2,1,1,1,3,2,4,2,4,4,1,4,4,3,3,4,2,7,4,4,6,6,6,7,4,3,19,male,1,NA,1,n/a,2,NA,0,0,1,1,1,NA,3,1
NA,126,NA,102,NA,104,NA,NA,NA,NA,NA,NA,110.667,0.984022,0.250055,2,111,1,1,9.9453,118,1.08855,2,negative,34,3,2,1,1,1,3,2,4,2,4,4,1,4,4,3,3,4,2,7,4,4,6,6,6,7,4,3,19,male,1,NA,1,n/a,2,NA,0,0,1,1,1,NA,3,1
NA,NA,NA,146,148,133,NA,NA,NA,NA,NA,150,144.25,0.98417,0.233572,2,112,2,1,9.98598,131,1.58735,3,positive,34,3,2,1,1,1,3,2,4,2,4,4,1,4,4,3,3,4,2,7,4,4,6,6,6,7,4,3,19,male,1,NA,1,n/a,2,NA,0,0,1,1,1,NA,3,1
103,103,114,105,106,103,128,104,NA,127,120,108,111,0.984423,0.233436,2,113,2,1,9.89949,125,1.10441,10,negative,34,3,2,1,1,1,3,2,4,2,4,4,1,4,4,3,3,4,2,7,4,4,6,6,6,7,4,3,19,male,1,NA,1,n/a,2,NA,0,0,1,1,1,NA,3,1
127,135,123,NA,111,129,109,119,133,107,113,131,121.545,0.984187,0.233613,2,114,3,1,9.9453,121,3.03913,10,negative,34,3,2,1,1,1,3,2,4,2,4,4,1,4,4,3,3,4,2,7,4,4,6,6,6,7,4,3,19,male,1,NA,1,n/a,2,NA,0,0,1,1,1,NA,3,1
128,114,120,132,130,124,116,112,108,110,134,136,122,0.9841,0.233639,2,115,2,1,9.9453,137,2.37874,11,positive,34,3,2,1,1,1,3,2,4,2,4,4,1,4,4,3,3,4,2,7,4,4,6,6,6,7,4,3,19,male,1,NA,1,n/a,2,NA,0,0,1,1,1,NA,3,1
128,104,109,115,121,104,107,104,105,129,106,124,113,0.98424,0.233526,2,116,3,1,9.89949,135,1.86524,11,negative,34,3,2,1,1,1,3,2,4,2,4,4,1,4,4,3,3,4,2,7,4,4,6,6,6,7,4,3,19,male,1,NA,1,n/a,2,NA,0,0,1,1,1,NA,3,1
124,122,NA,134,140,118,144,NA,138,130,NA,NA,131.25,0.984416,0.233625,2,117,1,1,9.9453,120,1.60432,7,positive,34,3,2,1,1,1,3,2,4,2,4,4,1,4,4,3,3,4,2,7,4,4,6,6,6,7,4,3,19,male,1,NA,1,n/a,2,NA,0,0,1,1,1,NA,3,1
NA,110,125,NA,108,122,NA,106,NA,116,NA,NA,114.5,0.983922,0.233458,2,118,1,1,9.89949,118,0.929674,5,positive,34,3,2,1,1,1,3,2,4,2,4,4,1,4,4,3,3,4,2,7,4,4,6,6,6,7,4,3,19,male,1,NA,1,n/a,2,NA,0,0,1,1,1,NA,3,1
124,NA,NA,102,130,NA,NA,NA,NA,128,126,NA,122,0.984234,0.233535,2,119,1,1,9.9453,109,3.48305,4,positive,34,3,2,1,1,1,3,2,4,2,4,4,1,4,4,3,3,4,2,7,4,4,6,6,6,7,4,3,19,male,1,NA,1,n/a,2,NA,0,0,1,1,1,NA,3,1
120,NA,NA,NA,124,NA,NA,NA,136,122,NA,140,128.4,0.98385,0.233585,2,120,3,1,9.9453,111,2.01727,4,positive,34,3,2,1,1,1,3,2,4,2,4,4,1,4,4,3,3,4,2,7,4,4,6,6,6,7,4,3,19,male,1,NA,1,n/a,2,NA,0,0,1,1,1,NA,3,1
120,NA,NA,NA,124,148,NA,NA,122,NA,NA,NA,128.5,0.984041,0.233515,2,121,3,1,9.9453,143,8.27026,3,negative,34,3,2,1,1,1,3,2,4,2,4,4,1,4,4,3,3,4,2,7,4,4,6,6,6,7,4,3,19,male,1,NA,1,n/a,2,NA,0,0,1,1,1,NA,3,1
NA,104,NA,NA,NA,NA,NA,NA,126,NA,NA,108,112.667,0.984023,0.23348,2,122,1,1,9.9453,120,1.33439,2,positive,34,3,2,1,1,1,3,2,4,2,4,4,1,4,4,3,3,4,2,7,4,4,6,6,6,7,4,3,19,male,1,NA,1,n/a,2,NA,0,0,1,1,1,NA,3,1
145,NA,NA,124,125,145,147,132,NA,NA,NA,147,137.857,0.98393,0.250117,2,123,4,1,9.98598,129,1.27084,6,negative,34,3,2,1,1,1,3,2,4,2,4,4,1,4,4,3,3,4,2,7,4,4,6,6,6,7,4,3,19,male,1,NA,1,n/a,2,NA,0,0,1,1,1,NA,3,1
124,120,104,112,NA,132,116,NA,110,130,108,NA,117.333,0.984338,0.233678,2,124,2,1,9.9453,119,1.76907,8,negative,34,3,2,1,1,1,3,2,4,2,4,4,1,4,4,3,3,4,2,7,4,4,6,6,6,7,4,3,19,male,1,NA,1,n/a,2,NA,0,0,1,1,1,NA,3,1
135,127,123,119,143,141,115,139,117,NA,137,131,129.727,0.984276,0.233597,2,125,2,1,9.9453,120,1.36726,10,negative,34,3,2,1,1,1,3,2,4,2,4,4,1,4,4,3,3,4,2,7,4,4,6,6,6,7,4,3,19,male,1,NA,1,n/a,2,NA,0,0,1,1,1,NA,3,1
126,125,146,NA,133,NA,132,148,137,146,NA,143,137.333,0.9841,0.23364,2,126,1,1,9.98598,128,1.4012,8,negative,34,3,2,1,1,1,3,2,4,2,4,4,1,4,4,3,3,4,2,7,4,4,6,6,6,7,4,3,19,male,1,NA,1,n/a,2,NA,0,0,1,1,1,NA,3,1
136,116,142,120,138,128,122,132,118,124,140,144,130,0.984397,0.25007,2,127,4,1,9.9453,131,1.13377,11,positive,34,3,2,1,1,1,3,2,4,2,4,4,1,4,4,3,3,4,2,7,4,4,6,6,6,7,4,3,19,male,1,NA,1,n/a,2,NA,0,0,1,1,1,NA,3,1
NA,NA,134,NA,136,NA,NA,110,112,NA,138,126,126,0.984132,0.233694,2,128,1,1,9.9453,135,1.47315,5,negative,34,3,2,1,1,1,3,2,4,2,4,4,1,4,4,3,3,4,2,7,4,4,6,6,6,7,4,3,19,male,1,NA,1,n/a,2,NA,0,0,1,1,1,NA,3,1
NA,113,117,121,NA,115,125,137,NA,139,133,135,126.111,0.984074,0.23353,2,129,2,1,9.9453,125,1.06845,8,negative,34,3,2,1,1,1,3,2,4,2,4,4,1,4,4,3,3,4,2,7,4,4,6,6,6,7,4,3,19,male,1,NA,1,n/a,2,NA,0,0,1,1,1,NA,3,1
NA,112,130,NA,NA,122,NA,110,114,NA,NA,118,117.667,0.984266,0.233506,2,130,1,1,9.9453,119,2.11057,5,positive,34,3,2,1,1,1,3,2,4,2,4,4,1,4,4,3,3,4,2,7,4,4,6,6,6,7,4,3,19,male,1,NA,1,n/a,2,NA,0,0,1,1,1,NA,3,1
NA,NA,NA,NA,NA,NA,NA,NA,NA,NA,NA,136,136,0.983741,0.233419,2,131,2,1,9.9453,134,2.92548,0,negative,34,3,2,1,1,1,3,2,4,2,4,4,1,4,4,3,3,4,2,7,4,4,6,6,6,7,4,3,19,male,1,NA,1,n/a,2,NA,0,0,1,1,1,NA,3,1
118,126,134,NA,142,144,120,124,140,122,130,138,130.727,1.00051,0.233578,2,132,4,1,9.9453,150,3.30102,10,negative,34,3,2,1,1,1,3,2,4,2,4,4,1,4,4,3,3,4,2,7,4,4,6,6,6,7,4,3,19,male,1,NA,1,n/a,2,NA,0,0,1,1,1,NA,3,1
NA,106,118,132,NA,NA,108,NA,NA,NA,NA,NA,116,0.984194,0.233612,2,133,3,1,9.9453,132,1.26106,3,negative,34,3,2,1,1,1,3,2,4,2,4,4,1,4,4,3,3,4,2,7,4,4,6,6,6,7,4,3,19,male,1,NA,1,n/a,2,NA,0,0,1,1,1,NA,3,1
103,NA,119,126,104,NA,105,102,113,102,NA,NA,109.25,0.984204,0.233631,2,134,1,1,9.89949,124,1.4278,7,positive,34,3,2,1,1,1,3,2,4,2,4,4,1,4,4,3,3,4,2,7,4,4,6,6,6,7,4,3,19,male,1,NA,1,n/a,2,NA,0,0,1,1,1,NA,3,1
NA,NA,NA,NA,NA,NA,NA,122,NA,NA,114,NA,118,0.983723,0.25002,2,135,2,1,9.9453,122,1.03504,1,negative,34,3,2,1,1,1,3,2,4,2,4,4,1,4,4,3,3,4,2,7,4,4,6,6,6,7,4,3,19,male,1,NA,1,n/a,2,NA,0,0,1,1,1,NA,3,1
NA,121,NA,101,104,102,NA,101,106,NA,125,103,107.875,0.98416,0.250103,2,136,2,1,9.89949,124,0.641901,7,negative,34,3,2,1,1,1,3,2,4,2,4,4,1,4,4,3,3,4,2,7,4,4,6,6,6,7,4,3,19,male,1,NA,1,n/a,2,NA,0,0,1,1,1,NA,3,1
108,NA,130,114,120,NA,124,NA,110,112,136,NA,119.25,0.984385,0.233567,2,137,3,1,9.9453,122,0.902797,7,positive,34,3,2,1,1,1,3,2,4,2,4,4,1,4,4,3,3,4,2,7,4,4,6,6,6,7,4,3,19,male,1,NA,1,n/a,2,NA,0,0,1,1,1,NA,3,1
101,NA,NA,NA,NA,NA,NA,NA,101,121,NA,NA,107.667,0.984152,0.23347,2,138,3,1,9.89949,108,1.77571,2,negative,34,3,2,1,1,1,3,2,4,2,4,4,1,4,4,3,3,4,2,7,4,4,6,6,6,7,4,3,19,male,1,NA,1,n/a,2,NA,0,0,1,1,1,NA,3,1
121,125,133,143,119,123,139,NA,NA,117,137,NA,128.556,0.984326,0.23359,2,139,1,1,9.9453,123,1.84488,8,positive,34,3,2,1,1,1,3,2,4,2,4,4,1,4,4,3,3,4,2,7,4,4,6,6,6,7,4,3,19,male,1,NA,1,n/a,2,NA,0,0,1,1,1,NA,3,1
105,NA,109,129,NA,104,NA,128,104,124,121,106,114.444,0.984292,0.250154,2,140,4,1,9.89949,134,1.21936,8,positive,34,3,2,1,1,1,3,2,4,2,4,4,1,4,4,3,3,4,2,7,4,4,6,6,6,7,4,3,19,male,1,NA,1,n/a,2,NA,0,0,1,1,1,NA,3,1
NA,NA,NA,NA,NA,NA,NA,NA,124,NA,NA,NA,124,0.983893,0.233328,2,141,2,1,9.9453,122,1.12385,0,positive,34,3,2,1,1,1,3,2,4,2,4,4,1,4,4,3,3,4,2,7,4,4,6,6,6,7,4,3,19,male,1,NA,1,n/a,2,NA,0,0,1,1,1,NA,3,1
NA,NA,NA,143,NA,NA,NA,NA,NA,NA,NA,NA,143,0.983742,0.250075,2,142,1,1,9.9453,131,1.12775,0,negative,34,3,2,1,1,1,3,2,4,2,4,4,1,4,4,3,3,4,2,7,4,4,6,6,6,7,4,3,19,male,1,NA,1,n/a,2,NA,0,0,1,1,1,NA,3,1
133,109,NA,129,115,113,121,135,117,137,131,125,124.091,0.984349,0.233615,2,143,1,1,9.9453,132,1.27869,10,positive,34,3,2,1,1,1,3,2,4,2,4,4,1,4,4,3,3,4,2,7,4,4,6,6,6,7,4,3,19,male,1,NA,1,n/a,2,NA,0,0,1,1,1,NA,3,1
125,NA,147,147,NA,NA,NA,122,136,NA,131,NA,134.667,0.984196,0.250137,2,144,2,1,9.98598,150,1.71713,5,negative,34,3,2,1,1,1,3,2,4,2,4,4,1,4,4,3,3,4,2,7,4,4,6,6,6,7,4,3,19,male,1,NA,1,n/a,2,NA,0,0,1,1,1,NA,3,1
NA,NA,109,105,119,NA,131,103,NA,107,115,NA,112.714,0.984142,0.233548,2,145,2,1,9.9453,101,3.32777,6,positive,34,3,2,1,1,1,3,2,4,2,4,4,1,4,4,3,3,4,2,7,4,4,6,6,6,7,4,3,19,male,1,NA,1,n/a,2,NA,0,0,1,1,1,NA,3,1
104,NA,113,105,NA,NA,NA,NA,NA,107,NA,NA,107.25,0.983901,0.233583,2,146,1,1,9.89949,119,0.927349,3,negative,34,3,2,1,1,1,3,2,4,2,4,4,1,4,4,3,3,4,2,7,4,4,6,6,6,7,4,3,19,male,1,NA,1,n/a,2,NA,0,0,1,1,1,NA,3,1
127,104,122,NA,126,NA,NA,NA,NA,NA,107,NA,117.2,0.983995,0.233567,2,147,2,1,9.89949,118,2.15888,4,positive,34,3,2,1,1,1,3,2,4,2,4,4,1,4,4,3,3,4,2,7,4,4,6,6,6,7,4,3,19,male,1,NA,1,n/a,2,NA,0,0,1,1,1,NA,3,1
117,143,119,139,131,127,115,121,135,137,123,141,129,0.984281,0.233499,2,148,1,1,9.9453,129,1.17359,11,positive,34,3,2,1,1,1,3,2,4,2,4,4,1,4,4,3,3,4,2,7,4,4,6,6,6,7,4,3,19,male,1,NA,1,n/a,2,NA,0,0,1,1,1,NA,3,1
NA,NA,NA,NA,NA,NA,NA,NA,NA,134,NA,NA,134,0.983809,0.233531,2,149,1,1,9.9453,120,2.88168,0,positive,34,3,2,1,1,1,3,2,4,2,4,4,1,4,4,3,3,4,2,7,4,4,6,6,6,7,4,3,19,male,1,NA,1,n/a,2,NA,0,0,1,1,1,NA,3,1
125,139,NA,147,135,NA,143,123,121,127,131,145,133.6,0.984329,0.233576,2,150,4,1,9.9453,134,3.16245,9,negative,34,3,2,1,1,1,3,2,4,2,4,4,1,4,4,3,3,4,2,7,4,4,6,6,6,7,4,3,19,male,1,NA,1,n/a,2,NA,0,0,1,1,1,NA,3,1
112,NA,128,116,118,114,124,140,134,132,136,138,126.545,0.990611,0.250138,35,1,1,1,9.9453,115,3.14964,10,positive,35,5,4,4,3,4,3,2,4,4,3,3,1,4,3,2,4,5,2,3,5,6,6,6,5,5,2,4,19,female,1,NA,1,19,2,NA,0,0,0,1,0,NA,3,1
NA,118,136,NA,134,NA,138,120,126,114,NA,122,126,0.999672,0.250068,35,2,3,1,9.9453,111,1.88364,7,negative,35,5,4,4,3,4,3,2,4,4,3,3,1,4,3,2,4,5,2,3,5,6,6,6,5,5,2,4,19,female,1,NA,1,19,2,NA,0,0,0,1,0,NA,3,1
NA,NA,120,132,148,NA,NA,NA,146,122,124,126,131.143,0.983968,0.233524,35,3,3,1,9.9453,108,2.29971,6,negative,35,5,4,4,3,4,3,2,4,4,3,3,1,4,3,2,4,5,2,3,5,6,6,6,5,5,2,4,19,female,1,NA,1,19,2,NA,0,0,0,1,0,NA,3,1
118,138,112,134,NA,136,124,NA,116,120,NA,NA,124.75,0.984227,0.233571,35,4,1,1,9.9453,123,5.0775,7,positive,35,5,4,4,3,4,3,2,4,4,3,3,1,4,3,2,4,5,2,3,5,6,6,6,5,5,2,4,19,female,1,NA,1,19,2,NA,0,0,0,1,0,NA,3,1
104,128,124,115,121,109,NA,104,107,NA,129,105,114.6,0.984288,0.233571,35,5,2,1,9.89949,120,5.0109,9,negative,35,5,4,4,3,4,3,2,4,4,3,3,1,4,3,2,4,5,2,3,5,6,6,6,5,5,2,4,19,female,1,NA,1,19,2,NA,0,0,0,1,0,NA,3,1
NA,NA,NA,NA,NA,137,139,NA,129,119,NA,NA,131,0.984074,0.250084,35,6,2,1,9.9453,132,2.62616,3,negative,35,5,4,4,3,4,3,2,4,4,3,3,1,4,3,2,4,5,2,3,5,6,6,6,5,5,2,4,19,female,1,NA,1,19,2,NA,0,0,0,1,0,NA,3,1
121,NA,149,NA,137,145,NA,NA,NA,141,125,147,137.857,0.983854,0.23354,35,7,3,1,9.9453,123,2.77864,6,negative,35,5,4,4,3,4,3,2,4,4,3,3,1,4,3,2,4,5,2,3,5,6,6,6,5,5,2,4,19,female,1,NA,1,19,2,NA,0,0,0,1,0,NA,3,1
119,111,133,127,107,131,NA,NA,115,109,129,135,121.6,0.98433,0.250124,35,8,1,1,9.9453,131,2.37205,9,positive,35,5,4,4,3,4,3,2,4,4,3,3,1,4,3,2,4,5,2,3,5,6,6,6,5,5,2,4,19,female,1,NA,1,19,2,NA,0,0,0,1,0,NA,3,1
NA,NA,NA,NA,101,NA,NA,101,NA,NA,NA,NA,101,0.983709,0.233467,35,9,1,1,9.89949,107,1.71453,1,positive,35,5,4,4,3,4,3,2,4,4,3,3,1,4,3,2,4,5,2,3,5,6,6,6,5,5,2,4,19,female,1,NA,1,19,2,NA,0,0,0,1,0,NA,3,1
118,101,112,125,104,101,NA,106,103,101,121,126,110.727,0.984472,0.233575,35,10,3,1,9.89949,124,3.27092,10,negative,35,5,4,4,3,4,3,2,4,4,3,3,1,4,3,2,4,5,2,3,5,6,6,6,5,5,2,4,19,female,1,NA,1,19,2,NA,0,0,0,1,0,NA,3,1
NA,108,112,116,106,NA,126,132,130,110,104,NA,116,0.983965,0.233511,35,11,4,1,9.9453,105,2.26117,8,negative,35,5,4,4,3,4,3,2,4,4,3,3,1,4,3,2,4,5,2,3,5,6,6,6,5,5,2,4,19,female,1,NA,1,19,2,NA,0,0,0,1,0,NA,3,1
126,133,144,149,127,149,138,NA,124,150,147,147,139.455,0.984314,0.233616,35,12,1,1,9.88111,132,3.6284,10,negative,35,5,4,4,3,4,3,2,4,4,3,3,1,4,3,2,4,5,2,3,5,6,6,6,5,5,2,4,19,female,1,NA,1,19,2,NA,0,0,0,1,0,NA,3,1
NA,114,112,134,116,NA,NA,110,124,132,NA,130,121.5,0.983919,0.233557,35,13,3,1,9.9453,115,1.7318,7,positive,35,5,4,4,3,4,3,2,4,4,3,3,1,4,3,2,4,5,2,3,5,6,6,6,5,5,2,4,19,female,1,NA,1,19,2,NA,0,0,0,1,0,NA,3,1
116,NA,107,NA,105,105,105,130,NA,129,NA,110,113.375,0.984114,0.233478,35,14,4,1,9.89949,112,3.61176,7,positive,35,5,4,4,3,4,3,2,4,4,3,3,1,4,3,2,4,5,2,3,5,6,6,6,5,5,2,4,19,female,1,NA,1,19,2,NA,0,0,0,1,0,NA,3,1
NA,107,NA,NA,117,NA,NA,NA,105,121,111,NA,112.2,0.984163,0.233437,35,15,1,1,9.9453,105,3.74754,4,positive,35,5,4,4,3,4,3,2,4,4,3,3,1,4,3,2,4,5,2,3,5,6,6,6,5,5,2,4,19,female,1,NA,1,19,2,NA,0,0,0,1,0,NA,3,1
123,125,129,105,121,107,103,109,117,127,NA,113,116.273,0.98432,0.233554,35,16,3,1,9.9453,117,6.63014,10,positive,35,5,4,4,3,4,3,2,4,4,3,3,1,4,3,2,4,5,2,3,5,6,6,6,5,5,2,4,19,female,1,NA,1,19,2,NA,0,0,0,1,0,NA,3,1
NA,NA,129,NA,NA,NA,NA,135,NA,NA,119,133,129,0.983925,0.233562,35,17,4,1,9.9453,124,5.36837,3,positive,35,5,4,4,3,4,3,2,4,4,3,3,1,4,3,2,4,5,2,3,5,6,6,6,5,5,2,4,19,female,1,NA,1,19,2,NA,0,0,0,1,0,NA,3,1
NA,NA,NA,NA,120,NA,NA,142,NA,NA,NA,NA,131,0.983864,0.233494,35,18,4,1,9.9453,118,5.50575,1,positive,35,5,4,4,3,4,3,2,4,4,3,3,1,4,3,2,4,5,2,3,5,6,6,6,5,5,2,4,19,female,1,NA,1,19,2,NA,0,0,0,1,0,NA,3,1
NA,122,146,NA,NA,144,NA,NA,NA,120,NA,NA,133,0.98389,0.233445,35,19,1,1,9.9453,133,4.10581,3,negative,35,5,4,4,3,4,3,2,4,4,3,3,1,4,3,2,4,5,2,3,5,6,6,6,5,5,2,4,19,female,1,NA,1,19,2,NA,0,0,0,1,0,NA,3,1
129,122,NA,105,116,NA,106,NA,NA,130,NA,110,116.857,0.983877,0.250048,35,20,4,1,9.89949,119,2.46106,6,positive,35,5,4,4,3,4,3,2,4,4,3,3,1,4,3,2,4,5,2,3,5,6,6,6,5,5,2,4,19,female,1,NA,1,19,2,NA,0,0,0,1,0,NA,3,1
NA,NA,123,NA,129,NA,NA,NA,NA,119,NA,NA,123.667,1.00017,0.23354,35,21,1,1,9.9453,122,2.18691,2,positive,35,5,4,4,3,4,3,2,4,4,3,3,1,4,3,2,4,5,2,3,5,6,6,6,5,5,2,4,19,female,1,NA,1,19,2,NA,0,0,0,1,0,NA,3,1
NA,145,139,NA,135,NA,128,NA,150,NA,134,150,140.143,0.983811,0.250117,35,22,2,1,9.78364,132,4.26018,6,negative,35,5,4,4,3,4,3,2,4,4,3,3,1,4,3,2,4,5,2,3,5,6,6,6,5,5,2,4,19,female,1,NA,1,19,2,NA,0,0,0,1,0,NA,3,1
NA,123,139,NA,125,NA,NA,NA,NA,121,NA,NA,127,0.984031,0.233394,35,23,1,1,9.9453,124,4.63375,3,positive,35,5,4,4,3,4,3,2,4,4,3,3,1,4,3,2,4,5,2,3,5,6,6,6,5,5,2,4,19,female,1,NA,1,19,2,NA,0,0,0,1,0,NA,3,1
137,125,135,133,111,113,129,109,131,117,121,115,123,0.984352,0.233585,35,24,2,1,9.9453,129,2.88856,11,positive,35,5,4,4,3,4,3,2,4,4,3,3,1,4,3,2,4,5,2,3,5,6,6,6,5,5,2,4,19,female,1,NA,1,19,2,NA,0,0,0,1,0,NA,3,1
106,122,NA,NA,107,NA,NA,105,NA,105,NA,NA,109,0.984118,0.233528,35,25,3,1,9.89949,118,2.86133,4,positive,35,5,4,4,3,4,3,2,4,4,3,3,1,4,3,2,4,5,2,3,5,6,6,6,5,5,2,4,19,female,1,NA,1,19,2,NA,0,0,0,1,0,NA,3,1
132,112,NA,NA,NA,134,NA,NA,136,118,NA,116,124.667,0.984332,0.233553,35,26,2,1,9.9453,103,4.6635,5,negative,35,5,4,4,3,4,3,2,4,4,3,3,1,4,3,2,4,5,2,3,5,6,6,6,5,5,2,4,19,female,1,NA,1,19,2,NA,0,0,0,1,0,NA,3,1
138,134,116,142,118,120,126,140,130,122,114,NA,127.273,0.984013,0.233619,35,27,4,1,9.9453,124,2.08534,10,positive,35,5,4,4,3,4,3,2,4,4,3,3,1,4,3,2,4,5,2,3,5,6,6,6,5,5,2,4,19,female,1,NA,1,19,2,NA,0,0,0,1,0,NA,3,1
NA,141,NA,123,NA,NA,125,NA,NA,121,NA,143,130.6,0.983905,0.250114,35,28,4,1,9.9453,122,2.78178,4,positive,35,5,4,4,3,4,3,2,4,4,3,3,1,4,3,2,4,5,2,3,5,6,6,6,5,5,2,4,19,female,1,NA,1,19,2,NA,0,0,0,1,0,NA,3,1
127,107,NA,129,105,NA,121,109,NA,117,113,NA,116,0.984337,0.250118,35,29,4,1,9.9453,125,8.52583,7,negative,35,5,4,4,3,4,3,2,4,4,3,3,1,4,3,2,4,5,2,3,5,6,6,6,5,5,2,4,19,female,1,NA,1,19,2,NA,0,0,0,1,0,NA,3,1
125,NA,121,NA,NA,129,149,NA,145,127,133,NA,132.714,0.984148,0.233526,35,30,2,1,9.9453,130,4.23154,6,negative,35,5,4,4,3,4,3,2,4,4,3,3,1,4,3,2,4,5,2,3,5,6,6,6,5,5,2,4,19,female,1,NA,1,19,2,NA,0,0,0,1,0,NA,3,1
NA,111,NA,NA,NA,NA,NA,NA,NA,NA,NA,NA,111,0.999556,0.233453,35,31,3,1,9.9453,111,1.11694,0,positive,35,5,4,4,3,4,3,2,4,4,3,3,1,4,3,2,4,5,2,3,5,6,6,6,5,5,2,4,19,female,1,NA,1,19,2,NA,0,0,0,1,0,NA,3,1
NA,148,NA,NA,132,NA,NA,NA,126,146,NA,NA,138,0.999715,0.233608,35,32,3,1,9.98598,135,5.88911,3,negative,35,5,4,4,3,4,3,2,4,4,3,3,1,4,3,2,4,5,2,3,5,6,6,6,5,5,2,4,19,female,1,NA,1,19,2,NA,0,0,0,1,0,NA,3,1
126,133,NA,147,134,138,NA,NA,150,NA,NA,NA,138,0.983838,0.23367,35,33,3,1,9.88111,128,2.29242,5,negative,35,5,4,4,3,4,3,2,4,4,3,3,1,4,3,2,4,5,2,3,5,6,6,6,5,5,2,4,19,female,1,NA,1,19,2,NA,0,0,0,1,0,NA,3,1
137,133,127,NA,139,117,131,119,113,NA,NA,111,125.222,0.984046,0.233592,35,34,1,1,9.9453,140,3.37293,8,negative,35,5,4,4,3,4,3,2,4,4,3,3,1,4,3,2,4,5,2,3,5,6,6,6,5,5,2,4,19,female,1,NA,1,19,2,NA,0,0,0,1,0,NA,3,1
134,132,108,118,110,128,130,126,106,114,112,122,120,1.0006,0.233539,35,35,4,1,9.9453,120,4.52497,11,positive,35,5,4,4,3,4,3,2,4,4,3,3,1,4,3,2,4,5,2,3,5,6,6,6,5,5,2,4,19,female,1,NA,1,19,2,NA,0,0,0,1,0,NA,3,1
114,NA,118,122,NA,NA,110,124,104,NA,108,102,112.75,0.984051,0.233608,35,36,3,1,9.9453,122,4.5314,7,negative,35,5,4,4,3,4,3,2,4,4,3,3,1,4,3,2,4,5,2,3,5,6,6,6,5,5,2,4,19,female,1,NA,1,19,2,NA,0,0,0,1,0,NA,3,1
128,NA,NA,120,127,104,103,105,108,123,103,106,112.7,0.983941,0.250121,35,37,3,1,9.89949,118,2.9013,9,negative,35,5,4,4,3,4,3,2,4,4,3,3,1,4,3,2,4,5,2,3,5,6,6,6,5,5,2,4,19,female,1,NA,1,19,2,NA,0,0,0,1,0,NA,3,1
105,NA,121,109,NA,113,NA,NA,NA,NA,NA,NA,112,0.984048,0.233522,35,38,4,1,9.9453,104,2.75322,3,negative,35,5,4,4,3,4,3,2,4,4,3,3,1,4,3,2,4,5,2,3,5,6,6,6,5,5,2,4,19,female,1,NA,1,19,2,NA,0,0,0,1,0,NA,3,1
117,137,NA,NA,NA,121,NA,NA,NA,NA,NA,NA,125,0.983759,0.233449,35,39,2,1,9.9453,123,2.06351,2,negative,35,5,4,4,3,4,3,2,4,4,3,3,1,4,3,2,4,5,2,3,5,6,6,6,5,5,2,4,19,female,1,NA,1,19,2,NA,0,0,0,1,0,NA,3,1
NA,NA,147,NA,NA,143,121,NA,NA,NA,NA,NA,137,0.983685,0.233514,35,40,4,1,9.9453,126,1.96137,2,positive,35,5,4,4,3,4,3,2,4,4,3,3,1,4,3,2,4,5,2,3,5,6,6,6,5,5,2,4,19,female,1,NA,1,19,2,NA,0,0,0,1,0,NA,3,1
NA,137,NA,111,NA,133,115,NA,117,NA,127,113,121.857,1.00028,0.23356,35,41,3,1,9.9453,131,2.92263,6,positive,35,5,4,4,3,4,3,2,4,4,3,3,1,4,3,2,4,5,2,3,5,6,6,6,5,5,2,4,19,female,1,NA,1,19,2,NA,0,0,0,1,0,NA,3,1
NA,104,116,NA,112,110,108,106,NA,NA,128,120,113,0.984108,0.233514,35,42,1,1,9.9453,104,2.30938,7,positive,35,5,4,4,3,4,3,2,4,4,3,3,1,4,3,2,4,5,2,3,5,6,6,6,5,5,2,4,19,female,1,NA,1,19,2,NA,0,0,0,1,0,NA,3,1
NA,NA,NA,NA,NA,119,NA,NA,NA,NA,137,NA,128,0.983856,0.233494,35,43,4,1,9.9453,127,2.40912,1,positive,35,5,4,4,3,4,3,2,4,4,3,3,1,4,3,2,4,5,2,3,5,6,6,6,5,5,2,4,19,female,1,NA,1,19,2,NA,0,0,0,1,0,NA,3,1
NA,NA,NA,138,NA,NA,NA,146,148,126,122,NA,136,0.984029,0.233551,35,44,2,1,9.9453,119,1.7845,4,positive,35,5,4,4,3,4,3,2,4,4,3,3,1,4,3,2,4,5,2,3,5,6,6,6,5,5,2,4,19,female,1,NA,1,19,2,NA,0,0,0,1,0,NA,3,1
108,104,130,102,122,118,124,126,106,114,110,128,116,0.984376,0.233534,35,45,3,1,9.9453,123,6.9128,11,negative,35,5,4,4,3,4,3,2,4,4,3,3,1,4,3,2,4,5,2,3,5,6,6,6,5,5,2,4,19,female,1,NA,1,19,2,NA,0,0,0,1,0,NA,3,1
NA,142,132,NA,146,136,NA,NA,140,124,122,148,136.25,0.983861,0.233459,35,46,3,1,9.9453,131,1.91516,7,positive,35,5,4,4,3,4,3,2,4,4,3,3,1,4,3,2,4,5,2,3,5,6,6,6,5,5,2,4,19,female,1,NA,1,19,2,NA,0,0,0,1,0,NA,3,1
120,NA,140,116,136,138,112,NA,134,114,124,118,125.2,1.00055,0.233571,35,47,1,1,9.9453,119,3.19792,9,positive,35,5,4,4,3,4,3,2,4,4,3,3,1,4,3,2,4,5,2,3,5,6,6,6,5,5,2,4,19,female,1,NA,1,19,2,NA,0,0,0,1,0,NA,3,1
NA,NA,NA,131,NA,NA,NA,NA,NA,NA,NA,NA,131,0.983525,0.233394,35,48,2,1,9.9453,124,2.96556,0,positive,35,5,4,4,3,4,3,2,4,4,3,3,1,4,3,2,4,5,2,3,5,6,6,6,5,5,2,4,19,female,1,NA,1,19,2,NA,0,0,0,1,0,NA,3,1
NA,NA,129,133,NA,113,NA,119,115,NA,125,NA,122.333,1.00031,0.233501,35,49,4,1,9.9453,119,2.70245,5,negative,35,5,4,4,3,4,3,2,4,4,3,3,1,4,3,2,4,5,2,3,5,6,6,6,5,5,2,4,19,female,1,NA,1,19,2,NA,0,0,0,1,0,NA,3,1
NA,NA,NA,NA,NA,NA,NA,NA,NA,121,NA,NA,121,0.983844,0.233498,35,50,1,1,9.9453,127,2.59812,0,positive,35,5,4,4,3,4,3,2,4,4,3,3,1,4,3,2,4,5,2,3,5,6,6,6,5,5,2,4,19,female,1,NA,1,19,2,NA,0,0,0,1,0,NA,3,1
116,112,NA,NA,NA,134,NA,NA,132,NA,124,114,122,0.983948,0.250157,35,51,2,1,9.9453,121,2.29291,5,positive,35,5,4,4,3,4,3,2,4,4,3,3,1,4,3,2,4,5,2,3,5,6,6,6,5,5,2,4,19,female,1,NA,1,19,2,NA,0,0,0,1,0,NA,3,1
146,NA,NA,146,126,150,NA,NA,148,123,125,NA,137.714,0.984139,0.250153,35,52,4,1,9.98598,127,3.72789,6,negative,35,5,4,4,3,4,3,2,4,4,3,3,1,4,3,2,4,5,2,3,5,6,6,6,5,5,2,4,19,female,1,NA,1,19,2,NA,0,0,0,1,0,NA,3,1
128,122,138,148,142,144,NA,124,146,126,134,130,134.727,0.984017,0.233581,35,53,2,1,9.9453,134,2.84983,10,positive,35,5,4,4,3,4,3,2,4,4,3,3,1,4,3,2,4,5,2,3,5,6,6,6,5,5,2,4,19,female,1,NA,1,19,2,NA,0,0,0,1,0,NA,3,1
137,126,NA,NA,NA,143,146,NA,NA,NA,NA,146,139.6,0.98414,0.250033,35,54,1,1,9.98598,129,2.40669,4,positive,35,5,4,4,3,4,3,2,4,4,3,3,1,4,3,2,4,5,2,3,5,6,6,6,5,5,2,4,19,female,1,NA,1,19,2,NA,0,0,0,1,0,NA,3,1
113,137,NA,141,121,115,119,133,139,135,129,NA,128.2,1.00056,0.233572,35,55,4,1,9.9453,132,2.99777,9,positive,35,5,4,4,3,4,3,2,4,4,3,3,1,4,3,2,4,5,2,3,5,6,6,6,5,5,2,4,19,female,1,NA,1,19,2,NA,0,0,0,1,0,NA,3,1
NA,129,NA,NA,NA,107,NA,NA,127,NA,NA,101,116,0.983882,0.250033,35,56,4,1,9.9453,125,3.40069,3,negative,35,5,4,4,3,4,3,2,4,4,3,3,1,4,3,2,4,5,2,3,5,6,6,6,5,5,2,4,19,female,1,NA,1,19,2,NA,0,0,0,1,0,NA,3,1
116,NA,NA,NA,NA,NA,NA,NA,NA,NA,NA,NA,116,0.983808,0.233489,35,57,1,1,9.9453,126,2.60332,0,positive,35,5,4,4,3,4,3,2,4,4,3,3,1,4,3,2,4,5,2,3,5,6,6,6,5,5,2,4,19,female,1,NA,1,19,2,NA,0,0,0,1,0,NA,3,1
NA,131,119,115,107,127,109,113,123,135,111,129,119.909,1.00044,0.233571,35,58,1,1,9.9453,110,2.82643,10,negative,35,5,4,4,3,4,3,2,4,4,3,3,1,4,3,2,4,5,2,3,5,6,6,6,5,5,2,4,19,female,1,NA,1,19,2,NA,0,0,0,1,0,NA,3,1
NA,129,109,103,125,NA,113,NA,107,121,127,105,115.444,0.984069,0.250088,35,59,3,1,9.9453,121,3.38005,8,positive,35,5,4,4,3,4,3,2,4,4,3,3,1,4,3,2,4,5,2,3,5,6,6,6,5,5,2,4,19,female,1,NA,1,19,2,NA,0,0,0,1,0,NA,3,1
114,128,NA,NA,130,136,108,132,NA,134,116,124,124.667,0.984007,0.233475,35,60,1,1,9.9453,129,2.36416,8,negative,35,5,4,4,3,4,3,2,4,4,3,3,1,4,3,2,4,5,2,3,5,6,6,6,5,5,2,4,19,female,1,NA,1,19,2,NA,0,0,0,1,0,NA,3,1
NA,NA,148,124,142,132,122,128,136,126,144,146,134.8,0.984078,0.233445,35,61,1,1,9.9453,134,2.34137,9,negative,35,5,4,4,3,4,3,2,4,4,3,3,1,4,3,2,4,5,2,3,5,6,6,6,5,5,2,4,19,female,1,NA,1,19,2,NA,0,0,0,1,0,NA,3,1
NA,NA,NA,NA,NA,NA,NA,119,NA,NA,NA,NA,119,0.983859,0.233444,35,62,4,1,9.9453,120,1.63089,0,positive,35,5,4,4,3,4,3,2,4,4,3,3,1,4,3,2,4,5,2,3,5,6,6,6,5,5,2,4,19,female,1,NA,1,19,2,NA,0,0,0,1,0,NA,3,1
142,118,124,NA,136,116,138,144,140,NA,NA,NA,132.25,1.00034,0.233609,35,63,1,1,9.9453,120,2.23693,7,negative,35,5,4,4,3,4,3,2,4,4,3,3,1,4,3,2,4,5,2,3,5,6,6,6,5,5,2,4,19,female,1,NA,1,19,2,NA,0,0,0,1,0,NA,3,1
103,NA,NA,107,NA,NA,127,NA,101,129,105,121,113.286,0.984025,0.233453,35,64,1,1,9.9453,120,3.86724,6,positive,35,5,4,4,3,4,3,2,4,4,3,3,1,4,3,2,4,5,2,3,5,6,6,6,5,5,2,4,19,female,1,NA,1,19,2,NA,0,0,0,1,0,NA,3,1
NA,NA,135,115,NA,113,137,NA,121,133,131,NA,126.429,0.984234,0.233557,35,65,2,1,9.9453,125,2.6877,6,negative,35,5,4,4,3,4,3,2,4,4,3,3,1,4,3,2,4,5,2,3,5,6,6,6,5,5,2,4,19,female,1,NA,1,19,2,NA,0,0,0,1,0,NA,3,1
106,NA,127,NA,120,NA,NA,105,104,128,103,NA,113.286,0.984089,0.233447,35,66,2,1,9.89949,117,3.04786,6,negative,35,5,4,4,3,4,3,2,4,4,3,3,1,4,3,2,4,5,2,3,5,6,6,6,5,5,2,4,19,female,1,NA,1,19,2,NA,0,0,0,1,0,NA,3,1
127,NA,NA,105,NA,NA,NA,NA,113,NA,NA,NA,115,0.983916,0.233464,35,67,4,1,9.9453,120,1.63353,2,positive,35,5,4,4,3,4,3,2,4,4,3,3,1,4,3,2,4,5,2,3,5,6,6,6,5,5,2,4,19,female,1,NA,1,19,2,NA,0,0,0,1,0,NA,3,1
124,144,142,140,NA,126,118,138,122,146,134,NA,133.4,0.984266,0.250152,35,68,4,1,9.9453,118,2.04262,9,positive,35,5,4,4,3,4,3,2,4,4,3,3,1,4,3,2,4,5,2,3,5,6,6,6,5,5,2,4,19,female,1,NA,1,19,2,NA,0,0,0,1,0,NA,3,1
123,NA,113,NA,135,NA,NA,NA,NA,NA,109,NA,120,0.984029,0.233415,35,69,1,1,9.9453,126,3.21992,3,positive,35,5,4,4,3,4,3,2,4,4,3,3,1,4,3,2,4,5,2,3,5,6,6,6,5,5,2,4,19,female,1,NA,1,19,2,NA,0,0,0,1,0,NA,3,1
113,125,NA,NA,NA,111,NA,NA,NA,131,129,115,120.667,0.983974,0.233562,35,70,2,1,9.9453,116,2.55002,5,positive,35,5,4,4,3,4,3,2,4,4,3,3,1,4,3,2,4,5,2,3,5,6,6,6,5,5,2,4,19,female,1,NA,1,19,2,NA,0,0,0,1,0,NA,3,1
NA,NA,NA,102,NA,NA,NA,NA,NA,112,NA,106,106.667,0.983799,0.233422,35,71,1,1,9.89949,109,1.99108,2,positive,35,5,4,4,3,4,3,2,4,4,3,3,1,4,3,2,4,5,2,3,5,6,6,6,5,5,2,4,19,female,1,NA,1,19,2,NA,0,0,0,1,0,NA,3,1
NA,NA,NA,127,NA,NA,101,105,NA,103,NA,NA,109,0.984332,0.233518,35,72,2,1,9.9453,108,3.52684,3,positive,35,5,4,4,3,4,3,2,4,4,3,3,1,4,3,2,4,5,2,3,5,6,6,6,5,5,2,4,19,female,1,NA,1,19,2,NA,0,0,0,1,0,NA,3,1
NA,NA,103,NA,NA,NA,NA,NA,NA,NA,NA,NA,103,0.983743,0.233423,35,73,3,1,9.89949,117,2.78872,0,negative,35,5,4,4,3,4,3,2,4,4,3,3,1,4,3,2,4,5,2,3,5,6,6,6,5,5,2,4,19,female,1,NA,1,19,2,NA,0,0,0,1,0,NA,3,1
140,120,NA,132,116,136,142,124,NA,118,138,NA,129.556,0.983886,0.233525,35,74,3,1,9.9453,125,2.42019,8,positive,35,5,4,4,3,4,3,2,4,4,3,3,1,4,3,2,4,5,2,3,5,6,6,6,5,5,2,4,19,female,1,NA,1,19,2,NA,0,0,0,1,0,NA,3,1
NA,NA,135,NA,113,133,NA,NA,125,NA,NA,129,127,0.984074,0.250067,35,75,4,1,9.9453,120,2.53375,4,positive,35,5,4,4,3,4,3,2,4,4,3,3,1,4,3,2,4,5,2,3,5,6,6,6,5,5,2,4,19,female,1,NA,1,19,2,NA,0,0,0,1,0,NA,3,1
NA,NA,123,NA,139,141,135,127,115,143,NA,131,131.75,0.984362,0.233568,35,76,2,1,9.9453,118,1.8713,7,positive,35,5,4,4,3,4,3,2,4,4,3,3,1,4,3,2,4,5,2,3,5,6,6,6,5,5,2,4,19,female,1,NA,1,19,2,NA,0,0,0,1,0,NA,3,1
NA,NA,NA,NA,NA,NA,NA,NA,NA,NA,136,132,134,0.984031,0.233425,35,77,2,1,9.9453,119,1.70802,1,positive,35,5,4,4,3,4,3,2,4,4,3,3,1,4,3,2,4,5,2,3,5,6,6,6,5,5,2,4,19,female,1,NA,1,19,2,NA,0,0,0,1,0,NA,3,1
122,116,NA,105,NA,106,NA,NA,NA,NA,125,NA,114.8,0.983987,0.250091,35,78,4,1,9.89949,115,1.90543,4,negative,35,5,4,4,3,4,3,2,4,4,3,3,1,4,3,2,4,5,2,3,5,6,6,6,5,5,2,4,19,female,1,NA,1,19,2,NA,0,0,0,1,0,NA,3,1
NA,NA,NA,NA,NA,NA,NA,NA,NA,125,109,NA,117,0.999967,0.250076,35,79,3,1,9.9453,117,1.70261,1,positive,35,5,4,4,3,4,3,2,4,4,3,3,1,4,3,2,4,5,2,3,5,6,6,6,5,5,2,4,19,female,1,NA,1,19,2,NA,0,0,0,1,0,NA,3,1
145,139,NA,NA,148,NA,NA,NA,NA,NA,127,150,141.8,0.984111,0.233553,35,80,1,1,9.78364,134,2.48102,4,negative,35,5,4,4,3,4,3,2,4,4,3,3,1,4,3,2,4,5,2,3,5,6,6,6,5,5,2,4,19,female,1,NA,1,19,2,NA,0,0,0,1,0,NA,3,1
NA,135,NA,111,127,129,NA,NA,115,NA,119,NA,122.667,0.984331,0.233577,35,81,4,1,9.9453,121,1.54462,5,negative,35,5,4,4,3,4,3,2,4,4,3,3,1,4,3,2,4,5,2,3,5,6,6,6,5,5,2,4,19,female,1,NA,1,19,2,NA,0,0,0,1,0,NA,3,1
126,NA,NA,NA,128,NA,130,142,138,NA,148,150,137.429,0.984268,0.250132,35,82,1,1,9.9453,133,2.34505,6,negative,35,5,4,4,3,4,3,2,4,4,3,3,1,4,3,2,4,5,2,3,5,6,6,6,5,5,2,4,19,female,1,NA,1,19,2,NA,0,0,0,1,0,NA,3,1
105,NA,NA,NA,NA,122,102,102,103,104,NA,113,107.286,0.984244,0.233513,35,83,2,1,9.89949,101,2.56198,6,positive,35,5,4,4,3,4,3,2,4,4,3,3,1,4,3,2,4,5,2,3,5,6,6,6,5,5,2,4,19,female,1,NA,1,19,2,NA,0,0,0,1,0,NA,3,1
109,113,129,103,107,NA,117,NA,105,101,125,127,113.6,0.984222,0.233567,35,84,4,1,9.9453,116,1.41442,9,negative,35,5,4,4,3,4,3,2,4,4,3,3,1,4,3,2,4,5,2,3,5,6,6,6,5,5,2,4,19,female,1,NA,1,19,2,NA,0,0,0,1,0,NA,3,1
137,143,145,133,129,119,139,117,121,NA,123,NA,130.6,0.984034,0.233616,35,85,2,1,9.9453,132,2.94921,9,negative,35,5,4,4,3,4,3,2,4,4,3,3,1,4,3,2,4,5,2,3,5,6,6,6,5,5,2,4,19,female,1,NA,1,19,2,NA,0,0,0,1,0,NA,3,1
127,NA,131,NA,NA,121,NA,129,NA,111,109,117,120.714,0.983979,0.233559,35,86,2,1,9.9453,125,1.03014,6,positive,35,5,4,4,3,4,3,2,4,4,3,3,1,4,3,2,4,5,2,3,5,6,6,6,5,5,2,4,19,female,1,NA,1,19,2,NA,0,0,0,1,0,NA,3,1
115,NA,113,NA,135,129,121,NA,NA,137,NA,131,125.857,0.984009,0.233453,35,87,3,1,9.9453,109,2.90844,6,positive,35,5,4,4,3,4,3,2,4,4,3,3,1,4,3,2,4,5,2,3,5,6,6,6,5,5,2,4,19,female,1,NA,1,19,2,NA,0,0,0,1,0,NA,3,1
138,128,112,120,140,114,118,NA,136,NA,116,NA,124.667,0.984336,0.233545,35,88,1,1,9.9453,129,1.33375,8,negative,35,5,4,4,3,4,3,2,4,4,3,3,1,4,3,2,4,5,2,3,5,6,6,6,5,5,2,4,19,female,1,NA,1,19,2,NA,0,0,0,1,0,NA,3,1
NA,125,127,119,121,145,NA,NA,131,NA,139,NA,129.571,0.984097,0.250118,35,89,1,1,9.9453,123,1.55451,6,negative,35,5,4,4,3,4,3,2,4,4,3,3,1,4,3,2,4,5,2,3,5,6,6,6,5,5,2,4,19,female,1,NA,1,19,2,NA,0,0,0,1,0,NA,3,1
131,129,119,103,105,107,127,109,123,NA,111,115,116.273,0.984163,0.233609,35,90,1,1,9.9453,115,2.50712,10,negative,35,5,4,4,3,4,3,2,4,4,3,3,1,4,3,2,4,5,2,3,5,6,6,6,5,5,2,4,19,female,1,NA,1,19,2,NA,0,0,0,1,0,NA,3,1
115,121,117,143,131,141,135,119,137,139,123,127,129,0.984024,0.233537,35,91,3,1,9.9453,119,1.20562,11,positive,35,5,4,4,3,4,3,2,4,4,3,3,1,4,3,2,4,5,2,3,5,6,6,6,5,5,2,4,19,female,1,NA,1,19,2,NA,0,0,0,1,0,NA,3,1
142,120,118,NA,NA,140,NA,126,130,NA,138,122,129.5,0.983839,0.233638,35,92,2,1,9.9453,124,3.0045,7,negative,35,5,4,4,3,4,3,2,4,4,3,3,1,4,3,2,4,5,2,3,5,6,6,6,5,5,2,4,19,female,1,NA,1,19,2,NA,0,0,0,1,0,NA,3,1
130,118,106,104,122,110,NA,NA,102,NA,114,108,112.667,0.984153,0.233567,35,93,1,1,9.9453,118,2.33405,8,positive,35,5,4,4,3,4,3,2,4,4,3,3,1,4,3,2,4,5,2,3,5,6,6,6,5,5,2,4,19,female,1,NA,1,19,2,NA,0,0,0,1,0,NA,3,1
NA,133,NA,135,NA,115,131,119,NA,NA,137,NA,128.333,0.984172,0.23345,35,94,2,1,9.9453,129,2.08378,5,positive,35,5,4,4,3,4,3,2,4,4,3,3,1,4,3,2,4,5,2,3,5,6,6,6,5,5,2,4,19,female,1,NA,1,19,2,NA,0,0,0,1,0,NA,3,1
NA,149,NA,NA,NA,NA,NA,NA,NA,NA,NA,NA,149,0.984094,0.250088,35,95,2,1,9.98598,133,2.11008,0,positive,35,5,4,4,3,4,3,2,4,4,3,3,1,4,3,2,4,5,2,3,5,6,6,6,5,5,2,4,19,female,1,NA,1,19,2,NA,0,0,0,1,0,NA,3,1
NA,NA,128,148,135,NA,127,NA,139,NA,134,150,137.286,0.983892,0.250128,35,96,2,1,9.78364,132,1.88296,6,negative,35,5,4,4,3,4,3,2,4,4,3,3,1,4,3,2,4,5,2,3,5,6,6,6,5,5,2,4,19,female,1,NA,1,19,2,NA,0,0,0,1,0,NA,3,1
122,NA,NA,NA,120,NA,NA,142,NA,NA,NA,NA,128,0.984166,0.233492,35,97,2,1,9.9453,139,2.32612,2,positive,35,5,4,4,3,4,3,2,4,4,3,3,1,4,3,2,4,5,2,3,5,6,6,6,5,5,2,4,19,female,1,NA,1,19,2,NA,0,0,0,1,0,NA,3,1
NA,109,NA,NA,NA,113,NA,NA,NA,NA,NA,117,113,0.983669,0.250049,35,98,3,1,9.9453,110,4.19842,2,negative,35,5,4,4,3,4,3,2,4,4,3,3,1,4,3,2,4,5,2,3,5,6,6,6,5,5,2,4,19,female,1,NA,1,19,2,NA,0,0,0,1,0,NA,3,1
119,139,137,131,141,123,117,115,143,135,121,127,129,0.984482,0.233681,35,99,2,1,9.9453,121,1.57223,11,negative,35,5,4,4,3,4,3,2,4,4,3,3,1,4,3,2,4,5,2,3,5,6,6,6,5,5,2,4,19,female,1,NA,1,19,2,NA,0,0,0,1,0,NA,3,1
NA,118,128,112,110,134,NA,130,122,NA,114,132,122.222,0.984026,0.233595,35,100,3,1,9.9453,131,2.07563,8,negative,35,5,4,4,3,4,3,2,4,4,3,3,1,4,3,2,4,5,2,3,5,6,6,6,5,5,2,4,19,female,1,NA,1,19,2,NA,0,0,0,1,0,NA,3,1
NA,NA,114,NA,NA,NA,116,NA,NA,NA,138,NA,122.667,0.984168,0.233525,35,101,4,1,9.9453,124,2.67867,2,positive,35,5,4,4,3,4,3,2,4,4,3,3,1,4,3,2,4,5,2,3,5,6,6,6,5,5,2,4,19,female,1,NA,1,19,2,NA,0,0,0,1,0,NA,3,1
NA,NA,NA,NA,135,NA,NA,NA,121,NA,NA,NA,128,0.983706,0.233534,35,102,4,1,9.9453,122,1.45769,1,positive,35,5,4,4,3,4,3,2,4,4,3,3,1,4,3,2,4,5,2,3,5,6,6,6,5,5,2,4,19,female,1,NA,1,19,2,NA,0,0,0,1,0,NA,3,1
150,138,134,122,148,128,144,124,130,142,146,126,136,0.984578,0.233585,35,103,3,1,9.9453,131,2.22958,11,negative,35,5,4,4,3,4,3,2,4,4,3,3,1,4,3,2,4,5,2,3,5,6,6,6,5,5,2,4,19,female,1,NA,1,19,2,NA,0,0,0,1,0,NA,3,1
NA,119,127,NA,107,102,102,NA,102,NA,104,113,109.5,0.984097,0.233489,35,104,1,1,9.89949,127,1.2547,7,positive,35,5,4,4,3,4,3,2,4,4,3,3,1,4,3,2,4,5,2,3,5,6,6,6,5,5,2,4,19,female,1,NA,1,19,2,NA,0,0,0,1,0,NA,3,1
NA,NA,118,134,NA,126,NA,NA,NA,140,120,136,129,0.984311,0.233435,35,105,2,1,9.9453,126,1.77117,5,negative,35,5,4,4,3,4,3,2,4,4,3,3,1,4,3,2,4,5,2,3,5,6,6,6,5,5,2,4,19,female,1,NA,1,19,2,NA,0,0,0,1,0,NA,3,1
NA,136,NA,NA,NA,NA,NA,NA,NA,NA,NA,NA,136,0.983793,0.233501,35,106,2,1,9.9453,136,2.45069,0,negative,35,5,4,4,3,4,3,2,4,4,3,3,1,4,3,2,4,5,2,3,5,6,6,6,5,5,2,4,19,female,1,NA,1,19,2,NA,0,0,0,1,0,NA,3,1
NA,NA,130,124,NA,108,128,114,NA,116,134,NA,122,1.0004,0.233506,35,107,4,1,9.9453,122,1.7424,6,negative,35,5,4,4,3,4,3,2,4,4,3,3,1,4,3,2,4,5,2,3,5,6,6,6,5,5,2,4,19,female,1,NA,1,19,2,NA,0,0,0,1,0,NA,3,1
119,NA,NA,NA,NA,113,109,115,123,133,135,NA,121,0.984268,0.2335,35,108,1,1,9.9453,132,1.82262,6,negative,35,5,4,4,3,4,3,2,4,4,3,3,1,4,3,2,4,5,2,3,5,6,6,6,5,5,2,4,19,female,1,NA,1,19,2,NA,0,0,0,1,0,NA,3,1
127,NA,NA,NA,125,NA,NA,103,NA,NA,105,NA,115,0.983895,0.233411,35,109,3,1,9.9453,130,2.16407,3,negative,35,5,4,4,3,4,3,2,4,4,3,3,1,4,3,2,4,5,2,3,5,6,6,6,5,5,2,4,19,female,1,NA,1,19,2,NA,0,0,0,1,0,NA,3,1
NA,131,117,NA,NA,115,127,137,NA,NA,NA,NA,125.4,0.984051,0.233431,35,110,2,1,9.9453,108,5.44695,4,negative,35,5,4,4,3,4,3,2,4,4,3,3,1,4,3,2,4,5,2,3,5,6,6,6,5,5,2,4,19,female,1,NA,1,19,2,NA,0,0,0,1,0,NA,3,1
139,148,NA,NA,145,150,128,150,127,125,NA,150,140.222,0.984234,0.233416,35,111,1,1,9.78364,141,2.37368,8,positive,35,5,4,4,3,4,3,2,4,4,3,3,1,4,3,2,4,5,2,3,5,6,6,6,5,5,2,4,19,female,1,NA,1,19,2,NA,0,0,0,1,0,NA,3,1
110,112,118,138,126,132,130,NA,NA,136,134,116,125.2,0.984253,0.233567,35,112,4,1,9.9453,125,1.72888,9,positive,35,5,4,4,3,4,3,2,4,4,3,3,1,4,3,2,4,5,2,3,5,6,6,6,5,5,2,4,19,female,1,NA,1,19,2,NA,0,0,0,1,0,NA,3,1
150,125,NA,145,148,128,NA,134,139,150,NA,NA,139.875,0.984164,0.250129,35,113,2,1,9.78364,136,1.54142,7,negative,35,5,4,4,3,4,3,2,4,4,3,3,1,4,3,2,4,5,2,3,5,6,6,6,5,5,2,4,19,female,1,NA,1,19,2,NA,0,0,0,1,0,NA,3,1
NA,NA,NA,104,102,NA,122,103,NA,NA,NA,NA,107.75,0.984219,0.233534,35,114,2,1,9.89949,120,2.29388,3,positive,35,5,4,4,3,4,3,2,4,4,3,3,1,4,3,2,4,5,2,3,5,6,6,6,5,5,2,4,19,female,1,NA,1,19,2,NA,0,0,0,1,0,NA,3,1
119,125,NA,137,113,135,NA,NA,115,121,141,139,127.222,0.984064,0.233579,35,115,1,1,9.9453,138,1.80835,8,negative,35,5,4,4,3,4,3,2,4,4,3,3,1,4,3,2,4,5,2,3,5,6,6,6,5,5,2,4,19,female,1,NA,1,19,2,NA,0,0,0,1,0,NA,3,1
145,NA,147,NA,NA,NA,142,NA,122,NA,149,NA,141,0.984058,0.23348,35,116,3,1,9.98598,133,1.30637,4,positive,35,5,4,4,3,4,3,2,4,4,3,3,1,4,3,2,4,5,2,3,5,6,6,6,5,5,2,4,19,female,1,NA,1,19,2,NA,0,0,0,1,0,NA,3,1
113,125,NA,127,NA,NA,NA,129,117,131,109,NA,121.571,0.984254,0.250118,35,117,2,1,9.9453,118,1.28362,6,negative,35,5,4,4,3,4,3,2,4,4,3,3,1,4,3,2,4,5,2,3,5,6,6,6,5,5,2,4,19,female,1,NA,1,19,2,NA,0,0,0,1,0,NA,3,1
NA,102,127,102,NA,107,113,122,105,104,NA,NA,110.25,0.984181,0.233556,35,118,4,1,9.89949,121,1.03412,7,negative,35,5,4,4,3,4,3,2,4,4,3,3,1,4,3,2,4,5,2,3,5,6,6,6,5,5,2,4,19,female,1,NA,1,19,2,NA,0,0,0,1,0,NA,3,1
116,130,NA,NA,120,126,134,NA,136,142,140,138,131.333,0.984315,0.233461,35,119,2,1,9.9453,122,1.10735,8,positive,35,5,4,4,3,4,3,2,4,4,3,3,1,4,3,2,4,5,2,3,5,6,6,6,5,5,2,4,19,female,1,NA,1,19,2,NA,0,0,0,1,0,NA,3,1
107,NA,117,125,NA,105,109,121,NA,129,NA,101,114.25,0.984035,0.233678,35,120,3,1,9.9453,116,1.3611,7,negative,35,5,4,4,3,4,3,2,4,4,3,3,1,4,3,2,4,5,2,3,5,6,6,6,5,5,2,4,19,female,1,NA,1,19,2,NA,0,0,0,1,0,NA,3,1
NA,113,131,NA,NA,NA,NA,107,NA,NA,NA,NA,117,0.983841,0.233567,35,121,3,1,9.9453,115,2.11246,2,positive,35,5,4,4,3,4,3,2,4,4,3,3,1,4,3,2,4,5,2,3,5,6,6,6,5,5,2,4,19,female,1,NA,1,19,2,NA,0,0,0,1,0,NA,3,1
105,109,131,123,115,107,127,119,103,125,129,111,117,0.984227,0.233563,35,122,4,1,9.9453,122,2.65771,11,negative,35,5,4,4,3,4,3,2,4,4,3,3,1,4,3,2,4,5,2,3,5,6,6,6,5,5,2,4,19,female,1,NA,1,19,2,NA,0,0,0,1,0,NA,3,1
NA,NA,135,NA,NA,NA,123,117,NA,115,139,131,126.667,0.984232,0.233514,35,123,2,1,9.9453,124,2.03646,5,positive,35,5,4,4,3,4,3,2,4,4,3,3,1,4,3,2,4,5,2,3,5,6,6,6,5,5,2,4,19,female,1,NA,1,19,2,NA,0,0,0,1,0,NA,3,1
NA,102,NA,NA,102,127,122,NA,119,NA,NA,102,112.333,0.984304,0.233573,35,124,3,1,9.89949,116,1.93666,5,negative,35,5,4,4,3,4,3,2,4,4,3,3,1,4,3,2,4,5,2,3,5,6,6,6,5,5,2,4,19,female,1,NA,1,19,2,NA,0,0,0,1,0,NA,3,1
131,137,NA,113,111,NA,125,NA,NA,109,NA,NA,121,0.984275,0.233513,35,125,1,1,9.9453,125,1.76916,5,positive,35,5,4,4,3,4,3,2,4,4,3,3,1,4,3,2,4,5,2,3,5,6,6,6,5,5,2,4,19,female,1,NA,1,19,2,NA,0,0,0,1,0,NA,3,1
NA,NA,NA,NA,NA,NA,126,108,NA,NA,NA,NA,117,0.984055,0.233579,35,126,3,1,9.9453,122,2.42831,1,negative,35,5,4,4,3,4,3,2,4,4,3,3,1,4,3,2,4,5,2,3,5,6,6,6,5,5,2,4,19,female,1,NA,1,19,2,NA,0,0,0,1,0,NA,3,1
NA,NA,NA,NA,NA,NA,114,NA,NA,136,NA,NA,125,0.983691,0.233547,35,127,2,1,9.9453,128,1.3127,1,negative,35,5,4,4,3,4,3,2,4,4,3,3,1,4,3,2,4,5,2,3,5,6,6,6,5,5,2,4,19,female,1,NA,1,19,2,NA,0,0,0,1,0,NA,3,1
107,126,NA,102,103,104,NA,127,NA,105,113,122,112.111,0.984248,0.250157,35,128,1,1,9.89949,122,1.57352,8,positive,35,5,4,4,3,4,3,2,4,4,3,3,1,4,3,2,4,5,2,3,5,6,6,6,5,5,2,4,19,female,1,NA,1,19,2,NA,0,0,0,1,0,NA,3,1
144,127,138,NA,126,147,149,124,134,150,133,147,138.091,0.984154,0.233552,35,129,4,1,9.88111,132,1.78021,10,positive,35,5,4,4,3,4,3,2,4,4,3,3,1,4,3,2,4,5,2,3,5,6,6,6,5,5,2,4,19,female,1,NA,1,19,2,NA,0,0,0,1,0,NA,3,1
NA,NA,NA,126,NA,NA,NA,134,NA,NA,NA,NA,130,0.983578,0.233549,35,130,3,1,9.9453,132,1.46691,1,negative,35,5,4,4,3,4,3,2,4,4,3,3,1,4,3,2,4,5,2,3,5,6,6,6,5,5,2,4,19,female,1,NA,1,19,2,NA,0,0,0,1,0,NA,3,1
124,NA,120,NA,NA,126,128,NA,122,NA,NA,148,128,0.984178,0.233545,35,131,4,1,9.9453,121,2.41833,5,negative,35,5,4,4,3,4,3,2,4,4,3,3,1,4,3,2,4,5,2,3,5,6,6,6,5,5,2,4,19,female,1,NA,1,19,2,NA,0,0,0,1,0,NA,3,1
NA,121,NA,NA,NA,NA,NA,NA,NA,NA,NA,NA,121,0.983851,0.233401,35,132,4,1,9.89949,122,1.30645,0,positive,35,5,4,4,3,4,3,2,4,4,3,3,1,4,3,2,4,5,2,3,5,6,6,6,5,5,2,4,19,female,1,NA,1,19,2,NA,0,0,0,1,0,NA,3,1
NA,NA,143,NA,NA,147,NA,NA,NA,NA,NA,NA,145,0.983822,0.233465,35,133,2,1,9.9453,119,2.16358,1,positive,35,5,4,4,3,4,3,2,4,4,3,3,1,4,3,2,4,5,2,3,5,6,6,6,5,5,2,4,19,female,1,NA,1,19,2,NA,0,0,0,1,0,NA,3,1
NA,150,135,148,145,139,127,NA,NA,128,150,148,141.111,0.984386,0.233656,35,134,3,1,9.78364,131,1.33001,8,positive,35,5,4,4,3,4,3,2,4,4,3,3,1,4,3,2,4,5,2,3,5,6,6,6,5,5,2,4,19,female,1,NA,1,19,2,NA,0,0,0,1,0,NA,3,1
103,128,123,106,103,114,104,120,103,127,105,108,112,0.98416,0.233589,35,135,4,1,9.89949,123,1.56211,11,negative,35,5,4,4,3,4,3,2,4,4,3,3,1,4,3,2,4,5,2,3,5,6,6,6,5,5,2,4,19,female,1,NA,1,19,2,NA,0,0,0,1,0,NA,3,1
NA,131,NA,113,NA,135,127,NA,NA,115,NA,123,124,0.983935,0.233505,35,136,1,1,9.9453,123,1.1136,5,positive,35,5,4,4,3,4,3,2,4,4,3,3,1,4,3,2,4,5,2,3,5,6,6,6,5,5,2,4,19,female,1,NA,1,19,2,NA,0,0,0,1,0,NA,3,1
139,115,137,117,123,111,113,119,135,127,131,133,125,0.984582,0.233567,35,137,3,1,9.9453,119,1.33852,11,positive,35,5,4,4,3,4,3,2,4,4,3,3,1,4,3,2,4,5,2,3,5,6,6,6,5,5,2,4,19,female,1,NA,1,19,2,NA,0,0,0,1,0,NA,3,1
NA,121,NA,NA,104,103,NA,125,NA,101,101,NA,109.167,0.983918,0.233527,35,138,1,1,9.89949,122,1.27423,5,positive,35,5,4,4,3,4,3,2,4,4,3,3,1,4,3,2,4,5,2,3,5,6,6,6,5,5,2,4,19,female,1,NA,1,19,2,NA,0,0,0,1,0,NA,3,1
NA,134,NA,147,138,149,149,147,150,124,126,127,139.1,0.984021,0.233546,35,139,4,1,9.88111,125,1.15707,9,negative,35,5,4,4,3,4,3,2,4,4,3,3,1,4,3,2,4,5,2,3,5,6,6,6,5,5,2,4,19,female,1,NA,1,19,2,NA,0,0,0,1,0,NA,3,1
NA,135,NA,115,NA,137,129,113,131,125,121,117,124.778,0.984287,0.23347,35,140,1,1,9.9453,126,1.08784,8,positive,35,5,4,4,3,4,3,2,4,4,3,3,1,4,3,2,4,5,2,3,5,6,6,6,5,5,2,4,19,female,1,NA,1,19,2,NA,0,0,0,1,0,NA,3,1
NA,NA,NA,NA,139,145,127,NA,148,NA,150,NA,141.8,0.983809,0.233493,35,141,4,1,9.78364,132,1.44984,4,negative,35,5,4,4,3,4,3,2,4,4,3,3,1,4,3,2,4,5,2,3,5,6,6,6,5,5,2,4,19,female,1,NA,1,19,2,NA,0,0,0,1,0,NA,3,1
NA,NA,129,NA,NA,NA,NA,NA,NA,NA,NA,NA,129,0.983688,0.233391,35,142,4,1,9.9453,129,0.980793,0,positive,35,5,4,4,3,4,3,2,4,4,3,3,1,4,3,2,4,5,2,3,5,6,6,6,5,5,2,4,19,female,1,NA,1,19,2,NA,0,0,0,1,0,NA,3,1
NA,135,NA,NA,127,131,133,109,NA,107,123,115,122.5,0.984139,0.23348,35,143,3,1,9.9453,119,1.65886,7,negative,35,5,4,4,3,4,3,2,4,4,3,3,1,4,3,2,4,5,2,3,5,6,6,6,5,5,2,4,19,female,1,NA,1,19,2,NA,0,0,0,1,0,NA,3,1
NA,110,NA,126,130,NA,132,NA,108,104,NA,NA,118.333,0.984056,0.233538,35,144,1,1,9.9453,131,1.36136,5,negative,35,5,4,4,3,4,3,2,4,4,3,3,1,4,3,2,4,5,2,3,5,6,6,6,5,5,2,4,19,female,1,NA,1,19,2,NA,0,0,0,1,0,NA,3,1
NA,NA,NA,NA,NA,NA,101,NA,NA,112,NA,NA,106.5,0.983877,0.233463,35,145,3,1,9.89949,125,2.30425,1,positive,35,5,4,4,3,4,3,2,4,4,3,3,1,4,3,2,4,5,2,3,5,6,6,6,5,5,2,4,19,female,1,NA,1,19,2,NA,0,0,0,1,0,NA,3,1
NA,NA,NA,NA,105,NA,NA,NA,NA,NA,NA,NA,105,0.983893,0.233433,35,146,2,1,9.89949,122,6.61244,0,negative,35,5,4,4,3,4,3,2,4,4,3,3,1,4,3,2,4,5,2,3,5,6,6,6,5,5,2,4,19,female,1,NA,1,19,2,NA,0,0,0,1,0,NA,3,1
109,115,129,111,107,133,NA,NA,135,123,119,113,119.4,0.984225,0.233504,35,147,3,1,9.9453,117,1.78342,9,positive,35,5,4,4,3,4,3,2,4,4,3,3,1,4,3,2,4,5,2,3,5,6,6,6,5,5,2,4,19,female,1,NA,1,19,2,NA,0,0,0,1,0,NA,3,1
NA,NA,NA,NA,NA,NA,125,121,NA,NA,NA,133,126.333,0.983922,0.233534,35,148,2,1,9.9453,119,1.24131,2,positive,35,5,4,4,3,4,3,2,4,4,3,3,1,4,3,2,4,5,2,3,5,6,6,6,5,5,2,4,19,female,1,NA,1,19,2,NA,0,0,0,1,0,NA,3,1
NA,109,NA,125,NA,129,NA,NA,NA,NA,NA,NA,121,0.984017,0.233525,35,149,4,1,9.9453,122,1.18475,2,negative,35,5,4,4,3,4,3,2,4,4,3,3,1,4,3,2,4,5,2,3,5,6,6,6,5,5,2,4,19,female,1,NA,1,19,2,NA,0,0,0,1,0,NA,3,1
120,118,122,NA,NA,134,NA,140,114,138,NA,NA,126.571,0.984234,0.23356,35,150,4,1,9.9453,114,1.39774,6,negative,35,5,4,4,3,4,3,2,4,4,3,3,1,4,3,2,4,5,2,3,5,6,6,6,5,5,2,4,19,female,1,NA,1,19,2,NA,0,0,0,1,0,NA,3,1
112,NA,128,116,118,114,124,140,134,132,136,138,126.545,0.990355,0.250154,36,1,1,1,9.9453,129,2.20726,10,positive,36,2,2,3,3,1,5,1,5,1,5,5,3,3,5,5,5,5,2,5,5,6,5,7,3,5,3,3,21,female,1,NA,1,N/A,1,NA,0,0,1,0,0,NA,3,6
NA,118,136,NA,134,NA,138,120,126,114,NA,122,126,0.999635,0.250144,36,2,3,1,9.9453,127,2.02952,7,negative,36,2,2,3,3,1,5,1,5,1,5,5,3,3,5,5,5,5,2,5,5,6,5,7,3,5,3,3,21,female,1,NA,1,N/A,1,NA,0,0,1,0,0,NA,3,6
NA,NA,120,132,148,NA,NA,NA,146,122,124,126,131.143,0.984046,0.233523,36,3,3,1,9.9453,135,2.20949,6,negative,36,2,2,3,3,1,5,1,5,1,5,5,3,3,5,5,5,5,2,5,5,6,5,7,3,5,3,3,21,female,1,NA,1,N/A,1,NA,0,0,1,0,0,NA,3,6
118,138,112,134,NA,136,124,NA,116,120,NA,NA,124.75,0.984059,0.233474,36,4,1,1,9.9453,134,1.92655,7,positive,36,2,2,3,3,1,5,1,5,1,5,5,3,3,5,5,5,5,2,5,5,6,5,7,3,5,3,3,21,female,1,NA,1,N/A,1,NA,0,0,1,0,0,NA,3,6
104,128,124,115,121,109,NA,104,107,NA,129,105,114.6,0.984329,0.233583,36,5,2,1,9.89949,119,1.9791,9,negative,36,2,2,3,3,1,5,1,5,1,5,5,3,3,5,5,5,5,2,5,5,6,5,7,3,5,3,3,21,female,1,NA,1,N/A,1,NA,0,0,1,0,0,NA,3,6
NA,NA,NA,NA,NA,137,139,NA,129,119,NA,NA,131,0.983987,0.25014,36,6,2,1,9.9453,127,1.53992,3,negative,36,2,2,3,3,1,5,1,5,1,5,5,3,3,5,5,5,5,2,5,5,6,5,7,3,5,3,3,21,female,1,NA,1,N/A,1,NA,0,0,1,0,0,NA,3,6
121,NA,149,NA,137,145,NA,NA,NA,141,125,147,137.857,1.00044,0.23373,36,7,3,1,9.9453,142,4.20669,6,negative,36,2,2,3,3,1,5,1,5,1,5,5,3,3,5,5,5,5,2,5,5,6,5,7,3,5,3,3,21,female,1,NA,1,N/A,1,NA,0,0,1,0,0,NA,3,6
119,111,133,127,107,131,NA,NA,115,109,129,135,121.6,0.984208,0.233569,36,8,1,1,9.9453,126,1.76565,9,positive,36,2,2,3,3,1,5,1,5,1,5,5,3,3,5,5,5,5,2,5,5,6,5,7,3,5,3,3,21,female,1,NA,1,N/A,1,NA,0,0,1,0,0,NA,3,6
NA,NA,NA,NA,101,NA,NA,101,NA,NA,NA,NA,101,0.98378,0.250083,36,9,1,1,9.89949,106,2.28374,1,positive,36,2,2,3,3,1,5,1,5,1,5,5,3,3,5,5,5,5,2,5,5,6,5,7,3,5,3,3,21,female,1,NA,1,N/A,1,NA,0,0,1,0,0,NA,3,6
118,101,112,125,104,101,NA,106,103,101,121,126,110.727,0.984216,0.233559,36,10,3,1,9.89949,129,1.14516,10,negative,36,2,2,3,3,1,5,1,5,1,5,5,3,3,5,5,5,5,2,5,5,6,5,7,3,5,3,3,21,female,1,NA,1,N/A,1,NA,0,0,1,0,0,NA,3,6
NA,108,112,116,106,NA,126,132,130,110,104,NA,116,0.983978,0.23365,36,11,4,1,9.9453,120,1.6848,8,negative,36,2,2,3,3,1,5,1,5,1,5,5,3,3,5,5,5,5,2,5,5,6,5,7,3,5,3,3,21,female,1,NA,1,N/A,1,NA,0,0,1,0,0,NA,3,6
126,133,144,149,127,149,138,NA,124,150,147,147,139.455,0.984055,0.233604,36,12,1,1,9.88111,150,2.86744,10,negative,36,2,2,3,3,1,5,1,5,1,5,5,3,3,5,5,5,5,2,5,5,6,5,7,3,5,3,3,21,female,1,NA,1,N/A,1,NA,0,0,1,0,0,NA,3,6
NA,114,112,134,116,NA,NA,110,124,132,NA,130,121.5,0.983901,0.233666,36,13,3,1,9.9453,148,1.95325,7,positive,36,2,2,3,3,1,5,1,5,1,5,5,3,3,5,5,5,5,2,5,5,6,5,7,3,5,3,3,21,female,1,NA,1,N/A,1,NA,0,0,1,0,0,NA,3,6
116,NA,107,NA,105,105,105,130,NA,129,NA,110,113.375,0.983996,0.233496,36,14,4,1,9.89949,123,1.38446,7,positive,36,2,2,3,3,1,5,1,5,1,5,5,3,3,5,5,5,5,2,5,5,6,5,7,3,5,3,3,21,female,1,NA,1,N/A,1,NA,0,0,1,0,0,NA,3,6
NA,107,NA,NA,117,NA,NA,NA,105,121,111,NA,112.2,0.984002,0.233477,36,15,1,1,9.9453,118,1.82631,4,positive,36,2,2,3,3,1,5,1,5,1,5,5,3,3,5,5,5,5,2,5,5,6,5,7,3,5,3,3,21,female,1,NA,1,N/A,1,NA,0,0,1,0,0,NA,3,6
123,125,129,105,121,107,103,109,117,127,NA,113,116.273,0.984422,0.233551,36,16,3,1,9.9453,126,1.46659,10,positive,36,2,2,3,3,1,5,1,5,1,5,5,3,3,5,5,5,5,2,5,5,6,5,7,3,5,3,3,21,female,1,NA,1,N/A,1,NA,0,0,1,0,0,NA,3,6
NA,NA,129,NA,NA,NA,NA,135,NA,NA,119,133,129,0.983773,0.233546,36,17,4,1,9.9453,135,1.51738,3,positive,36,2,2,3,3,1,5,1,5,1,5,5,3,3,5,5,5,5,2,5,5,6,5,7,3,5,3,3,21,female,1,NA,1,N/A,1,NA,0,0,1,0,0,NA,3,6
NA,NA,NA,NA,120,NA,NA,142,NA,NA,NA,NA,131,0.98396,0.233565,36,18,4,1,9.9453,124,1.1532,1,positive,36,2,2,3,3,1,5,1,5,1,5,5,3,3,5,5,5,5,2,5,5,6,5,7,3,5,3,3,21,female,1,NA,1,N/A,1,NA,0,0,1,0,0,NA,3,6
NA,122,146,NA,NA,144,NA,NA,NA,120,NA,NA,133,0.983848,0.233464,36,19,1,1,9.9453,132,1.17587,3,negative,36,2,2,3,3,1,5,1,5,1,5,5,3,3,5,5,5,5,2,5,5,6,5,7,3,5,3,3,21,female,1,NA,1,N/A,1,NA,0,0,1,0,0,NA,3,6
129,122,NA,105,116,NA,106,NA,NA,130,NA,110,116.857,1.00047,0.250134,36,20,4,1,9.89949,122,1.85682,6,positive,36,2,2,3,3,1,5,1,5,1,5,5,3,3,5,5,5,5,2,5,5,6,5,7,3,5,3,3,21,female,1,NA,1,N/A,1,NA,0,0,1,0,0,NA,3,6
NA,NA,123,NA,129,NA,NA,NA,NA,119,NA,NA,123.667,0.983636,0.233529,36,21,1,1,9.9453,134,1.35953,2,positive,36,2,2,3,3,1,5,1,5,1,5,5,3,3,5,5,5,5,2,5,5,6,5,7,3,5,3,3,21,female,1,NA,1,N/A,1,NA,0,0,1,0,0,NA,3,6
NA,145,139,NA,135,NA,128,NA,150,NA,134,150,140.143,0.983894,0.233543,36,22,2,1,9.78364,150,1.63394,6,negative,36,2,2,3,3,1,5,1,5,1,5,5,3,3,5,5,5,5,2,5,5,6,5,7,3,5,3,3,21,female,1,NA,1,N/A,1,NA,0,0,1,0,0,NA,3,6
NA,123,139,NA,125,NA,NA,NA,NA,121,NA,NA,127,0.983937,0.2335,36,23,1,1,9.9453,139,1.48944,3,positive,36,2,2,3,3,1,5,1,5,1,5,5,3,3,5,5,5,5,2,5,5,6,5,7,3,5,3,3,21,female,1,NA,1,N/A,1,NA,0,0,1,0,0,NA,3,6
137,125,135,133,111,113,129,109,131,117,121,115,123,0.984547,0.250116,36,24,2,1,9.9453,142,2.83781,11,positive,36,2,2,3,3,1,5,1,5,1,5,5,3,3,5,5,5,5,2,5,5,6,5,7,3,5,3,3,21,female,1,NA,1,N/A,1,NA,0,0,1,0,0,NA,3,6
106,122,NA,NA,107,NA,NA,105,NA,105,NA,NA,109,0.984248,0.233582,36,25,3,1,9.89949,112,1.96471,4,positive,36,2,2,3,3,1,5,1,5,1,5,5,3,3,5,5,5,5,2,5,5,6,5,7,3,5,3,3,21,female,1,NA,1,N/A,1,NA,0,0,1,0,0,NA,3,6
132,112,NA,NA,NA,134,NA,NA,136,118,NA,116,124.667,0.984049,0.233414,36,26,2,1,9.9453,134,2.2432,5,negative,36,2,2,3,3,1,5,1,5,1,5,5,3,3,5,5,5,5,2,5,5,6,5,7,3,5,3,3,21,female,1,NA,1,N/A,1,NA,0,0,1,0,0,NA,3,6
138,134,116,142,118,120,126,140,130,122,114,NA,127.273,1.0005,0.233686,36,27,4,1,9.9453,114,2.26496,10,positive,36,2,2,3,3,1,5,1,5,1,5,5,3,3,5,5,5,5,2,5,5,6,5,7,3,5,3,3,21,female,1,NA,1,N/A,1,NA,0,0,1,0,0,NA,3,6
NA,141,NA,123,NA,NA,125,NA,NA,121,NA,143,130.6,0.983928,0.233602,36,28,4,1,9.9453,136,1.21089,4,positive,36,2,2,3,3,1,5,1,5,1,5,5,3,3,5,5,5,5,2,5,5,6,5,7,3,5,3,3,21,female,1,NA,1,N/A,1,NA,0,0,1,0,0,NA,3,6
127,107,NA,129,105,NA,121,109,NA,117,113,NA,116,0.984286,0.233514,36,29,4,1,9.9453,130,2.20331,7,negative,36,2,2,3,3,1,5,1,5,1,5,5,3,3,5,5,5,5,2,5,5,6,5,7,3,5,3,3,21,female,1,NA,1,N/A,1,NA,0,0,1,0,0,NA,3,6
125,NA,121,NA,NA,129,149,NA,145,127,133,NA,132.714,0.983937,0.250165,36,30,2,1,9.9453,131,1.39486,6,negative,36,2,2,3,3,1,5,1,5,1,5,5,3,3,5,5,5,5,2,5,5,6,5,7,3,5,3,3,21,female,1,NA,1,N/A,1,NA,0,0,1,0,0,NA,3,6
NA,111,NA,NA,NA,NA,NA,NA,NA,NA,NA,NA,111,0.999344,0.233497,36,31,3,1,9.9453,116,2.21114,0,positive,36,2,2,3,3,1,5,1,5,1,5,5,3,3,5,5,5,5,2,5,5,6,5,7,3,5,3,3,21,female,1,NA,1,N/A,1,NA,0,0,1,0,0,NA,3,6
NA,148,NA,NA,132,NA,NA,NA,126,146,NA,NA,138,0.999669,0.233642,36,32,3,1,9.98598,146,1.77883,3,negative,36,2,2,3,3,1,5,1,5,1,5,5,3,3,5,5,5,5,2,5,5,6,5,7,3,5,3,3,21,female,1,NA,1,N/A,1,NA,0,0,1,0,0,NA,3,6
126,133,NA,147,134,138,NA,NA,150,NA,NA,NA,138,1.00035,0.23345,36,33,3,1,9.88111,134,1.29164,5,negative,36,2,2,3,3,1,5,1,5,1,5,5,3,3,5,5,5,5,2,5,5,6,5,7,3,5,3,3,21,female,1,NA,1,N/A,1,NA,0,0,1,0,0,NA,3,6
137,133,127,NA,139,117,131,119,113,NA,NA,111,125.222,0.984143,0.233487,36,34,1,1,9.9453,127,1.16441,8,negative,36,2,2,3,3,1,5,1,5,1,5,5,3,3,5,5,5,5,2,5,5,6,5,7,3,5,3,3,21,female,1,NA,1,N/A,1,NA,0,0,1,0,0,NA,3,6
134,132,108,118,110,128,130,126,106,114,112,122,120,0.984032,0.233624,36,35,4,1,9.9453,119,2.00591,11,positive,36,2,2,3,3,1,5,1,5,1,5,5,3,3,5,5,5,5,2,5,5,6,5,7,3,5,3,3,21,female,1,NA,1,N/A,1,NA,0,0,1,0,0,NA,3,6
