"Subject","Match","Morality","Identity","Ntrials","corrTrials","ACC","RT"
7304,"match","Bad","Other",75,51,0.68,0.772743137254902
7304,"match","Bad","Self",75,60,0.8,0.701163333333333
7304,"match","Good","Other",75,60,0.8,0.74875
7304,"match","Good","Self",75,74,0.986666666666667,0.549127027027027
7304,"mismatch","Bad","Other",75,44,0.586666666666667,0.737170454545455
7304,"mismatch","Bad","Self",75,54,0.72,0.76122962962963
7304,"mismatch","Good","Other",75,43,0.573333333333333,0.768144186046512
7304,"mismatch","Good","Self",75,53,0.706666666666667,0.738154716981132
7305,"match","Bad","Other",75,72,0.96,0.640694444444444
7305,"match","Bad","Self",75,63,0.84,0.605468253968254
7305,"match","Good","Other",75,70,0.933333333333333,0.591458571428571
7305,"match","Good","Self",75,69,0.92,0.578685507246377
7305,"mismatch","Bad","Other",75,63,0.84,0.735066666666667
7305,"mismatch","Bad","Self",75,52,0.693333333333333,0.724509615384615
7305,"mismatch","Good","Other",75,56,0.746666666666667,0.703530357142857
7305,"mismatch","Good","Self",75,55,0.733333333333333,0.711345454545455
7306,"match","Bad","Other",75,67,0.893333333333333,0.757010447761194
7306,"match","Bad","Self",75,70,0.933333333333333,0.746868571428571
7306,"match","Good","Other",75,74,0.986666666666667,0.579809459459459
7306,"match","Good","Self",75,59,0.786666666666667,0.771135593220339
7306,"mismatch","Bad","Other",75,67,0.893333333333333,0.798032835820896
7306,"mismatch","Bad","Self",75,56,0.746666666666667,0.783757142857143
7306,"mismatch","Good","Other",75,63,0.84,0.754433333333333
7306,"mismatch","Good","Self",75,66,0.88,0.77164696969697
7307,"match","Bad","Other",75,55,0.733333333333333,0.769
7307,"match","Bad","Self",75,70,0.933333333333333,0.629395714285714
7307,"match","Good","Other",75,62,0.826666666666667,0.699329032258065
7307,"match","Good","Self",75,64,0.853333333333333,0.6592546875
7307,"mismatch","Bad","Other",75,63,0.84,0.735280952380952
7307,"mismatch","Bad","Self",75,61,0.813333333333333,0.730818032786885
7307,"mismatch","Good","Other",75,60,0.8,0.7335
7307,"mismatch","Good","Self",75,65,0.866666666666667,0.794706153846154
7308,"match","Bad","Other",75,67,0.893333333333333,0.713426865671642
7308,"match","Bad","Self",75,50,0.666666666666667,0.770714
7308,"match","Good","Other",75,66,0.88,0.735087878787879
7308,"match","Good","Self",75,71,0.946666666666667,0.621478873239437
7308,"mismatch","Bad","Other",75,72,0.96,0.700161111111111
7308,"mismatch","Bad","Self",75,63,0.84,0.783871428571429
7308,"mismatch","Good","Other",75,59,0.786666666666667,0.766359322033898
7308,"mismatch","Good","Self",75,66,0.88,0.723507575757576
7309,"match","Bad","Other",75,64,0.853333333333333,0.6783734375
7309,"match","Bad","Self",75,54,0.72,0.726181481481481
7309,"match","Good","Other",75,57,0.76,0.671419298245614
7309,"match","Good","Self",75,70,0.933333333333333,0.596724285714286
7309,"mismatch","Bad","Other",75,57,0.76,0.704173684210526
7309,"mismatch","Bad","Self",75,44,0.586666666666667,0.7536
7309,"mismatch","Good","Other",75,44,0.586666666666667,0.757265909090909
7309,"mismatch","Good","Self",75,52,0.693333333333333,0.726486538461538
7310,"match","Bad","Other",75,67,0.893333333333333,0.621974626865672
7310,"match","Bad","Self",75,72,0.96,0.665611111111111
7310,"match","Good","Other",75,72,0.96,0.539376388888889
7310,"match","Good","Self",75,72,0.96,0.568088888888889
7310,"mismatch","Bad","Other",75,74,0.986666666666667,0.651759459459459
7310,"mismatch","Bad","Self",75,68,0.906666666666667,0.636123529411765
7310,"mismatch","Good","Other",75,70,0.933333333333333,0.605555714285714
7310,"mismatch","Good","Self",75,65,0.866666666666667,0.678649230769231
7311,"match","Bad","Other",75,61,0.813333333333333,0.587834426229508
7311,"match","Bad","Self",75,72,0.96,0.467927777777778
7311,"match","Good","Other",75,69,0.92,0.52511884057971
7311,"match","Good","Self",75,64,0.853333333333333,0.5453953125
7311,"mismatch","Bad","Other",75,51,0.68,0.5839
7311,"mismatch","Bad","Self",75,65,0.866666666666667,0.517061538461538
7311,"mismatch","Good","Other",75,60,0.8,0.589851666666667
7311,"mismatch","Good","Self",75,39,0.52,0.612820512820513
7312,"match","Bad","Other",75,54,0.72,0.790755555555556
7312,"match","Bad","Self",75,66,0.88,0.792693939393939
7312,"match","Good","Other",75,53,0.706666666666667,0.772635849056604
7312,"match","Good","Self",75,73,0.973333333333333,0.615847945205479
7312,"mismatch","Bad","Other",75,56,0.746666666666667,0.783103571428571
7312,"mismatch","Bad","Self",75,67,0.893333333333333,0.7566
7312,"mismatch","Good","Other",75,63,0.84,0.769460317460318
7312,"mismatch","Good","Self",75,63,0.84,0.740398412698413
7313,"match","Bad","Other",73,59,0.808219178082192,0.515679661016949
7313,"match","Bad","Self",75,27,0.36,0.591844444444445
7313,"match","Good","Other",74,45,0.608108108108108,0.585624444444444
7313,"match","Good","Self",74,30,0.405405405405405,0.585113333333333
7313,"mismatch","Bad","Other",74,50,0.675675675675676,0.563912
7313,"mismatch","Bad","Self",70,48,0.685714285714286,0.600341666666667
7313,"mismatch","Good","Other",73,57,0.780821917808219,0.593256140350877
7313,"mismatch","Good","Self",73,64,0.876712328767123,0.563953125
7314,"match","Bad","Other",75,57,0.76,0.756528070175439
7314,"match","Bad","Self",75,59,0.786666666666667,0.820516949152542
7314,"match","Good","Other",75,70,0.933333333333333,0.687525714285714
7314,"match","Good","Self",75,67,0.893333333333333,0.749397014925373
7314,"mismatch","Bad","Other",75,68,0.906666666666667,0.773333823529412
7314,"mismatch","Bad","Self",75,67,0.893333333333333,0.784810447761194
7314,"mismatch","Good","Other",75,69,0.92,0.727991304347826
7314,"mismatch","Good","Self",75,59,0.786666666666667,0.784545762711864
7315,"match","Bad","Other",75,53,0.706666666666667,0.765558490566038
7315,"match","Bad","Self",75,65,0.866666666666667,0.679273846153846
7315,"match","Good","Other",75,63,0.84,0.664106349206349
7315,"match","Good","Self",75,73,0.973333333333333,0.492865753424658
7315,"mismatch","Bad","Other",74,63,0.851351351351351,0.683390476190476
7315,"mismatch","Bad","Self",75,65,0.866666666666667,0.699304615384615
7315,"mismatch","Good","Other",75,62,0.826666666666667,0.721162903225806
7315,"mismatch","Good","Self",75,61,0.813333333333333,0.6953
7316,"match","Bad","Other",75,55,0.733333333333333,0.753016363636364
7316,"match","Bad","Self",75,49,0.653333333333333,0.7637
7316,"match","Good","Other",75,56,0.746666666666667,0.729033928571429
7316,"match","Good","Self",75,74,0.986666666666667,0.614141891891892
7316,"mismatch","Bad","Other",75,69,0.92,0.75068115942029
7316,"mismatch","Bad","Self",75,70,0.933333333333333,0.752305714285714
7316,"mismatch","Good","Other",75,67,0.893333333333333,0.749962686567164
7316,"mismatch","Good","Self",75,68,0.906666666666667,0.725872058823529
7317,"match","Bad","Other",75,71,0.946666666666667,0.685283098591549
7317,"match","Bad","Self",75,56,0.746666666666667,0.792044642857143
7317,"match","Good","Other",75,46,0.613333333333333,0.80645652173913
7317,"match","Good","Self",75,66,0.88,0.75165
7317,"mismatch","Bad","Other",75,62,0.826666666666667,0.823658064516129
7317,"mismatch","Bad","Self",75,44,0.586666666666667,0.880784090909091
7317,"mismatch","Good","Other",75,38,0.506666666666667,0.824128947368421
7317,"mismatch","Good","Self",75,47,0.626666666666667,0.850268085106383
7318,"match","Bad","Other",75,53,0.706666666666667,0.729656603773585
7318,"match","Bad","Self",75,63,0.84,0.671980952380952
7318,"match","Good","Other",75,65,0.866666666666667,0.679652307692308
7318,"match","Good","Self",75,65,0.866666666666667,0.648623076923077
7318,"mismatch","Bad","Other",75,71,0.946666666666667,0.718007042253521
7318,"mismatch","Bad","Self",75,51,0.68,0.749072549019608
7318,"mismatch","Good","Other",75,59,0.786666666666667,0.731664406779661
7318,"mismatch","Good","Self",75,65,0.866666666666667,0.755112307692308
7319,"match","Bad","Other",75,60,0.8,0.768116666666667
7319,"match","Bad","Self",75,47,0.626666666666667,0.80153829787234
7319,"match","Good","Other",75,72,0.96,0.736093055555556
7319,"match","Good","Self",75,72,0.96,0.6924875
7319,"mismatch","Bad","Other",75,68,0.906666666666667,0.788614705882353
7319,"mismatch","Bad","Self",75,71,0.946666666666667,0.78379014084507
7319,"mismatch","Good","Other",75,63,0.84,0.804485714285714
7319,"mismatch","Good","Self",75,73,0.973333333333333,0.76937397260274
7320,"match","Bad","Other",75,66,0.88,0.647690909090909
7320,"match","Bad","Self",75,60,0.8,0.670518333333333
7320,"match","Good","Other",75,64,0.853333333333333,0.65664375
7320,"match","Good","Self",75,68,0.906666666666667,0.634441176470588
7320,"mismatch","Bad","Other",75,64,0.853333333333333,0.6915671875
7320,"mismatch","Bad","Self",75,60,0.8,0.711111666666667
7320,"mismatch","Good","Other",75,46,0.613333333333333,0.727313043478261
7320,"mismatch","Good","Self",75,57,0.76,0.699452631578947
7321,"match","Bad","Other",75,72,0.96,0.612847222222222
7321,"match","Bad","Self",75,62,0.826666666666667,0.778338709677419
7321,"match","Good","Other",75,71,0.946666666666667,0.624849295774648
7321,"match","Good","Self",75,66,0.88,0.608028787878788
7321,"mismatch","Bad","Other",75,59,0.786666666666667,0.700761016949152
7321,"mismatch","Bad","Self",75,44,0.586666666666667,0.793790909090909
7321,"mismatch","Good","Other",75,63,0.84,0.720749206349206
7321,"mismatch","Good","Self",75,63,0.84,0.696549206349206
7322,"match","Bad","Other",75,25,0.333333333333333,0.807092
7322,"match","Bad","Self",75,52,0.693333333333333,0.771136538461539
7322,"match","Good","Other",75,67,0.893333333333333,0.608397014925373
7322,"match","Good","Self",75,56,0.746666666666667,0.717273214285714
7322,"mismatch","Bad","Other",75,57,0.76,0.765089473684211
7322,"mismatch","Bad","Self",75,63,0.84,0.761339682539683
7322,"mismatch","Good","Other",75,58,0.773333333333333,0.735456896551724
7322,"mismatch","Good","Self",75,52,0.693333333333333,0.753967307692308
7323,"match","Bad","Other",75,74,0.986666666666667,0.662083783783784
7323,"match","Bad","Self",75,60,0.8,0.748093333333333
7323,"match","Good","Other",75,60,0.8,0.708556666666667
7323,"match","Good","Self",75,72,0.96,0.697073611111111
7323,"mismatch","Bad","Other",75,72,0.96,0.748859722222222
7323,"mismatch","Bad","Self",75,66,0.88,0.76835
7323,"mismatch","Good","Other",75,69,0.92,0.757639130434783
7323,"mismatch","Good","Self",75,58,0.773333333333333,0.76585
7324,"match","Bad","Other",75,54,0.72,0.802959259259259
7324,"match","Bad","Self",75,57,0.76,0.81930701754386
7324,"match","Good","Other",75,55,0.733333333333333,0.840741818181818
7324,"match","Good","Self",75,63,0.84,0.755928571428571
7324,"mismatch","Bad","Other",75,61,0.813333333333333,0.793318032786885
7324,"mismatch","Bad","Self",75,59,0.786666666666667,0.834215254237288
7324,"mismatch","Good","Other",75,58,0.773333333333333,0.857051724137931
7324,"mismatch","Good","Self",75,59,0.786666666666667,0.845676271186441
7325,"match","Bad","Other",75,62,0.826666666666667,0.648301612903226
7325,"match","Bad","Self",75,64,0.853333333333333,0.6573984375
7325,"match","Good","Other",75,59,0.786666666666667,0.643961016949153
7325,"match","Good","Self",75,66,0.88,0.57304696969697
7325,"mismatch","Bad","Other",75,69,0.92,0.671278260869565
7325,"mismatch","Bad","Self",75,63,0.84,0.673828571428571
7325,"mismatch","Good","Other",75,67,0.893333333333333,0.657025373134328
7325,"mismatch","Good","Self",75,62,0.826666666666667,0.64833064516129
7326,"match","Bad","Other",75,66,0.88,0.725630303030303
7326,"match","Bad","Self",75,64,0.853333333333333,0.704384375
7326,"match","Good","Other",75,72,0.96,0.593456944444444
7326,"match","Good","Self",75,68,0.906666666666667,0.629652941176471
7326,"mismatch","Bad","Other",75,63,0.84,0.711090476190476
7326,"mismatch","Bad","Self",75,60,0.8,0.7574
7326,"mismatch","Good","Other",75,55,0.733333333333333,0.748945454545455
7326,"mismatch","Good","Self",75,51,0.68,0.715017647058824
7327,"match","Bad","Other",75,74,0.986666666666667,0.63342027027027
7327,"match","Bad","Self",75,68,0.906666666666667,0.666658823529412
7327,"match","Good","Other",75,69,0.92,0.697294202898551
7327,"match","Good","Self",75,72,0.96,0.648320833333333
7327,"mismatch","Bad","Other",75,63,0.84,0.70508253968254
7327,"mismatch","Bad","Self",75,71,0.946666666666667,0.721123943661972
7327,"mismatch","Good","Other",75,66,0.88,0.73724696969697
7327,"mismatch","Good","Self",75,58,0.773333333333333,0.714348275862069
7328,"match","Bad","Other",75,58,0.773333333333333,0.803246551724138
7328,"match","Bad","Self",75,67,0.893333333333333,0.787953731343284
7328,"match","Good","Other",75,66,0.88,0.689956060606061
7328,"match","Good","Self",75,74,0.986666666666667,0.663854054054054
7328,"mismatch","Bad","Other",75,60,0.8,0.828695
7328,"mismatch","Bad","Self",75,65,0.866666666666667,0.802621538461538
7328,"mismatch","Good","Other",75,48,0.64,0.86235625
7328,"mismatch","Good","Self",75,64,0.853333333333333,0.7882046875
7329,"match","Bad","Other",75,65,0.866666666666667,0.718710769230769
7329,"match","Bad","Self",75,49,0.653333333333333,0.719361224489796
7329,"match","Good","Other",75,56,0.746666666666667,0.715582142857143
7329,"match","Good","Self",75,69,0.92,0.649071014492754
7329,"mismatch","Bad","Other",75,60,0.8,0.684706666666667
7329,"mismatch","Bad","Self",75,46,0.613333333333333,0.773658695652174
7329,"mismatch","Good","Other",75,49,0.653333333333333,0.730863265306122
7329,"mismatch","Good","Self",75,55,0.733333333333333,0.727383636363636
7331,"match","Bad","Other",75,56,0.746666666666667,0.781266071428571
7331,"match","Bad","Self",75,54,0.72,0.787661111111111
7331,"match","Good","Other",75,56,0.746666666666667,0.779010714285714
7331,"match","Good","Self",75,75,1,0.6133
7331,"mismatch","Bad","Other",75,63,0.84,0.769765079365079
7331,"mismatch","Bad","Self",75,51,0.68,0.776990196078431
7331,"mismatch","Good","Other",75,69,0.92,0.762942028985507
7331,"mismatch","Good","Self",75,68,0.906666666666667,0.738161764705882
7332,"match","Bad","Other",75,54,0.72,0.767898148148148
7332,"match","Bad","Self",75,64,0.853333333333333,0.7628671875
7332,"match","Good","Other",75,47,0.626666666666667,0.789797872340426
7332,"match","Good","Self",75,67,0.893333333333333,0.700831343283582
7332,"mismatch","Bad","Other",75,64,0.853333333333333,0.78170625
7332,"mismatch","Bad","Self",75,53,0.706666666666667,0.823637735849057
7332,"mismatch","Good","Other",75,60,0.8,0.757685
7332,"mismatch","Good","Self",75,64,0.853333333333333,0.80504375
7333,"match","Bad","Other",75,64,0.853333333333333,0.6567046875
7333,"match","Bad","Self",75,60,0.8,0.726195
7333,"match","Good","Other",75,60,0.8,0.720633333333333
7333,"match","Good","Self",75,67,0.893333333333333,0.639732835820896
7333,"mismatch","Bad","Other",75,67,0.893333333333333,0.71625223880597
7333,"mismatch","Bad","Self",75,69,0.92,0.767030434782609
7333,"mismatch","Good","Other",75,64,0.853333333333333,0.743384375
7333,"mismatch","Good","Self",75,63,0.84,0.721450793650794
7334,"match","Bad","Other",75,59,0.786666666666667,0.711764406779661
7334,"match","Bad","Self",75,60,0.8,0.712938333333333
7334,"match","Good","Other",75,73,0.973333333333333,0.635654794520548
7334,"match","Good","Self",75,70,0.933333333333333,0.62639
7334,"mismatch","Bad","Other",75,55,0.733333333333333,0.725876363636364
7334,"mismatch","Bad","Self",75,61,0.813333333333333,0.74752131147541
7334,"mismatch","Good","Other",75,58,0.773333333333333,0.723370689655172
7334,"mismatch","Good","Self",75,49,0.653333333333333,0.751308163265306
7335,"match","Bad","Other",75,65,0.866666666666667,0.731384615384615
7335,"match","Bad","Self",75,42,0.56,0.743423809523809
7335,"match","Good","Other",73,53,0.726027397260274,0.772392452830189
7335,"match","Good","Self",75,64,0.853333333333333,0.6476484375
7335,"mismatch","Bad","Other",75,61,0.813333333333333,0.777685245901639
7335,"mismatch","Bad","Self",75,56,0.746666666666667,0.785071428571429
7335,"mismatch","Good","Other",75,54,0.72,0.795287037037037
7335,"mismatch","Good","Self",75,59,0.786666666666667,0.716147457627119
7336,"match","Bad","Other",75,62,0.826666666666667,0.637822580645161
7336,"match","Bad","Self",75,59,0.786666666666667,0.635967796610169
7336,"match","Good","Other",75,60,0.8,0.597121666666667
7336,"match","Good","Self",75,69,0.92,0.587865217391304
7336,"mismatch","Bad","Other",75,70,0.933333333333333,0.689032857142857
7336,"mismatch","Bad","Self",75,69,0.92,0.688317391304348
7336,"mismatch","Good","Other",75,59,0.786666666666667,0.703291525423729
7336,"mismatch","Good","Self",75,63,0.84,0.663911111111111
7337,"match","Bad","Other",75,72,0.96,0.6098
7337,"match","Bad","Self",75,63,0.84,0.687547619047619
7337,"match","Good","Other",75,60,0.8,0.697938333333333
7337,"match","Good","Self",75,61,0.813333333333333,0.649814754098361
7337,"mismatch","Bad","Other",75,67,0.893333333333333,0.686650746268657
7337,"mismatch","Bad","Self",75,68,0.906666666666667,0.703189705882353
7337,"mismatch","Good","Other",75,67,0.893333333333333,0.747776119402985
7337,"mismatch","Good","Self",75,61,0.813333333333333,0.751403278688525
7338,"match","Bad","Other",75,70,0.933333333333333,0.716951428571429
7338,"match","Bad","Self",75,68,0.906666666666667,0.736527941176471
7338,"match","Good","Other",75,74,0.986666666666667,0.572555405405405
7338,"match","Good","Self",75,64,0.853333333333333,0.7355359375
7338,"mismatch","Bad","Other",75,67,0.893333333333333,0.79965223880597
7338,"mismatch","Bad","Self",75,61,0.813333333333333,0.775216393442623
7338,"mismatch","Good","Other",75,70,0.933333333333333,0.70047
7338,"mismatch","Good","Self",75,65,0.866666666666667,0.779421538461538
7339,"match","Bad","Other",75,64,0.853333333333333,0.7345328125
7339,"match","Bad","Self",75,66,0.88,0.714245454545455
7339,"match","Good","Other",75,65,0.866666666666667,0.736192307692308
7339,"match","Good","Self",75,72,0.96,0.646218055555556
7339,"mismatch","Bad","Other",75,72,0.96,0.755531944444444
7339,"mismatch","Bad","Self",75,67,0.893333333333333,0.742222388059702
7339,"mismatch","Good","Other",75,65,0.866666666666667,0.783141538461538
7339,"mismatch","Good","Self",75,66,0.88,0.760312121212121
7340,"match","Bad","Other",75,52,0.693333333333333,0.760794230769231
7340,"match","Bad","Self",75,57,0.76,0.751549122807018
7340,"match","Good","Other",75,64,0.853333333333333,0.722065625
7340,"match","Good","Self",75,74,0.986666666666667,0.57787027027027
7340,"mismatch","Bad","Other",75,61,0.813333333333333,0.77774262295082
7340,"mismatch","Bad","Self",75,56,0.746666666666667,0.783717857142857
7340,"mismatch","Good","Other",75,56,0.746666666666667,0.763394642857143
7340,"mismatch","Good","Self",75,55,0.733333333333333,0.74372
7341,"match","Bad","Other",75,61,0.813333333333333,0.633824590163934
7341,"match","Bad","Self",75,56,0.746666666666667,0.6775875
7341,"match","Good","Other",75,70,0.933333333333333,0.568292857142857
7341,"match","Good","Self",75,70,0.933333333333333,0.608765714285714
7341,"mismatch","Bad","Other",75,69,0.92,0.679007246376812
7341,"mismatch","Bad","Self",75,67,0.893333333333333,0.671997014925373
7341,"mismatch","Good","Other",75,61,0.813333333333333,0.645118032786885
7341,"mismatch","Good","Self",75,70,0.933333333333333,0.626822857142857
7342,"match","Bad","Other",75,53,0.706666666666667,0.638658490566038
7342,"match","Bad","Self",75,46,0.613333333333333,0.775480434782609
7342,"match","Good","Other",75,71,0.946666666666667,0.571216901408451
7342,"match","Good","Self",75,64,0.853333333333333,0.601034375
7342,"mismatch","Bad","Other",75,62,0.826666666666667,0.652614516129032
7342,"mismatch","Bad","Self",75,52,0.693333333333333,0.68155
7342,"mismatch","Good","Other",75,59,0.786666666666667,0.606574576271186
7342,"mismatch","Good","Self",75,44,0.586666666666667,0.676102272727273
7343,"match","Bad","Other",75,65,0.866666666666667,0.725043076923077
7343,"match","Bad","Self",75,64,0.853333333333333,0.7485625
7343,"match","Good","Other",75,57,0.76,0.773447368421053
7343,"match","Good","Self",75,69,0.92,0.66345652173913
7343,"mismatch","Bad","Other",75,53,0.706666666666667,0.844694339622642
7343,"mismatch","Bad","Self",75,56,0.746666666666667,0.785125
7343,"mismatch","Good","Other",75,50,0.666666666666667,0.862516
7343,"mismatch","Good","Self",75,42,0.56,0.820259523809524
7344,"match","Bad","Other",75,52,0.693333333333333,0.689892307692308
7344,"match","Bad","Self",75,68,0.906666666666667,0.698467647058823
7344,"match","Good","Other",75,69,0.92,0.622820289855072
7344,"match","Good","Self",75,74,0.986666666666667,0.540567567567568
7344,"mismatch","Bad","Other",75,64,0.853333333333333,0.7270921875
7344,"mismatch","Bad","Self",75,71,0.946666666666667,0.733674647887324
7344,"mismatch","Good","Other",75,62,0.826666666666667,0.745746774193548
7344,"mismatch","Good","Self",75,60,0.8,0.652253333333333
7345,"match","Bad","Other",75,67,0.893333333333333,0.723129850746269
7345,"match","Bad","Self",75,67,0.893333333333333,0.752317910447761
7345,"match","Good","Other",75,67,0.893333333333333,0.718422388059701
7345,"match","Good","Self",75,71,0.946666666666667,0.689285915492958
7345,"mismatch","Bad","Other",75,68,0.906666666666667,0.730360294117647
7345,"mismatch","Bad","Self",75,55,0.733333333333333,0.798792727272727
7345,"mismatch","Good","Other",75,46,0.613333333333333,0.761065217391304
7345,"mismatch","Good","Self",75,54,0.72,0.7711
73370,"match","Bad","Other",75,52,0.693333333333333,0.815567307692308
73370,"match","Bad","Self",75,61,0.813333333333333,0.795250819672131
73370,"match","Good","Other",75,30,0.4,0.820603333333333
73370,"match","Good","Self",75,75,1,0.644117333333333
73370,"mismatch","Bad","Other",75,67,0.893333333333333,0.796726865671642
73370,"mismatch","Bad","Self",75,65,0.866666666666667,0.832321538461538
73370,"mismatch","Good","Other",75,49,0.653333333333333,0.798567346938776
73370,"mismatch","Good","Self",75,67,0.893333333333333,0.775923880597015
