Date Prac Sub Age Sex Hand Block Bin Trial Shape Label Match CorrResp Resp ACC RT
19-May-2018_13:43:40 Exp 7322 18 male R 1 1 1 moralSelf immoralOther mismatch m m 1 0.6951 
19-May-2018_13:43:43 Exp 7322 18 male R 1 1 2 moralOther immoralOther mismatch m m 1 0.6538 
19-May-2018_13:43:45 Exp 7322 18 male R 1 1 3 moralOther moralOther match n n 1 0.4036 
19-May-2018_13:43:47 Exp 7322 18 male R 1 1 4 immoralSelf immoralOther mismatch m n 0 0.7844 
19-May-2018_13:43:50 Exp 7322 18 male R 1 1 5 moralOther moralOther match n NA -1 1.0841 
19-May-2018_13:43:52 Exp 7322 18 male R 1 1 6 immoralSelf immoralSelf match n m 0 0.6312 
19-May-2018_13:43:55 Exp 7322 18 male R 1 1 7 immoralOther immoralOther match n n 1 0.9644 
19-May-2018_13:43:57 Exp 7322 18 male R 1 1 8 immoralOther immoralOther match n n 1 0.6206 
19-May-2018_13:43:59 Exp 7322 18 male R 1 1 9 immoralSelf immoralOther mismatch m n 0 0.7218 
19-May-2018_13:44:02 Exp 7322 18 male R 1 1 10 immoralSelf immoralSelf match n m 0 0.8410 
19-May-2018_13:44:04 Exp 7322 18 male R 1 1 11 moralSelf moralSelf match n m 0 0.8025 
19-May-2018_13:44:07 Exp 7322 18 male R 1 1 12 moralSelf moralOther mismatch m m 1 0.8153 
19-May-2018_13:44:09 Exp 7322 18 male R 1 1 13 moralOther moralOther match n n 1 0.4643 
19-May-2018_13:44:11 Exp 7322 18 male R 1 1 14 moralOther immoralOther mismatch m m 1 0.6903 
19-May-2018_13:44:13 Exp 7322 18 male R 1 1 15 immoralSelf moralSelf mismatch m m 1 0.8287 
19-May-2018_13:44:16 Exp 7322 18 male R 1 1 16 immoralOther immoralSelf mismatch m n 0 0.7700 
19-May-2018_13:44:18 Exp 7322 18 male R 1 1 17 immoralSelf immoralSelf match n m 0 0.8421 
19-May-2018_13:44:21 Exp 7322 18 male R 1 1 18 moralOther immoralOther mismatch m m 1 0.7636 
19-May-2018_13:44:23 Exp 7322 18 male R 1 1 19 moralSelf moralOther mismatch m m 1 0.5477 
19-May-2018_13:44:25 Exp 7322 18 male R 1 1 20 immoralOther moralOther mismatch m m 1 0.6753 
19-May-2018_13:44:28 Exp 7322 18 male R 1 1 21 immoralOther immoralOther match n n 1 0.9935 
19-May-2018_13:44:30 Exp 7322 18 male R 1 1 22 moralSelf moralSelf match n n 1 0.5941 
19-May-2018_13:44:32 Exp 7322 18 male R 1 1 23 immoralOther immoralSelf mismatch m m 1 0.7946 
19-May-2018_13:44:35 Exp 7322 18 male R 1 1 24 moralSelf moralSelf match n m 0 0.7072 
19-May-2018_13:44:37 Exp 7322 18 male R 1 2 1 moralSelf moralSelf match n n 1 0.6941 
19-May-2018_13:44:39 Exp 7322 18 male R 1 2 2 immoralOther immoralOther match n n 1 0.7568 
19-May-2018_13:44:42 Exp 7322 18 male R 1 2 3 immoralSelf immoralSelf match n m 0 0.6247 
19-May-2018_13:44:44 Exp 7322 18 male R 1 2 4 immoralSelf moralOther mismatch m m 1 0.8540 
19-May-2018_13:44:46 Exp 7322 18 male R 1 2 5 moralOther moralOther match n n 1 0.4517 
19-May-2018_13:44:49 Exp 7322 18 male R 1 2 6 moralOther moralSelf mismatch m n 0 0.5615 
19-May-2018_13:44:51 Exp 7322 18 male R 1 2 7 immoralSelf moralSelf mismatch m m 1 0.7252 
19-May-2018_13:44:53 Exp 7322 18 male R 1 2 8 immoralOther moralSelf mismatch m m 1 0.7164 
19-May-2018_13:44:56 Exp 7322 18 male R 1 2 9 immoralOther immoralOther match n m 0 0.6596 
19-May-2018_13:44:58 Exp 7322 18 male R 1 2 10 immoralSelf immoralSelf match n m 0 0.7895 
19-May-2018_13:45:00 Exp 7322 18 male R 1 2 11 immoralSelf moralOther mismatch m n 0 0.6861 
19-May-2018_13:45:03 Exp 7322 18 male R 1 2 12 immoralOther immoralSelf mismatch m m 1 0.6725 
19-May-2018_13:45:05 Exp 7322 18 male R 1 2 13 moralOther moralOther match n n 1 0.5429 
19-May-2018_13:45:07 Exp 7322 18 male R 1 2 14 immoralSelf immoralSelf match n m 0 0.5424 
19-May-2018_13:45:09 Exp 7322 18 male R 1 2 15 moralSelf immoralSelf mismatch m n 0 0.9340 
19-May-2018_13:45:12 Exp 7322 18 male R 1 2 16 moralOther moralOther match n n 1 0.6494 
19-May-2018_13:45:14 Exp 7322 18 male R 1 2 17 moralOther immoralSelf mismatch m m 1 0.6071 
19-May-2018_13:45:17 Exp 7322 18 male R 1 2 18 moralSelf immoralSelf mismatch m n 0 1.0439 
19-May-2018_13:45:19 Exp 7322 18 male R 1 2 19 moralOther immoralSelf mismatch m m 1 0.8454 
19-May-2018_13:45:21 Exp 7322 18 male R 1 2 20 immoralOther immoralOther match n m 0 0.6912 
19-May-2018_13:45:24 Exp 7322 18 male R 1 2 21 moralSelf moralSelf match n n 1 0.9139 
19-May-2018_13:45:26 Exp 7322 18 male R 1 2 22 moralSelf moralSelf match n n 1 0.5168 
19-May-2018_13:45:28 Exp 7322 18 male R 1 2 23 moralSelf immoralOther mismatch m m 1 0.6359 
19-May-2018_13:45:31 Exp 7322 18 male R 1 2 24 immoralOther immoralSelf mismatch m m 1 0.8054 
19-May-2018_13:45:33 Exp 7322 18 male R 1 3 1 moralOther moralOther match n n 1 0.6502 
19-May-2018_13:45:35 Exp 7322 18 male R 1 3 2 immoralSelf immoralSelf match n m 0 0.5280 
19-May-2018_13:45:38 Exp 7322 18 male R 1 3 3 immoralSelf immoralOther mismatch m m 1 0.7394 
19-May-2018_13:45:40 Exp 7322 18 male R 1 3 4 moralSelf moralSelf match n n 1 1.0670 
19-May-2018_13:45:43 Exp 7322 18 male R 1 3 5 immoralSelf immoralSelf match n m 0 0.7169 
19-May-2018_13:45:45 Exp 7322 18 male R 1 3 6 immoralSelf immoralSelf match n n 1 0.5801 
19-May-2018_13:45:48 Exp 7322 18 male R 1 3 7 immoralOther immoralOther match n NA -1 1.0841 
19-May-2018_13:45:50 Exp 7322 18 male R 1 3 8 moralOther immoralSelf mismatch m m 1 0.7709 
19-May-2018_13:45:52 Exp 7322 18 male R 1 3 9 moralOther moralOther match n n 1 0.6190 
19-May-2018_13:45:55 Exp 7322 18 male R 1 3 10 immoralOther immoralSelf mismatch m n 0 0.9400 
19-May-2018_13:45:57 Exp 7322 18 male R 1 3 11 immoralSelf moralSelf mismatch m m 1 0.8997 
19-May-2018_13:46:00 Exp 7322 18 male R 1 3 12 moralSelf immoralSelf mismatch m n 0 0.9223 
19-May-2018_13:46:02 Exp 7322 18 male R 1 3 13 immoralOther immoralOther match n m 0 0.6576 
19-May-2018_13:46:04 Exp 7322 18 male R 1 3 14 moralOther moralSelf mismatch m n 0 0.5075 
19-May-2018_13:46:07 Exp 7322 18 male R 1 3 15 moralSelf moralOther mismatch m m 1 0.6704 
19-May-2018_13:46:09 Exp 7322 18 male R 1 3 16 immoralOther immoralOther match n m 0 0.6286 
19-May-2018_13:46:11 Exp 7322 18 male R 1 3 17 moralOther moralSelf mismatch m n 0 0.4659 
19-May-2018_13:46:13 Exp 7322 18 male R 1 3 18 moralSelf immoralOther mismatch m m 1 0.5558 
19-May-2018_13:46:16 Exp 7322 18 male R 1 3 19 immoralSelf immoralOther mismatch m m 1 0.6236 
19-May-2018_13:46:18 Exp 7322 18 male R 1 3 20 moralSelf moralSelf match n n 1 0.8210 
19-May-2018_13:46:20 Exp 7322 18 male R 1 3 21 immoralOther immoralSelf mismatch m m 1 0.7142 
19-May-2018_13:46:23 Exp 7322 18 male R 1 3 22 moralSelf moralSelf match n n 1 0.5651 
19-May-2018_13:46:25 Exp 7322 18 male R 1 3 23 moralOther moralOther match n n 1 0.5652 
19-May-2018_13:46:27 Exp 7322 18 male R 1 3 24 immoralOther immoralSelf mismatch m n 0 0.3893 
19-May-2018_13:46:47 Exp 7322 18 male R 1 4 1 immoralOther immoralOther match n n 1 1.0606 
19-May-2018_13:46:49 Exp 7322 18 male R 1 4 2 moralOther immoralOther mismatch m m 1 0.6227 
19-May-2018_13:46:51 Exp 7322 18 male R 1 4 3 moralSelf moralSelf match n n 1 0.7160 
19-May-2018_13:46:54 Exp 7322 18 male R 1 4 4 moralOther immoralSelf mismatch m m 1 0.5391 
19-May-2018_13:46:56 Exp 7322 18 male R 1 4 5 moralOther moralOther match n n 1 0.4187 
19-May-2018_13:46:58 Exp 7322 18 male R 1 4 6 immoralSelf immoralSelf match n m 0 0.7397 
19-May-2018_13:47:00 Exp 7322 18 male R 1 4 7 immoralOther immoralSelf mismatch m m 1 0.8114 
19-May-2018_13:47:03 Exp 7322 18 male R 1 4 8 immoralSelf immoralSelf match n m 0 0.6923 
19-May-2018_13:47:05 Exp 7322 18 male R 1 4 9 immoralSelf moralOther mismatch m n 0 0.4271 
19-May-2018_13:47:07 Exp 7322 18 male R 1 4 10 moralSelf moralSelf match n m 0 0.6963 
19-May-2018_13:47:10 Exp 7322 18 male R 1 4 11 immoralSelf moralOther mismatch m m 1 0.8149 
19-May-2018_13:47:12 Exp 7322 18 male R 1 4 12 immoralOther immoralOther match n m 0 0.5681 
19-May-2018_13:47:14 Exp 7322 18 male R 1 4 13 moralSelf immoralSelf mismatch m n 0 0.4641 
19-May-2018_13:47:16 Exp 7322 18 male R 1 4 14 immoralSelf immoralSelf match n m 0 0.5861 
19-May-2018_13:47:18 Exp 7322 18 male R 1 4 15 moralOther immoralSelf mismatch m n 0 0.6906 
19-May-2018_13:47:21 Exp 7322 18 male R 1 4 16 moralSelf immoralSelf mismatch m m 1 0.6291 
19-May-2018_13:47:23 Exp 7322 18 male R 1 4 17 immoralOther moralOther mismatch m m 1 0.7864 
19-May-2018_13:47:25 Exp 7322 18 male R 1 4 18 moralSelf moralSelf match n m 0 0.7949 
19-May-2018_13:47:28 Exp 7322 18 male R 1 4 19 moralSelf immoralOther mismatch m m 1 0.6035 
19-May-2018_13:47:30 Exp 7322 18 male R 1 4 20 moralOther moralOther match n n 1 0.9043 
19-May-2018_13:47:32 Exp 7322 18 male R 1 4 21 immoralSelf moralOther mismatch m m 1 0.5712 
19-May-2018_13:47:34 Exp 7322 18 male R 1 4 22 immoralOther immoralOther match n n 1 0.3873 
19-May-2018_13:47:36 Exp 7322 18 male R 1 4 23 immoralOther immoralSelf mismatch m m 1 0.3638 
19-May-2018_13:47:39 Exp 7322 18 male R 1 4 24 moralOther moralOther match n n 1 0.5399 
19-May-2018_13:47:40 Exp 7322 18 male R 1 5 1 moralOther moralOther match n m 0 0.1061 
19-May-2018_13:47:43 Exp 7322 18 male R 1 5 2 moralOther immoralSelf mismatch m m 1 0.6784 
19-May-2018_13:47:45 Exp 7322 18 male R 1 5 3 moralSelf moralSelf match n n 1 0.7406 
19-May-2018_13:47:48 Exp 7322 18 male R 1 5 4 immoralSelf immoralSelf match n n 1 0.8042 
19-May-2018_13:47:50 Exp 7322 18 male R 1 5 5 immoralSelf immoralSelf match n m 0 0.5450 
19-May-2018_13:47:52 Exp 7322 18 male R 1 5 6 immoralOther immoralSelf mismatch m m 1 0.8727 
19-May-2018_13:47:54 Exp 7322 18 male R 1 5 7 moralOther immoralSelf mismatch m n 0 0.5269 
19-May-2018_13:47:57 Exp 7322 18 male R 1 5 8 moralSelf immoralSelf mismatch m m 1 0.6902 
19-May-2018_13:47:59 Exp 7322 18 male R 1 5 9 immoralOther moralSelf mismatch m m 1 0.7166 
19-May-2018_13:48:01 Exp 7322 18 male R 1 5 10 moralOther moralOther match n n 1 0.5719 
19-May-2018_13:48:03 Exp 7322 18 male R 1 5 11 immoralSelf moralSelf mismatch m m 1 0.4919 
19-May-2018_13:48:06 Exp 7322 18 male R 1 5 12 moralSelf immoralSelf mismatch m n 0 0.6666 
19-May-2018_13:48:08 Exp 7322 18 male R 1 5 13 immoralOther immoralSelf mismatch m m 1 0.5726 
19-May-2018_13:48:10 Exp 7322 18 male R 1 5 14 moralSelf moralSelf match n m 0 0.7087 
19-May-2018_13:48:12 Exp 7322 18 male R 1 5 15 moralOther moralSelf mismatch m n 0 0.5756 
19-May-2018_13:48:14 Exp 7322 18 male R 1 5 16 moralSelf moralSelf match n m 0 0.4119 
19-May-2018_13:48:17 Exp 7322 18 male R 1 5 17 immoralOther immoralOther match n m 0 0.7649 
19-May-2018_13:48:19 Exp 7322 18 male R 1 5 18 moralSelf immoralOther mismatch m n 0 0.2450 
19-May-2018_13:48:21 Exp 7322 18 male R 1 5 19 immoralSelf immoralSelf match n n 1 0.7468 
19-May-2018_13:48:23 Exp 7322 18 male R 1 5 20 moralOther moralOther match n n 1 0.6024 
19-May-2018_13:48:26 Exp 7322 18 male R 1 5 21 immoralOther immoralOther match n m 0 0.5911 
19-May-2018_13:48:28 Exp 7322 18 male R 1 5 22 immoralSelf moralSelf mismatch m n 0 0.4797 
19-May-2018_13:48:30 Exp 7322 18 male R 1 5 23 immoralOther immoralOther match n m 0 0.2982 
19-May-2018_13:48:32 Exp 7322 18 male R 1 5 24 immoralSelf immoralOther mismatch m n 0 0.4648 
19-May-2018_13:48:37 Exp 7322 18 male R 2 1 1 immoralOther immoralOther match n NA -1 1.0841 
19-May-2018_13:48:40 Exp 7322 18 male R 2 1 2 moralOther immoralSelf mismatch m n 0 0.9139 
19-May-2018_13:48:42 Exp 7322 18 male R 2 1 3 immoralSelf immoralSelf match n n 1 0.7570 
19-May-2018_13:48:45 Exp 7322 18 male R 2 1 4 immoralOther immoralSelf mismatch m m 1 0.6408 
19-May-2018_13:48:47 Exp 7322 18 male R 2 1 5 moralOther immoralOther mismatch m m 1 0.6984 
19-May-2018_13:48:49 Exp 7322 18 male R 2 1 6 moralOther moralOther match n m 0 0.5690 
19-May-2018_13:48:52 Exp 7322 18 male R 2 1 7 immoralOther immoralOther match n m 0 0.7052 
19-May-2018_13:48:54 Exp 7322 18 male R 2 1 8 moralSelf moralOther mismatch m n 0 0.7640 
19-May-2018_13:48:56 Exp 7322 18 male R 2 1 9 immoralSelf immoralOther mismatch m n 0 0.7481 
19-May-2018_13:48:59 Exp 7322 18 male R 2 1 10 immoralSelf moralSelf mismatch m m 1 0.8757 
19-May-2018_13:49:01 Exp 7322 18 male R 2 1 11 moralSelf moralOther mismatch m m 1 0.7620 
19-May-2018_13:49:03 Exp 7322 18 male R 2 1 12 moralSelf moralSelf match n n 1 0.6260 
19-May-2018_13:49:06 Exp 7322 18 male R 2 1 13 moralSelf immoralSelf mismatch m m 1 0.8793 
19-May-2018_13:49:08 Exp 7322 18 male R 2 1 14 immoralOther moralSelf mismatch m n 0 0.7378 
19-May-2018_13:49:11 Exp 7322 18 male R 2 1 15 moralSelf moralSelf match n n 1 0.8371 
19-May-2018_13:49:13 Exp 7322 18 male R 2 1 16 immoralSelf immoralSelf match n n 1 0.6627 
19-May-2018_13:49:15 Exp 7322 18 male R 2 1 17 immoralOther immoralOther match n m 0 0.6246 
19-May-2018_13:49:18 Exp 7322 18 male R 2 1 18 immoralSelf immoralOther mismatch m m 1 0.5579 
19-May-2018_13:49:20 Exp 7322 18 male R 2 1 19 immoralOther moralOther mismatch m m 1 0.9058 
19-May-2018_13:49:22 Exp 7322 18 male R 2 1 20 moralOther moralOther match n n 1 0.4447 
19-May-2018_13:49:25 Exp 7322 18 male R 2 1 21 immoralSelf immoralSelf match n n 1 0.8184 
19-May-2018_13:49:27 Exp 7322 18 male R 2 1 22 moralOther moralOther match n n 1 0.7075 
19-May-2018_13:49:30 Exp 7322 18 male R 2 1 23 moralOther immoralOther mismatch m m 1 0.8944 
19-May-2018_13:49:32 Exp 7322 18 male R 2 1 24 moralSelf moralSelf match n n 1 0.7411 
19-May-2018_13:49:34 Exp 7322 18 male R 2 2 1 moralSelf moralSelf match n n 1 0.7567 
19-May-2018_13:49:37 Exp 7322 18 male R 2 2 2 moralOther immoralSelf mismatch m m 1 0.9605 
19-May-2018_13:49:39 Exp 7322 18 male R 2 2 3 immoralSelf immoralSelf match n n 1 0.6684 
19-May-2018_13:49:42 Exp 7322 18 male R 2 2 4 moralOther immoralOther mismatch m m 1 0.8586 
19-May-2018_13:49:44 Exp 7322 18 male R 2 2 5 immoralOther immoralSelf mismatch m n 0 0.9006 
19-May-2018_13:49:47 Exp 7322 18 male R 2 2 6 moralSelf immoralOther mismatch m n 0 0.7713 
19-May-2018_13:49:49 Exp 7322 18 male R 2 2 7 immoralOther immoralOther match n n 1 0.7794 
19-May-2018_13:49:51 Exp 7322 18 male R 2 2 8 moralOther moralOther match n n 1 0.6637 
19-May-2018_13:49:54 Exp 7322 18 male R 2 2 9 immoralOther moralSelf mismatch m n 0 0.9617 
19-May-2018_13:49:56 Exp 7322 18 male R 2 2 10 moralOther immoralSelf mismatch m m 1 0.7138 
19-May-2018_13:49:59 Exp 7322 18 male R 2 2 11 moralSelf moralSelf match n m 0 0.7967 
19-May-2018_13:50:01 Exp 7322 18 male R 2 2 12 immoralOther immoralOther match n m 0 0.9332 
19-May-2018_13:50:04 Exp 7322 18 male R 2 2 13 immoralSelf moralOther mismatch m m 1 0.6886 
19-May-2018_13:50:06 Exp 7322 18 male R 2 2 14 immoralSelf immoralSelf match n m 0 0.7311 
19-May-2018_13:50:08 Exp 7322 18 male R 2 2 15 moralSelf immoralSelf mismatch m m 1 0.7105 
19-May-2018_13:50:11 Exp 7322 18 male R 2 2 16 moralOther moralOther match n n 1 0.6574 
19-May-2018_13:50:13 Exp 7322 18 male R 2 2 17 moralOther moralOther match n m 0 0.8914 
19-May-2018_13:50:16 Exp 7322 18 male R 2 2 18 immoralSelf immoralSelf match n n 1 0.8101 
19-May-2018_13:50:18 Exp 7322 18 male R 2 2 19 immoralSelf moralOther mismatch m m 1 0.6911 
19-May-2018_13:50:20 Exp 7322 18 male R 2 2 20 moralSelf moralSelf match n n 1 0.9458 
19-May-2018_13:50:23 Exp 7322 18 male R 2 2 21 immoralSelf immoralOther mismatch m m 1 0.7134 
19-May-2018_13:50:25 Exp 7322 18 male R 2 2 22 immoralOther moralOther mismatch m m 1 0.6363 
19-May-2018_13:50:28 Exp 7322 18 male R 2 2 23 immoralOther immoralOther match n m 0 0.8459 
19-May-2018_13:50:30 Exp 7322 18 male R 2 2 24 moralSelf immoralSelf mismatch m n 0 0.7876 
19-May-2018_13:50:32 Exp 7322 18 male R 2 3 1 moralSelf moralOther mismatch m m 1 0.6281 
19-May-2018_13:50:35 Exp 7322 18 male R 2 3 2 moralOther moralOther match n n 1 0.7374 
19-May-2018_13:50:37 Exp 7322 18 male R 2 3 3 immoralOther immoralOther match n m 0 0.6448 
19-May-2018_13:50:39 Exp 7322 18 male R 2 3 4 moralOther immoralOther mismatch m m 1 0.7465 
19-May-2018_13:50:41 Exp 7322 18 male R 2 3 5 moralOther moralOther match n n 1 0.5061 
19-May-2018_13:50:44 Exp 7322 18 male R 2 3 6 immoralSelf immoralSelf match n n 1 0.7250 
19-May-2018_13:50:46 Exp 7322 18 male R 2 3 7 moralOther moralSelf mismatch m n 0 0.6282 
19-May-2018_13:50:48 Exp 7322 18 male R 2 3 8 immoralSelf immoralOther mismatch m m 1 0.7455 
19-May-2018_13:50:51 Exp 7322 18 male R 2 3 9 immoralSelf immoralSelf match n n 1 0.8571 
19-May-2018_13:50:53 Exp 7322 18 male R 2 3 10 moralSelf moralSelf match n n 1 0.8351 
19-May-2018_13:50:56 Exp 7322 18 male R 2 3 11 immoralSelf immoralSelf match n m 0 0.6125 
19-May-2018_13:50:58 Exp 7322 18 male R 2 3 12 moralOther moralOther match n n 1 0.6776 
19-May-2018_13:51:00 Exp 7322 18 male R 2 3 13 moralSelf moralOther mismatch m n 0 0.7238 
19-May-2018_13:51:03 Exp 7322 18 male R 2 3 14 immoralOther moralSelf mismatch m NA -1 1.0841 
19-May-2018_13:51:06 Exp 7322 18 male R 2 3 15 immoralOther moralSelf mismatch m n 0 0.9413 
19-May-2018_13:51:08 Exp 7322 18 male R 2 3 16 immoralOther moralOther mismatch m m 1 0.9090 
19-May-2018_13:51:10 Exp 7322 18 male R 2 3 17 moralSelf moralSelf match n n 1 0.7440 
19-May-2018_13:51:13 Exp 7322 18 male R 2 3 18 moralSelf moralOther mismatch m m 1 0.5756 
19-May-2018_13:51:15 Exp 7322 18 male R 2 3 19 immoralSelf moralSelf mismatch m m 1 0.7399 
19-May-2018_13:51:17 Exp 7322 18 male R 2 3 20 immoralSelf moralSelf mismatch m m 1 0.6755 
19-May-2018_13:51:20 Exp 7322 18 male R 2 3 21 moralSelf moralSelf match n n 1 0.7617 
19-May-2018_13:51:22 Exp 7322 18 male R 2 3 22 moralOther immoralOther mismatch m m 1 0.6338 
19-May-2018_13:51:24 Exp 7322 18 male R 2 3 23 immoralOther immoralOther match n m 0 0.6274 
19-May-2018_13:51:27 Exp 7322 18 male R 2 3 24 immoralOther immoralOther match n n 1 0.6806 
19-May-2018_13:51:42 Exp 7322 18 male R 2 4 1 immoralSelf immoralSelf match n n 1 0.7668 
19-May-2018_13:51:44 Exp 7322 18 male R 2 4 2 immoralOther immoralOther match n m 0 0.5829 
19-May-2018_13:51:47 Exp 7322 18 male R 2 4 3 immoralOther immoralOther match n m 0 0.7873 
19-May-2018_13:51:49 Exp 7322 18 male R 2 4 4 immoralOther immoralSelf mismatch m m 1 0.7078 
19-May-2018_13:51:51 Exp 7322 18 male R 2 4 5 moralOther moralOther match n n 1 0.5348 
19-May-2018_13:51:54 Exp 7322 18 male R 2 4 6 immoralOther moralOther mismatch m m 1 0.6102 
19-May-2018_13:51:56 Exp 7322 18 male R 2 4 7 immoralSelf moralSelf mismatch m m 1 0.5711 
19-May-2018_13:51:58 Exp 7322 18 male R 2 4 8 moralOther immoralSelf mismatch m m 1 0.6512 
19-May-2018_13:52:00 Exp 7322 18 male R 2 4 9 moralOther moralSelf mismatch m m 1 0.6010 
19-May-2018_13:52:03 Exp 7322 18 male R 2 4 10 immoralSelf moralOther mismatch m m 1 0.7658 
19-May-2018_13:52:05 Exp 7322 18 male R 2 4 11 moralSelf immoralOther mismatch m NA -1 1.0841 
19-May-2018_13:52:08 Exp 7322 18 male R 2 4 12 immoralSelf immoralSelf match n n 1 0.8803 
19-May-2018_13:52:10 Exp 7322 18 male R 2 4 13 immoralOther moralOther mismatch m m 1 0.6508 
19-May-2018_13:52:12 Exp 7322 18 male R 2 4 14 moralSelf moralSelf match n n 1 0.6245 
19-May-2018_13:52:15 Exp 7322 18 male R 2 4 15 moralSelf moralSelf match n m 0 0.6618 
19-May-2018_13:52:17 Exp 7322 18 male R 2 4 16 moralOther moralOther match n n 1 0.6798 
19-May-2018_13:52:19 Exp 7322 18 male R 2 4 17 moralSelf immoralOther mismatch m m 1 0.5382 
19-May-2018_13:52:22 Exp 7322 18 male R 2 4 18 moralOther immoralSelf mismatch m m 1 0.6659 
19-May-2018_13:52:24 Exp 7322 18 male R 2 4 19 immoralSelf immoralSelf match n n 1 0.9078 
19-May-2018_13:52:27 Exp 7322 18 male R 2 4 20 moralSelf moralSelf match n m 0 1.0626 
19-May-2018_13:52:29 Exp 7322 18 male R 2 4 21 immoralSelf moralOther mismatch m m 1 0.6727 
19-May-2018_13:52:31 Exp 7322 18 male R 2 4 22 moralOther moralOther match n n 1 0.6629 
19-May-2018_13:52:34 Exp 7322 18 male R 2 4 23 immoralOther immoralOther match n m 0 0.7529 
19-May-2018_13:52:36 Exp 7322 18 male R 2 4 24 moralSelf moralOther mismatch m m 1 0.6687 
19-May-2018_13:52:38 Exp 7322 18 male R 2 5 1 immoralSelf immoralSelf match n n 1 0.8029 
19-May-2018_13:52:41 Exp 7322 18 male R 2 5 2 immoralOther immoralSelf mismatch m m 1 0.8717 
19-May-2018_13:52:43 Exp 7322 18 male R 2 5 3 moralSelf moralSelf match n m 0 0.7100 
19-May-2018_13:52:46 Exp 7322 18 male R 2 5 4 immoralSelf immoralSelf match n n 1 0.8249 
19-May-2018_13:52:48 Exp 7322 18 male R 2 5 5 moralSelf moralSelf match n n 1 0.9581 
19-May-2018_13:52:51 Exp 7322 18 male R 2 5 6 immoralOther moralSelf mismatch m m 1 0.8020 
19-May-2018_13:52:53 Exp 7322 18 male R 2 5 7 immoralSelf immoralSelf match n n 1 0.7348 
19-May-2018_13:52:56 Exp 7322 18 male R 2 5 8 moralSelf immoralOther mismatch m m 1 1.0740 
19-May-2018_13:52:58 Exp 7322 18 male R 2 5 9 moralOther immoralOther mismatch m n 0 0.6724 
19-May-2018_13:53:01 Exp 7322 18 male R 2 5 10 immoralSelf moralOther mismatch m m 1 0.9267 
19-May-2018_13:53:03 Exp 7322 18 male R 2 5 11 moralOther moralOther match n n 1 0.5701 
19-May-2018_13:53:05 Exp 7322 18 male R 2 5 12 moralOther moralOther match n n 1 0.5461 
19-May-2018_13:53:07 Exp 7322 18 male R 2 5 13 moralOther immoralOther mismatch m m 1 0.5537 
19-May-2018_13:53:10 Exp 7322 18 male R 2 5 14 immoralSelf immoralOther mismatch m m 1 1.0055 
19-May-2018_13:53:12 Exp 7322 18 male R 2 5 15 moralSelf moralSelf match n m 0 0.6905 
19-May-2018_13:53:15 Exp 7322 18 male R 2 5 16 moralSelf immoralOther mismatch m m 1 0.8689 
19-May-2018_13:53:17 Exp 7322 18 male R 2 5 17 immoralOther immoralOther match n m 0 0.6990 
19-May-2018_13:53:20 Exp 7322 18 male R 2 5 18 immoralSelf moralOther mismatch m m 1 0.8657 
19-May-2018_13:53:22 Exp 7322 18 male R 2 5 19 moralOther moralOther match n n 1 0.6037 
19-May-2018_13:53:24 Exp 7322 18 male R 2 5 20 moralOther immoralOther mismatch m m 1 0.6566 
19-May-2018_13:53:26 Exp 7322 18 male R 2 5 21 immoralOther moralOther mismatch m m 1 0.5705 
19-May-2018_13:53:29 Exp 7322 18 male R 2 5 22 immoralOther immoralOther match n m 0 0.6585 
19-May-2018_13:53:31 Exp 7322 18 male R 2 5 23 immoralOther immoralOther match n n 1 0.9965 
19-May-2018_13:53:34 Exp 7322 18 male R 2 5 24 moralSelf moralOther mismatch m n 0 0.9250 
19-May-2018_13:53:40 Exp 7322 18 male R 3 1 1 moralSelf moralSelf match n NA -1 1.0841 
19-May-2018_13:53:42 Exp 7322 18 male R 3 1 2 immoralSelf immoralSelf match n n 1 0.8953 
19-May-2018_13:53:45 Exp 7322 18 male R 3 1 3 immoralOther immoralOther match n NA -1 1.0841 
19-May-2018_13:53:47 Exp 7322 18 male R 3 1 4 immoralSelf moralSelf mismatch m m 1 0.8084 
19-May-2018_13:53:50 Exp 7322 18 male R 3 1 5 moralSelf moralSelf match n n 1 0.8933 
19-May-2018_13:53:52 Exp 7322 18 male R 3 1 6 moralOther immoralSelf mismatch m m 1 0.7720 
19-May-2018_13:53:54 Exp 7322 18 male R 3 1 7 moralOther immoralOther mismatch m m 1 0.6921 
19-May-2018_13:53:57 Exp 7322 18 male R 3 1 8 immoralOther moralOther mismatch m NA -1 1.0841 
19-May-2018_13:53:59 Exp 7322 18 male R 3 1 9 moralOther moralOther match n n 1 0.5811 
19-May-2018_13:54:02 Exp 7322 18 male R 3 1 10 immoralSelf moralOther mismatch m m 1 0.7935 
19-May-2018_13:54:04 Exp 7322 18 male R 3 1 11 immoralOther immoralOther match n n 1 0.9700 
19-May-2018_13:54:07 Exp 7322 18 male R 3 1 12 moralSelf immoralOther mismatch m m 1 0.7221 
19-May-2018_13:54:09 Exp 7322 18 male R 3 1 13 immoralOther immoralOther match n n 1 0.7053 
19-May-2018_13:54:11 Exp 7322 18 male R 3 1 14 moralOther moralSelf mismatch m n 0 0.4682 
19-May-2018_13:54:14 Exp 7322 18 male R 3 1 15 immoralSelf immoralSelf match n n 1 0.9304 
19-May-2018_13:54:16 Exp 7322 18 male R 3 1 16 moralSelf moralOther mismatch m n 0 0.8618 
19-May-2018_13:54:19 Exp 7322 18 male R 3 1 17 immoralSelf immoralSelf match n n 1 0.7598 
19-May-2018_13:54:21 Exp 7322 18 male R 3 1 18 moralOther moralOther match n n 1 0.6196 
19-May-2018_13:54:23 Exp 7322 18 male R 3 1 19 immoralOther moralOther mismatch m m 1 0.6526 
19-May-2018_13:54:26 Exp 7322 18 male R 3 1 20 moralSelf moralSelf match n n 1 0.7224 
19-May-2018_13:54:28 Exp 7322 18 male R 3 1 21 immoralSelf moralOther mismatch m m 1 0.7616 
19-May-2018_13:54:30 Exp 7322 18 male R 3 1 22 moralOther moralOther match n n 1 0.5974 
19-May-2018_13:54:32 Exp 7322 18 male R 3 1 23 immoralOther moralOther mismatch m m 1 0.6263 
19-May-2018_13:54:35 Exp 7322 18 male R 3 1 24 moralSelf immoralOther mismatch m NA -1 1.0841 
19-May-2018_13:54:38 Exp 7322 18 male R 3 2 1 moralSelf moralSelf match n n 1 1.0819 
19-May-2018_13:54:40 Exp 7322 18 male R 3 2 2 moralOther immoralSelf mismatch m m 1 0.6684 
19-May-2018_13:54:42 Exp 7322 18 male R 3 2 3 immoralOther moralSelf mismatch m m 1 0.6426 
19-May-2018_13:54:45 Exp 7322 18 male R 3 2 4 moralSelf moralSelf match n n 1 0.5401 
19-May-2018_13:54:47 Exp 7322 18 male R 3 2 5 moralOther moralSelf mismatch m m 1 0.6837 
19-May-2018_13:54:49 Exp 7322 18 male R 3 2 6 moralSelf moralSelf match n n 1 0.7261 
19-May-2018_13:54:52 Exp 7322 18 male R 3 2 7 moralOther immoralSelf mismatch m m 1 0.8853 
19-May-2018_13:54:54 Exp 7322 18 male R 3 2 8 moralOther moralOther match n n 1 0.5837 
19-May-2018_13:54:56 Exp 7322 18 male R 3 2 9 immoralSelf immoralSelf match n n 1 0.7400 
19-May-2018_13:54:59 Exp 7322 18 male R 3 2 10 immoralSelf moralOther mismatch m m 1 0.9076 
19-May-2018_13:55:01 Exp 7322 18 male R 3 2 11 immoralOther moralOther mismatch m m 1 0.7107 
19-May-2018_13:55:04 Exp 7322 18 male R 3 2 12 immoralSelf moralSelf mismatch m m 1 0.9296 
19-May-2018_13:55:06 Exp 7322 18 male R 3 2 13 moralSelf immoralSelf mismatch m n 0 0.6449 
19-May-2018_13:55:08 Exp 7322 18 male R 3 2 14 moralOther moralOther match n n 1 0.7147 
19-May-2018_13:55:11 Exp 7322 18 male R 3 2 15 immoralSelf immoralOther mismatch m m 1 0.9576 
19-May-2018_13:55:14 Exp 7322 18 male R 3 2 16 moralSelf immoralSelf mismatch m m 1 0.8494 
19-May-2018_13:55:16 Exp 7322 18 male R 3 2 17 immoralSelf immoralSelf match n n 1 0.7912 
19-May-2018_13:55:18 Exp 7322 18 male R 3 2 18 immoralOther immoralOther match n m 0 0.7438 
19-May-2018_13:55:21 Exp 7322 18 male R 3 2 19 moralSelf immoralSelf mismatch m m 1 0.9433 
19-May-2018_13:55:23 Exp 7322 18 male R 3 2 20 immoralOther immoralSelf mismatch m n 0 0.9031 
19-May-2018_13:55:26 Exp 7322 18 male R 3 2 21 immoralSelf immoralSelf match n n 1 0.9299 
19-May-2018_13:55:28 Exp 7322 18 male R 3 2 22 immoralOther immoralOther match n m 0 0.7813 
19-May-2018_13:55:31 Exp 7322 18 male R 3 2 23 moralOther moralOther match n n 1 0.5776 
19-May-2018_13:55:33 Exp 7322 18 male R 3 2 24 immoralOther immoralOther match n m 0 0.7899 
19-May-2018_13:55:35 Exp 7322 18 male R 3 3 1 immoralOther immoralOther match n n 1 0.7825 
19-May-2018_13:55:38 Exp 7322 18 male R 3 3 2 moralOther moralOther match n n 1 0.6748 
19-May-2018_13:55:40 Exp 7322 18 male R 3 3 3 moralOther moralSelf mismatch m m 1 0.7451 
19-May-2018_13:55:43 Exp 7322 18 male R 3 3 4 immoralOther moralOther mismatch m m 1 1.0567 
19-May-2018_13:55:46 Exp 7322 18 male R 3 3 5 immoralOther moralSelf mismatch m NA -1 1.0841 
19-May-2018_13:55:48 Exp 7322 18 male R 3 3 6 moralOther immoralSelf mismatch m m 1 0.7731 
19-May-2018_13:55:50 Exp 7322 18 male R 3 3 7 moralOther moralSelf mismatch m n 0 0.5252 
19-May-2018_13:55:53 Exp 7322 18 male R 3 3 8 moralSelf immoralOther mismatch m m 1 0.9563 
19-May-2018_13:55:55 Exp 7322 18 male R 3 3 9 moralOther moralOther match n n 1 0.6163 
19-May-2018_13:55:57 Exp 7322 18 male R 3 3 10 immoralSelf immoralSelf match n m 0 0.6012 
19-May-2018_13:56:00 Exp 7322 18 male R 3 3 11 moralSelf immoralOther mismatch m m 1 0.7900 
19-May-2018_13:56:02 Exp 7322 18 male R 3 3 12 immoralOther immoralOther match n m 0 0.6146 
19-May-2018_13:56:04 Exp 7322 18 male R 3 3 13 immoralSelf moralSelf mismatch m m 1 0.7276 
19-May-2018_13:56:07 Exp 7322 18 male R 3 3 14 immoralOther moralSelf mismatch m m 1 0.6751 
19-May-2018_13:56:09 Exp 7322 18 male R 3 3 15 moralOther moralOther match n n 1 0.6332 
19-May-2018_13:56:11 Exp 7322 18 male R 3 3 16 moralSelf immoralOther mismatch m m 1 0.6747 
19-May-2018_13:56:14 Exp 7322 18 male R 3 3 17 moralSelf moralSelf match n NA -1 1.0841 
19-May-2018_13:56:16 Exp 7322 18 male R 3 3 18 immoralOther immoralOther match n m 0 0.5874 
19-May-2018_13:56:18 Exp 7322 18 male R 3 3 19 immoralSelf moralOther mismatch m m 1 0.6679 
19-May-2018_13:56:21 Exp 7322 18 male R 3 3 20 immoralSelf immoralSelf match n m 0 0.7061 
19-May-2018_13:56:23 Exp 7322 18 male R 3 3 21 immoralSelf immoralSelf match n n 1 0.7251 
19-May-2018_13:56:26 Exp 7322 18 male R 3 3 22 moralSelf moralSelf match n n 1 0.8202 
19-May-2018_13:56:28 Exp 7322 18 male R 3 3 23 immoralSelf moralOther mismatch m m 1 0.5893 
19-May-2018_13:56:30 Exp 7322 18 male R 3 3 24 moralSelf moralSelf match n n 1 0.7499 
19-May-2018_13:56:49 Exp 7322 18 male R 3 4 1 immoralSelf immoralSelf match n n 1 0.7525 
19-May-2018_13:56:52 Exp 7322 18 male R 3 4 2 moralOther moralSelf mismatch m m 1 0.8844 
19-May-2018_13:56:54 Exp 7322 18 male R 3 4 3 immoralSelf moralSelf mismatch m m 1 0.6868 
19-May-2018_13:56:56 Exp 7322 18 male R 3 4 4 moralSelf moralOther mismatch m n 0 0.8011 
19-May-2018_13:56:59 Exp 7322 18 male R 3 4 5 moralOther immoralOther mismatch m m 1 0.6220 
19-May-2018_13:57:01 Exp 7322 18 male R 3 4 6 immoralOther immoralOther match n m 0 0.6193 
19-May-2018_13:57:03 Exp 7322 18 male R 3 4 7 moralSelf immoralOther mismatch m m 1 0.6123 
19-May-2018_13:57:06 Exp 7322 18 male R 3 4 8 moralOther immoralSelf mismatch m m 1 0.9733 
19-May-2018_13:57:08 Exp 7322 18 male R 3 4 9 moralSelf moralSelf match n m 0 0.6214 
19-May-2018_13:57:10 Exp 7322 18 male R 3 4 10 immoralOther immoralSelf mismatch m m 1 0.6827 
19-May-2018_13:57:13 Exp 7322 18 male R 3 4 11 immoralSelf moralOther mismatch m m 1 0.7250 
19-May-2018_13:57:15 Exp 7322 18 male R 3 4 12 moralOther moralOther match n n 1 0.6603 
19-May-2018_13:57:18 Exp 7322 18 male R 3 4 13 immoralOther moralSelf mismatch m n 0 1.0382 
19-May-2018_13:57:20 Exp 7322 18 male R 3 4 14 moralSelf moralSelf match n n 1 0.5438 
19-May-2018_13:57:22 Exp 7322 18 male R 3 4 15 immoralOther immoralOther match n m 0 0.5594 
19-May-2018_13:57:24 Exp 7322 18 male R 3 4 16 moralOther moralOther match n n 1 0.5873 
19-May-2018_13:57:27 Exp 7322 18 male R 3 4 17 moralOther moralOther match n n 1 0.7958 
19-May-2018_13:57:29 Exp 7322 18 male R 3 4 18 immoralOther immoralSelf mismatch m m 1 0.8923 
19-May-2018_13:57:31 Exp 7322 18 male R 3 4 19 immoralSelf immoralSelf match n n 1 0.6750 
19-May-2018_13:57:34 Exp 7322 18 male R 3 4 20 immoralOther immoralOther match n NA -1 1.0841 
19-May-2018_13:57:36 Exp 7322 18 male R 3 4 21 moralSelf moralOther mismatch m m 1 0.6758 
19-May-2018_13:57:39 Exp 7322 18 male R 3 4 22 immoralSelf moralSelf mismatch m m 1 0.7619 
19-May-2018_13:57:41 Exp 7322 18 male R 3 4 23 immoralSelf immoralSelf match n n 1 0.7059 
19-May-2018_13:57:44 Exp 7322 18 male R 3 4 24 moralSelf moralSelf match n n 1 0.8209 
19-May-2018_13:57:46 Exp 7322 18 male R 3 5 1 immoralSelf immoralSelf match n n 1 0.7942 
19-May-2018_13:57:49 Exp 7322 18 male R 3 5 2 moralOther immoralOther mismatch m n 0 1.0347 
19-May-2018_13:57:51 Exp 7322 18 male R 3 5 3 immoralOther moralSelf mismatch m m 1 0.8842 
19-May-2018_13:57:54 Exp 7322 18 male R 3 5 4 moralOther moralOther match n n 1 0.7827 
19-May-2018_13:57:56 Exp 7322 18 male R 3 5 5 immoralOther moralSelf mismatch m m 1 0.9630 
19-May-2018_13:57:59 Exp 7322 18 male R 3 5 6 immoralOther immoralOther match n m 0 0.9391 
19-May-2018_13:58:01 Exp 7322 18 male R 3 5 7 immoralSelf immoralOther mismatch m m 1 0.9948 
19-May-2018_13:58:04 Exp 7322 18 male R 3 5 8 moralSelf moralSelf match n n 1 0.7713 
19-May-2018_13:58:06 Exp 7322 18 male R 3 5 9 moralSelf immoralSelf mismatch m m 1 0.7395 
19-May-2018_13:58:08 Exp 7322 18 male R 3 5 10 moralSelf moralSelf match n n 1 0.6430 
19-May-2018_13:58:11 Exp 7322 18 male R 3 5 11 moralOther moralOther match n n 1 0.6206 
19-May-2018_13:58:13 Exp 7322 18 male R 3 5 12 immoralOther moralOther mismatch m m 1 0.7379 
19-May-2018_13:58:16 Exp 7322 18 male R 3 5 13 immoralSelf immoralSelf match n n 1 0.8452 
19-May-2018_13:58:18 Exp 7322 18 male R 3 5 14 moralSelf moralSelf match n n 1 0.6189 
19-May-2018_13:58:20 Exp 7322 18 male R 3 5 15 moralOther immoralOther mismatch m m 1 0.7079 
19-May-2018_13:58:22 Exp 7322 18 male R 3 5 16 immoralSelf moralSelf mismatch m n 0 0.5189 
19-May-2018_13:58:25 Exp 7322 18 male R 3 5 17 moralOther moralOther match n n 1 0.9820 
19-May-2018_13:58:27 Exp 7322 18 male R 3 5 18 immoralSelf immoralSelf match n n 1 0.6903 
19-May-2018_13:58:30 Exp 7322 18 male R 3 5 19 immoralOther immoralOther match n m 0 0.6928 
19-May-2018_13:58:32 Exp 7322 18 male R 3 5 20 moralOther immoralSelf mismatch m m 1 0.9075 
19-May-2018_13:58:35 Exp 7322 18 male R 3 5 21 moralSelf moralOther mismatch m m 1 0.9504 
19-May-2018_13:58:37 Exp 7322 18 male R 3 5 22 moralSelf immoralOther mismatch m m 1 0.9303 
19-May-2018_13:58:40 Exp 7322 18 male R 3 5 23 immoralSelf moralSelf mismatch m m 1 0.7176 
19-May-2018_13:58:42 Exp 7322 18 male R 3 5 24 immoralOther immoralOther match n m 0 0.7007 
Date Prac Sub Age Sex Hand Block Bin Trial Shape Label Match CorrResp Resp ACC RT
19-May-2018_14:03:49 Exp 7322 18 male R 1 1 1 immoralOther moralSelf mismatch m NA -1 1.0841 
19-May-2018_14:03:52 Exp 7322 18 male R 1 1 2 immoralOther immoralOther match n m 0 0.8243 
19-May-2018_14:03:54 Exp 7322 18 male R 1 1 3 immoralSelf immoralSelf match n m 0 0.8696 
19-May-2018_14:03:57 Exp 7322 18 male R 1 1 4 moralSelf immoralSelf mismatch m m 1 0.9478 
19-May-2018_14:03:59 Exp 7322 18 male R 1 1 5 moralOther moralOther match n n 1 0.5955 
19-May-2018_14:04:01 Exp 7322 18 male R 1 1 6 immoralSelf immoralOther mismatch m m 1 0.8840 
19-May-2018_14:04:04 Exp 7322 18 male R 1 1 7 moralOther moralOther match n n 1 0.5265 
19-May-2018_14:04:06 Exp 7322 18 male R 1 1 8 moralOther immoralOther mismatch m m 1 0.6018 
19-May-2018_14:04:08 Exp 7322 18 male R 1 1 9 immoralSelf immoralSelf match n m 0 0.7666 
19-May-2018_14:04:11 Exp 7322 18 male R 1 1 10 moralSelf moralSelf match n n 1 0.7748 
19-May-2018_14:04:13 Exp 7322 18 male R 1 1 11 moralSelf moralSelf match n n 1 0.5550 
19-May-2018_14:04:15 Exp 7322 18 male R 1 1 12 immoralOther immoralSelf mismatch m m 1 0.6709 
19-May-2018_14:04:18 Exp 7322 18 male R 1 1 13 immoralSelf moralSelf mismatch m n 0 0.7011 
19-May-2018_14:04:20 Exp 7322 18 male R 1 1 14 moralSelf immoralOther mismatch m NA -1 1.0841 
19-May-2018_14:04:23 Exp 7322 18 male R 1 1 15 moralOther moralSelf mismatch m m 1 0.9982 
19-May-2018_14:04:25 Exp 7322 18 male R 1 1 16 moralSelf moralOther mismatch m m 1 0.8591 
19-May-2018_14:04:28 Exp 7322 18 male R 1 1 17 immoralOther immoralOther match n m 0 0.6691 
19-May-2018_14:04:30 Exp 7322 18 male R 1 1 18 moralOther immoralOther mismatch m m 1 0.6752 
19-May-2018_14:04:32 Exp 7322 18 male R 1 1 19 immoralOther moralOther mismatch m m 1 0.7295 
19-May-2018_14:04:35 Exp 7322 18 male R 1 1 20 immoralSelf immoralSelf match n n 1 0.9088 
19-May-2018_14:04:37 Exp 7322 18 male R 1 1 21 moralSelf moralSelf match n m 0 0.7437 
19-May-2018_14:04:39 Exp 7322 18 male R 1 1 22 immoralSelf moralOther mismatch m m 1 0.6314 
19-May-2018_14:04:42 Exp 7322 18 male R 1 1 23 moralOther moralOther match n n 1 0.5726 
19-May-2018_14:04:44 Exp 7322 18 male R 1 1 24 immoralOther immoralOther match n m 0 0.9087 
19-May-2018_14:04:46 Exp 7322 18 male R 1 2 1 immoralOther immoralOther match n m 0 0.6156 
19-May-2018_14:04:49 Exp 7322 18 male R 1 2 2 immoralOther immoralSelf mismatch m n 0 0.6167 
19-May-2018_14:04:51 Exp 7322 18 male R 1 2 3 immoralSelf immoralSelf match n m 0 0.8337 
19-May-2018_14:04:53 Exp 7322 18 male R 1 2 4 moralSelf moralSelf match n n 1 0.6112 
19-May-2018_14:04:56 Exp 7322 18 male R 1 2 5 immoralOther immoralSelf mismatch m m 1 0.6843 
19-May-2018_14:04:58 Exp 7322 18 male R 1 2 6 immoralSelf moralOther mismatch m m 1 0.7027 
19-May-2018_14:05:00 Exp 7322 18 male R 1 2 7 moralOther moralSelf mismatch m n 0 0.4294 
19-May-2018_14:05:02 Exp 7322 18 male R 1 2 8 moralOther moralOther match n n 1 0.5627 
19-May-2018_14:05:05 Exp 7322 18 male R 1 2 9 immoralOther moralOther mismatch m m 1 0.5387 
19-May-2018_14:05:07 Exp 7322 18 male R 1 2 10 moralOther immoralSelf mismatch m m 1 0.7304 
19-May-2018_14:05:09 Exp 7322 18 male R 1 2 11 immoralSelf immoralOther mismatch m n 0 0.9577 
19-May-2018_14:05:12 Exp 7322 18 male R 1 2 12 immoralOther immoralOther match n m 0 0.6975 
19-May-2018_14:05:14 Exp 7322 18 male R 1 2 13 immoralOther immoralOther match n n 1 0.6563 
19-May-2018_14:05:16 Exp 7322 18 male R 1 2 14 moralOther moralOther match n m 0 0.6982 
19-May-2018_14:05:19 Exp 7322 18 male R 1 2 15 moralSelf immoralSelf mismatch m m 1 0.9609 
19-May-2018_14:05:21 Exp 7322 18 male R 1 2 16 moralSelf moralSelf match n n 1 0.7008 
19-May-2018_14:05:24 Exp 7322 18 male R 1 2 17 immoralSelf immoralSelf match n n 1 0.7075 
19-May-2018_14:05:26 Exp 7322 18 male R 1 2 18 moralOther moralOther match n n 1 0.6623 
19-May-2018_14:05:28 Exp 7322 18 male R 1 2 19 immoralSelf immoralSelf match n n 1 0.7362 
19-May-2018_14:05:31 Exp 7322 18 male R 1 2 20 moralOther moralSelf mismatch m m 1 0.7318 
19-May-2018_14:05:33 Exp 7322 18 male R 1 2 21 moralSelf immoralOther mismatch m m 1 0.6711 
19-May-2018_14:05:35 Exp 7322 18 male R 1 2 22 moralSelf moralSelf match n m 0 0.6054 
19-May-2018_14:05:38 Exp 7322 18 male R 1 2 23 immoralSelf moralOther mismatch m m 1 0.6741 
19-May-2018_14:05:40 Exp 7322 18 male R 1 2 24 moralSelf moralOther mismatch m n 0 1.0003 
Date Prac Sub Age Sex Hand Block Bin Trial Shape Label Match CorrResp Resp ACC RT
19-May-2018_14:10:40 Exp 7322 18 male R 1 1 1 immoralOther immoralOther match n n 1 0.9666 
19-May-2018_14:10:43 Exp 7322 18 male R 1 1 2 moralSelf moralOther mismatch m NA -1 1.0841 
19-May-2018_14:10:45 Exp 7322 18 male R 1 1 3 immoralSelf immoralSelf match n n 1 0.7373 
19-May-2018_14:10:48 Exp 7322 18 male R 1 1 4 moralSelf immoralOther mismatch m m 1 0.9087 
19-May-2018_14:10:50 Exp 7322 18 male R 1 1 5 immoralSelf immoralSelf match n n 1 0.7436 
19-May-2018_14:10:52 Exp 7322 18 male R 1 1 6 moralSelf moralSelf match n n 1 0.6552 
19-May-2018_14:10:55 Exp 7322 18 male R 1 1 7 immoralOther moralOther mismatch m m 1 0.7250 
19-May-2018_14:10:57 Exp 7322 18 male R 1 1 8 moralOther moralOther match n n 1 0.5321 
19-May-2018_14:10:59 Exp 7322 18 male R 1 1 9 immoralOther immoralSelf mismatch m m 1 1.0555 
19-May-2018_14:11:02 Exp 7322 18 male R 1 1 10 moralOther immoralOther mismatch m n 0 1.0373 
19-May-2018_14:11:04 Exp 7322 18 male R 1 1 11 immoralOther immoralOther match n n 1 0.7108 
19-May-2018_14:11:07 Exp 7322 18 male R 1 1 12 moralOther immoralSelf mismatch m m 1 1.0817 
19-May-2018_14:11:09 Exp 7322 18 male R 1 1 13 moralSelf moralSelf match n n 1 0.6761 
19-May-2018_14:11:12 Exp 7322 18 male R 1 1 14 immoralOther immoralSelf mismatch m m 1 1.0343 
19-May-2018_14:11:14 Exp 7322 18 male R 1 1 15 immoralSelf immoralSelf match n n 1 0.7318 
19-May-2018_14:11:17 Exp 7322 18 male R 1 1 16 moralOther moralOther match n n 1 0.6152 
19-May-2018_14:11:19 Exp 7322 18 male R 1 1 17 immoralOther immoralOther match n m 0 0.7602 
19-May-2018_14:11:22 Exp 7322 18 male R 1 1 18 moralOther moralSelf mismatch m m 1 0.7882 
19-May-2018_14:11:24 Exp 7322 18 male R 1 1 19 moralSelf moralSelf match n n 1 0.6607 
19-May-2018_14:11:26 Exp 7322 18 male R 1 1 20 immoralSelf moralOther mismatch m m 1 0.8946 
19-May-2018_14:11:29 Exp 7322 18 male R 1 1 21 moralSelf immoralSelf mismatch m m 1 0.8213 
19-May-2018_14:11:31 Exp 7322 18 male R 1 1 22 immoralSelf moralOther mismatch m m 1 0.7386 
19-May-2018_14:11:33 Exp 7322 18 male R 1 1 23 moralOther moralOther match n n 1 0.5782 
19-May-2018_14:11:36 Exp 7322 18 male R 1 1 24 immoralSelf moralOther mismatch m m 1 0.6545 
19-May-2018_14:11:38 Exp 7322 18 male R 1 2 1 immoralOther immoralSelf mismatch m m 1 0.7403 
19-May-2018_14:11:40 Exp 7322 18 male R 1 2 2 moralSelf moralSelf match n n 1 0.5799 
19-May-2018_14:11:43 Exp 7322 18 male R 1 2 3 moralSelf immoralOther mismatch m m 1 0.6321 
19-May-2018_14:11:45 Exp 7322 18 male R 1 2 4 immoralOther immoralOther match n n 1 0.7256 
19-May-2018_14:11:47 Exp 7322 18 male R 1 2 5 moralOther moralOther match n n 1 0.6126 
19-May-2018_14:11:50 Exp 7322 18 male R 1 2 6 moralSelf moralSelf match n m 0 0.9656 
19-May-2018_14:11:52 Exp 7322 18 male R 1 2 7 immoralOther immoralSelf mismatch m m 1 1.0697 
19-May-2018_14:11:55 Exp 7322 18 male R 1 2 8 immoralOther immoralOther match n n 1 0.9080 
19-May-2018_14:11:57 Exp 7322 18 male R 1 2 9 immoralSelf moralSelf mismatch m m 1 0.8229 
19-May-2018_14:12:00 Exp 7322 18 male R 1 2 10 moralOther immoralOther mismatch m m 1 0.7722 
19-May-2018_14:12:02 Exp 7322 18 male R 1 2 11 moralSelf moralOther mismatch m m 1 0.9083 
19-May-2018_14:12:05 Exp 7322 18 male R 1 2 12 immoralSelf immoralSelf match n n 1 0.7912 
19-May-2018_14:12:07 Exp 7322 18 male R 1 2 13 moralSelf immoralSelf mismatch m m 1 0.7197 
19-May-2018_14:12:10 Exp 7322 18 male R 1 2 14 immoralSelf immoralOther mismatch m m 1 1.0069 
19-May-2018_14:12:12 Exp 7322 18 male R 1 2 15 immoralSelf immoralSelf match n n 1 0.9077 
19-May-2018_14:12:15 Exp 7322 18 male R 1 2 16 moralOther moralOther match n n 1 0.5827 
19-May-2018_14:12:17 Exp 7322 18 male R 1 2 17 immoralSelf moralOther mismatch m m 1 0.6110 
19-May-2018_14:12:19 Exp 7322 18 male R 1 2 18 moralOther immoralSelf mismatch m m 1 0.6839 
19-May-2018_14:12:21 Exp 7322 18 male R 1 2 19 immoralOther immoralOther match n m 0 0.6385 
19-May-2018_14:12:24 Exp 7322 18 male R 1 2 20 moralOther moralOther match n n 1 0.6079 
19-May-2018_14:12:26 Exp 7322 18 male R 1 2 21 moralOther immoralOther mismatch m m 1 0.5887 
19-May-2018_14:12:28 Exp 7322 18 male R 1 2 22 immoralOther immoralSelf mismatch m m 1 0.8213 
19-May-2018_14:12:31 Exp 7322 18 male R 1 2 23 moralSelf moralSelf match n n 1 0.7305 
19-May-2018_14:12:33 Exp 7322 18 male R 1 2 24 immoralSelf immoralSelf match n m 0 0.6779 
Date Prac Sub Age Sex Hand Block Bin Trial Shape Label Match CorrResp Resp ACC RT
19-May-2018_14:16:47 Exp 7322 18 male R 1 1 1 moralOther moralOther match n n 1 0.5874 
19-May-2018_14:16:50 Exp 7322 18 male R 1 1 2 immoralSelf immoralOther mismatch m m 1 0.9961 
19-May-2018_14:16:52 Exp 7322 18 male R 1 1 3 immoralOther immoralOther match n m 0 0.8207 
19-May-2018_14:16:55 Exp 7322 18 male R 1 1 4 moralSelf moralSelf match n n 1 0.8739 
19-May-2018_14:16:57 Exp 7322 18 male R 1 1 5 immoralSelf moralOther mismatch m m 1 0.8081 
19-May-2018_14:16:59 Exp 7322 18 male R 1 1 6 moralSelf immoralSelf mismatch m m 1 0.7810 
19-May-2018_14:17:02 Exp 7322 18 male R 1 1 7 moralSelf moralOther mismatch m m 1 0.9533 
19-May-2018_14:17:04 Exp 7322 18 male R 1 1 8 immoralSelf moralSelf mismatch m m 1 0.6851 
19-May-2018_14:17:07 Exp 7322 18 male R 1 1 9 immoralOther moralOther mismatch m n 0 0.9035 
19-May-2018_14:17:09 Exp 7322 18 male R 1 1 10 moralSelf moralSelf match n m 0 0.6105 
19-May-2018_14:17:12 Exp 7322 18 male R 1 1 11 immoralOther immoralOther match n m 0 0.7716 
19-May-2018_14:17:14 Exp 7322 18 male R 1 1 12 immoralSelf immoralSelf match n n 1 0.7876 
19-May-2018_14:17:16 Exp 7322 18 male R 1 1 13 moralOther moralOther match n n 1 0.4921 
19-May-2018_14:17:18 Exp 7322 18 male R 1 1 14 immoralOther immoralOther match n n 1 0.7548 
19-May-2018_14:17:21 Exp 7322 18 male R 1 1 15 moralOther immoralSelf mismatch m m 1 0.6306 
19-May-2018_14:17:23 Exp 7322 18 male R 1 1 16 moralOther immoralSelf mismatch m m 1 0.6680 
19-May-2018_14:17:26 Exp 7322 18 male R 1 1 17 moralOther immoralOther mismatch m m 1 0.8742 
19-May-2018_14:17:28 Exp 7322 18 male R 1 1 18 immoralOther immoralSelf mismatch m m 1 0.6804 
19-May-2018_14:17:30 Exp 7322 18 male R 1 1 19 immoralSelf immoralSelf match n n 1 0.6349 
19-May-2018_14:17:33 Exp 7322 18 male R 1 1 20 moralSelf immoralOther mismatch m m 1 0.8364 
19-May-2018_14:17:35 Exp 7322 18 male R 1 1 21 immoralOther moralOther mismatch m m 1 0.6298 
19-May-2018_14:17:37 Exp 7322 18 male R 1 1 22 immoralSelf immoralSelf match n n 1 0.6272 
19-May-2018_14:17:39 Exp 7322 18 male R 1 1 23 moralSelf moralSelf match n n 1 0.7204 
19-May-2018_14:17:42 Exp 7322 18 male R 1 1 24 moralOther moralOther match n m 0 0.6955 
19-May-2018_14:17:44 Exp 7322 18 male R 1 2 1 immoralSelf immoralSelf match n n 1 0.7102 
19-May-2018_14:17:46 Exp 7322 18 male R 1 2 2 moralSelf moralSelf match n n 1 0.5611 
19-May-2018_14:17:49 Exp 7322 18 male R 1 2 3 moralOther moralOther match n n 1 0.7569 
19-May-2018_14:17:51 Exp 7322 18 male R 1 2 4 moralOther moralSelf mismatch m NA -1 1.0841 
19-May-2018_14:17:54 Exp 7322 18 male R 1 2 5 moralOther moralSelf mismatch m n 0 0.6673 
19-May-2018_14:17:56 Exp 7322 18 male R 1 2 6 moralOther moralSelf mismatch m m 1 0.6133 
19-May-2018_14:17:59 Exp 7322 18 male R 1 2 7 immoralOther immoralSelf mismatch m m 1 1.0623 
19-May-2018_14:18:01 Exp 7322 18 male R 1 2 8 immoralOther immoralOther match n n 1 0.7762 
19-May-2018_14:18:03 Exp 7322 18 male R 1 2 9 moralOther moralOther match n n 1 0.5326 
19-May-2018_14:18:05 Exp 7322 18 male R 1 2 10 moralSelf moralSelf match n n 1 0.5840 
19-May-2018_14:18:08 Exp 7322 18 male R 1 2 11 immoralSelf immoralOther mismatch m m 1 0.9163 
19-May-2018_14:18:10 Exp 7322 18 male R 1 2 12 moralSelf moralOther mismatch m n 0 0.6515 
19-May-2018_14:18:12 Exp 7322 18 male R 1 2 13 moralOther moralOther match n n 1 0.5452 
19-May-2018_14:18:15 Exp 7322 18 male R 1 2 14 immoralOther immoralOther match n m 0 0.7288 
19-May-2018_14:18:17 Exp 7322 18 male R 1 2 15 immoralSelf immoralOther mismatch m m 1 0.7562 
19-May-2018_14:18:20 Exp 7322 18 male R 1 2 16 immoralOther immoralSelf mismatch m m 1 0.8801 
19-May-2018_14:18:22 Exp 7322 18 male R 1 2 17 immoralOther immoralOther match n m 0 0.8825 
19-May-2018_14:18:25 Exp 7322 18 male R 1 2 18 moralSelf moralOther mismatch m n 0 0.6129 
19-May-2018_14:18:27 Exp 7322 18 male R 1 2 19 moralSelf moralSelf match n n 1 0.8060 
19-May-2018_14:18:29 Exp 7322 18 male R 1 2 20 immoralSelf moralOther mismatch m m 1 0.8027 
19-May-2018_14:18:32 Exp 7322 18 male R 1 2 21 moralSelf moralOther mismatch m n 0 0.6075 
19-May-2018_14:18:34 Exp 7322 18 male R 1 2 22 immoralSelf immoralSelf match n n 1 0.6843 
19-May-2018_14:18:36 Exp 7322 18 male R 1 2 23 immoralOther moralSelf mismatch m m 1 0.7508 
19-May-2018_14:18:39 Exp 7322 18 male R 1 2 24 immoralSelf immoralSelf match n n 1 0.7946 
Date Prac Sub Age Sex Hand Block Bin Trial Shape Label Match CorrResp Resp ACC RT
19-May-2018_14:22:53 Exp 7322 18 male R 1 1 1 moralOther moralOther match n n 1 0.7992 
19-May-2018_14:22:56 Exp 7322 18 male R 1 1 2 moralOther immoralSelf mismatch m m 1 0.6121 
19-May-2018_14:22:58 Exp 7322 18 male R 1 1 3 moralSelf immoralOther mismatch m m 1 0.7572 
19-May-2018_14:23:00 Exp 7322 18 male R 1 1 4 moralSelf moralSelf match n n 1 0.7050 
19-May-2018_14:23:03 Exp 7322 18 male R 1 1 5 moralSelf immoralSelf mismatch m m 1 0.7159 
19-May-2018_14:23:05 Exp 7322 18 male R 1 1 6 immoralOther immoralSelf mismatch m NA -1 1.0841 
19-May-2018_14:23:08 Exp 7322 18 male R 1 1 7 immoralSelf moralSelf mismatch m m 1 0.8695 
19-May-2018_14:23:10 Exp 7322 18 male R 1 1 8 immoralSelf moralOther mismatch m m 1 0.6357 
19-May-2018_14:23:12 Exp 7322 18 male R 1 1 9 immoralSelf immoralOther mismatch m m 1 0.6452 
19-May-2018_14:23:15 Exp 7322 18 male R 1 1 10 immoralOther immoralOther match n m 0 0.5950 
19-May-2018_14:23:17 Exp 7322 18 male R 1 1 11 immoralOther moralOther mismatch m n 0 0.8596 
19-May-2018_14:23:19 Exp 7322 18 male R 1 1 12 moralSelf moralSelf match n n 1 0.6935 
19-May-2018_14:23:22 Exp 7322 18 male R 1 1 13 immoralOther immoralOther match n n 1 0.8842 
19-May-2018_14:23:24 Exp 7322 18 male R 1 1 14 moralSelf immoralOther mismatch m m 1 0.6546 
19-May-2018_14:23:27 Exp 7322 18 male R 1 1 15 moralOther moralOther match n m 0 0.7804 
19-May-2018_14:23:29 Exp 7322 18 male R 1 1 16 immoralSelf immoralSelf match n n 1 0.8566 
19-May-2018_14:23:32 Exp 7322 18 male R 1 1 17 moralOther immoralOther mismatch m m 1 0.7467 
19-May-2018_14:23:34 Exp 7322 18 male R 1 1 18 immoralOther moralOther mismatch m NA -1 1.0841 
19-May-2018_14:23:37 Exp 7322 18 male R 1 1 19 moralOther moralOther match n n 1 0.6207 
19-May-2018_14:23:39 Exp 7322 18 male R 1 1 20 immoralOther immoralOther match n m 0 0.6420 
19-May-2018_14:23:41 Exp 7322 18 male R 1 1 21 moralSelf moralSelf match n n 1 0.5955 
19-May-2018_14:23:43 Exp 7322 18 male R 1 1 22 immoralSelf immoralSelf match n n 1 0.7640 
19-May-2018_14:23:46 Exp 7322 18 male R 1 1 23 immoralSelf immoralSelf match n m 0 0.7321 
19-May-2018_14:23:48 Exp 7322 18 male R 1 1 24 moralOther moralSelf mismatch m n 0 0.5036 
19-May-2018_14:23:50 Exp 7322 18 male R 1 2 1 moralSelf moralSelf match n n 1 0.6904 
19-May-2018_14:23:53 Exp 7322 18 male R 1 2 2 immoralOther immoralSelf mismatch m m 1 0.9809 
19-May-2018_14:23:55 Exp 7322 18 male R 1 2 3 immoralSelf immoralSelf match n n 1 0.7612 
19-May-2018_14:23:57 Exp 7322 18 male R 1 2 4 immoralSelf immoralSelf match n n 1 0.5891 
19-May-2018_14:24:00 Exp 7322 18 male R 1 2 5 immoralSelf immoralSelf match n n 1 0.6857 
19-May-2018_14:24:02 Exp 7322 18 male R 1 2 6 moralSelf immoralOther mismatch m NA -1 1.0841 
19-May-2018_14:24:05 Exp 7322 18 male R 1 2 7 immoralOther immoralSelf mismatch m m 1 0.8665 
19-May-2018_14:24:07 Exp 7322 18 male R 1 2 8 immoralOther immoralOther match n m 0 0.5725 
19-May-2018_14:24:09 Exp 7322 18 male R 1 2 9 moralOther moralOther match n n 1 0.4926 
19-May-2018_14:24:12 Exp 7322 18 male R 1 2 10 moralOther moralOther match n n 1 0.5633 
19-May-2018_14:24:14 Exp 7322 18 male R 1 2 11 immoralOther immoralOther match n n 1 0.9154 
19-May-2018_14:24:16 Exp 7322 18 male R 1 2 12 moralOther moralSelf mismatch m m 1 0.6985 
19-May-2018_14:24:19 Exp 7322 18 male R 1 2 13 moralOther immoralSelf mismatch m m 1 1.0732 
19-May-2018_14:24:22 Exp 7322 18 male R 1 2 14 moralSelf immoralOther mismatch m m 1 0.7914 
19-May-2018_14:24:24 Exp 7322 18 male R 1 2 15 moralSelf immoralOther mismatch m m 1 0.6560 
19-May-2018_14:24:26 Exp 7322 18 male R 1 2 16 moralOther moralOther match n n 1 0.5779 
19-May-2018_14:24:28 Exp 7322 18 male R 1 2 17 moralSelf moralSelf match n m 0 0.5823 
19-May-2018_14:24:31 Exp 7322 18 male R 1 2 18 moralOther immoralSelf mismatch m m 1 0.6746 
19-May-2018_14:24:33 Exp 7322 18 male R 1 2 19 immoralOther immoralOther match n m 0 0.6248 
19-May-2018_14:24:35 Exp 7322 18 male R 1 2 20 immoralSelf moralOther mismatch m m 1 0.7020 
19-May-2018_14:24:37 Exp 7322 18 male R 1 2 21 immoralSelf moralOther mismatch m n 0 0.6207 
19-May-2018_14:24:40 Exp 7322 18 male R 1 2 22 moralSelf moralSelf match n n 1 0.6500 
19-May-2018_14:24:42 Exp 7322 18 male R 1 2 23 immoralSelf immoralOther mismatch m NA -1 1.0841 
19-May-2018_14:24:45 Exp 7322 18 male R 1 2 24 immoralOther moralOther mismatch m m 1 0.8101 
Date Prac Sub Age Sex Hand Block Bin Trial Shape Label Match CorrResp Resp ACC RT
19-May-2018_14:29:29 Exp 7322 18 male R 1 1 1 immoralSelf immoralSelf match n n 1 0.8446 
19-May-2018_14:29:31 Exp 7322 18 male R 1 1 2 moralSelf immoralSelf mismatch m m 1 0.6905 
19-May-2018_14:29:33 Exp 7322 18 male R 1 1 3 immoralOther immoralOther match n n 1 0.7009 
19-May-2018_14:29:36 Exp 7322 18 male R 1 1 4 moralOther immoralSelf mismatch m m 1 0.6356 
19-May-2018_14:29:38 Exp 7322 18 male R 1 1 5 moralSelf moralSelf match n n 1 0.7090 
19-May-2018_14:29:40 Exp 7322 18 male R 1 1 6 moralSelf moralSelf match n n 1 0.7360 
19-May-2018_14:29:43 Exp 7322 18 male R 1 1 7 moralSelf immoralSelf mismatch m m 1 0.6434 
19-May-2018_14:29:45 Exp 7322 18 male R 1 1 8 immoralSelf moralOther mismatch m m 1 0.7648 
19-May-2018_14:29:47 Exp 7322 18 male R 1 1 9 moralOther moralOther match n n 1 0.5891 
19-May-2018_14:29:49 Exp 7322 18 male R 1 1 10 moralSelf moralSelf match n n 1 0.5496 
19-May-2018_14:29:52 Exp 7322 18 male R 1 1 11 immoralOther moralOther mismatch m m 1 0.6931 
19-May-2018_14:29:54 Exp 7322 18 male R 1 1 12 moralOther moralSelf mismatch m m 1 0.7958 
19-May-2018_14:29:57 Exp 7322 18 male R 1 1 13 immoralSelf immoralSelf match n n 1 0.8283 
19-May-2018_14:29:59 Exp 7322 18 male R 1 1 14 immoralOther moralSelf mismatch m m 1 0.8176 
19-May-2018_14:30:01 Exp 7322 18 male R 1 1 15 moralOther moralOther match n n 1 0.6107 
19-May-2018_14:30:04 Exp 7322 18 male R 1 1 16 moralOther immoralOther mismatch m m 1 0.6357 
19-May-2018_14:30:06 Exp 7322 18 male R 1 1 17 immoralSelf immoralOther mismatch m m 1 0.7573 
19-May-2018_14:30:08 Exp 7322 18 male R 1 1 18 immoralOther immoralOther match n m 0 0.6971 
19-May-2018_14:30:11 Exp 7322 18 male R 1 1 19 immoralOther immoralOther match n n 1 0.8237 
19-May-2018_14:30:13 Exp 7322 18 male R 1 1 20 immoralSelf immoralSelf match n m 0 0.6370 
19-May-2018_14:30:15 Exp 7322 18 male R 1 1 21 immoralSelf moralOther mismatch m m 1 0.7905 
19-May-2018_14:30:18 Exp 7322 18 male R 1 1 22 moralOther moralOther match n n 1 0.5511 
19-May-2018_14:30:20 Exp 7322 18 male R 1 1 23 moralSelf moralOther mismatch m m 1 0.6269 
19-May-2018_14:30:22 Exp 7322 18 male R 1 1 24 immoralOther moralOther mismatch m m 1 0.6322 
19-May-2018_14:30:25 Exp 7322 18 male R 1 2 1 immoralOther immoralOther match n n 1 0.8295 
19-May-2018_14:30:27 Exp 7322 18 male R 1 2 2 immoralSelf immoralSelf match n n 1 0.8188 
19-May-2018_14:30:29 Exp 7322 18 male R 1 2 3 immoralOther immoralOther match n n 1 0.8278 
19-May-2018_14:30:32 Exp 7322 18 male R 1 2 4 moralSelf immoralOther mismatch m m 1 0.7131 
19-May-2018_14:30:34 Exp 7322 18 male R 1 2 5 immoralOther moralOther mismatch m m 1 0.9559 
19-May-2018_14:30:37 Exp 7322 18 male R 1 2 6 immoralSelf moralOther mismatch m m 1 0.7039 
19-May-2018_14:30:39 Exp 7322 18 male R 1 2 7 moralSelf moralSelf match n n 1 0.7227 
19-May-2018_14:30:42 Exp 7322 18 male R 1 2 8 immoralSelf immoralSelf match n n 1 0.8658 
19-May-2018_14:30:44 Exp 7322 18 male R 1 2 9 immoralSelf moralSelf mismatch m m 1 0.6678 
19-May-2018_14:30:46 Exp 7322 18 male R 1 2 10 moralSelf immoralOther mismatch m m 1 0.7620 
19-May-2018_14:30:49 Exp 7322 18 male R 1 2 11 moralOther moralOther match n n 1 0.6102 
19-May-2018_14:30:51 Exp 7322 18 male R 1 2 12 moralOther immoralSelf mismatch m m 1 0.7632 
19-May-2018_14:30:53 Exp 7322 18 male R 1 2 13 moralSelf immoralSelf mismatch m m 1 0.8032 
19-May-2018_14:30:56 Exp 7322 18 male R 1 2 14 moralOther moralOther match n m 0 1.0400 
19-May-2018_14:30:58 Exp 7322 18 male R 1 2 15 immoralSelf immoralOther mismatch m m 1 0.7696 
19-May-2018_14:31:01 Exp 7322 18 male R 1 2 16 moralSelf moralSelf match n n 1 0.6337 
19-May-2018_14:31:03 Exp 7322 18 male R 1 2 17 moralOther moralSelf mismatch m m 1 0.7712 
19-May-2018_14:31:05 Exp 7322 18 male R 1 2 18 immoralOther moralOther mismatch m m 1 0.6833 
19-May-2018_14:31:08 Exp 7322 18 male R 1 2 19 immoralOther immoralOther match n m 0 0.5897 
19-May-2018_14:31:10 Exp 7322 18 male R 1 2 20 immoralSelf immoralSelf match n m 0 0.7903 
19-May-2018_14:31:12 Exp 7322 18 male R 1 2 21 moralOther moralOther match n n 1 0.5829 
19-May-2018_14:31:15 Exp 7322 18 male R 1 2 22 moralOther immoralSelf mismatch m m 1 0.6912 
19-May-2018_14:31:17 Exp 7322 18 male R 1 2 23 moralSelf moralSelf match n n 1 0.6018 
19-May-2018_14:31:19 Exp 7322 18 male R 1 2 24 immoralOther immoralSelf mismatch m m 1 0.7667 
