Date Prac Sub Age Sex Hand Block Bin Trial Shape Label Match CorrResp Resp ACC RT
02-May-2018_14:23:06 Exp 7302 22 female R 1 1 1 immoralSelf immoralOther mismatch n m 0 0.7561 
02-May-2018_14:23:08 Exp 7302 22 female R 1 1 2 moralOther moralSelf mismatch n n 1 0.7043 
02-May-2018_14:23:10 Exp 7302 22 female R 1 1 3 immoralOther moralOther mismatch n n 1 0.9903 
02-May-2018_14:23:13 Exp 7302 22 female R 1 1 4 moralSelf immoralSelf mismatch n NA -1 1.0420 
02-May-2018_14:23:15 Exp 7302 22 female R 1 1 5 immoralSelf immoralSelf match m m 1 0.8207 
02-May-2018_14:23:17 Exp 7302 22 female R 1 1 6 immoralSelf immoralSelf match m m 1 0.7547 
02-May-2018_14:23:19 Exp 7302 22 female R 1 1 7 moralOther moralOther match m m 1 0.5429 
02-May-2018_14:23:21 Exp 7302 22 female R 1 1 8 moralSelf moralSelf match m m 1 0.9009 
02-May-2018_14:23:24 Exp 7302 22 female R 1 1 9 moralOther immoralSelf mismatch n n 1 0.9551 
02-May-2018_14:23:26 Exp 7302 22 female R 1 1 10 immoralSelf moralOther mismatch n n 1 0.6952 
02-May-2018_14:23:28 Exp 7302 22 female R 1 1 11 moralOther moralSelf mismatch n n 1 0.7593 
02-May-2018_14:23:30 Exp 7302 22 female R 1 1 12 immoralOther immoralOther match m m 1 0.7135 
02-May-2018_14:23:32 Exp 7302 22 female R 1 1 13 moralOther moralOther match m m 1 0.5656 
02-May-2018_14:23:34 Exp 7302 22 female R 1 1 14 moralSelf immoralSelf mismatch n m 0 0.5357 
02-May-2018_14:23:36 Exp 7302 22 female R 1 1 15 immoralOther immoralOther match m m 1 0.8078 
02-May-2018_14:23:38 Exp 7302 22 female R 1 1 16 immoralSelf moralSelf mismatch n n 1 0.9600 
02-May-2018_14:23:40 Exp 7302 22 female R 1 1 17 moralSelf immoralSelf mismatch n n 1 0.6661 
02-May-2018_14:23:42 Exp 7302 22 female R 1 1 18 moralSelf moralSelf match m m 1 0.6962 
02-May-2018_14:23:45 Exp 7302 22 female R 1 1 19 immoralSelf immoralSelf match m n 0 0.8803 
02-May-2018_14:23:47 Exp 7302 22 female R 1 1 20 moralOther moralOther match m m 1 0.5785 
02-May-2018_14:23:49 Exp 7302 22 female R 1 1 21 immoralOther moralOther mismatch n n 1 0.7845 
02-May-2018_14:23:51 Exp 7302 22 female R 1 1 22 moralSelf moralSelf match m m 1 0.8146 
02-May-2018_14:23:53 Exp 7302 22 female R 1 1 23 immoralOther immoralOther match m m 1 0.6548 
02-May-2018_14:23:55 Exp 7302 22 female R 1 1 24 immoralOther moralOther mismatch n n 1 0.8789 
02-May-2018_14:23:57 Exp 7302 22 female R 1 2 1 moralSelf moralSelf match m m 1 0.7131 
02-May-2018_14:24:00 Exp 7302 22 female R 1 2 2 moralSelf immoralSelf mismatch n m 0 0.8211 
02-May-2018_14:24:02 Exp 7302 22 female R 1 2 3 immoralOther immoralOther match m m 1 0.8033 
02-May-2018_14:24:04 Exp 7302 22 female R 1 2 4 immoralOther immoralSelf mismatch n m 0 0.6294 
02-May-2018_14:24:06 Exp 7302 22 female R 1 2 5 immoralSelf immoralOther mismatch n n 1 0.8095 
02-May-2018_14:24:08 Exp 7302 22 female R 1 2 6 immoralOther immoralOther match m m 1 0.6176 
02-May-2018_14:24:10 Exp 7302 22 female R 1 2 7 moralSelf moralSelf match m m 1 0.7917 
02-May-2018_14:24:12 Exp 7302 22 female R 1 2 8 moralOther moralOther match m m 1 0.5559 
02-May-2018_14:24:15 Exp 7302 22 female R 1 2 9 immoralSelf immoralOther mismatch n m 0 0.9600 
02-May-2018_14:24:16 Exp 7302 22 female R 1 2 10 moralOther moralOther match m m 1 0.5381 
02-May-2018_14:24:19 Exp 7302 22 female R 1 2 11 immoralSelf moralSelf mismatch n NA -1 1.0420 
02-May-2018_14:24:21 Exp 7302 22 female R 1 2 12 moralSelf immoralSelf mismatch n m 0 0.8264 
02-May-2018_14:24:23 Exp 7302 22 female R 1 2 13 immoralSelf immoralSelf match m m 1 0.7125 
02-May-2018_14:24:25 Exp 7302 22 female R 1 2 14 moralOther immoralOther mismatch n m 0 0.4609 
02-May-2018_14:24:27 Exp 7302 22 female R 1 2 15 moralOther immoralOther mismatch n n 1 0.8027 
02-May-2018_14:24:29 Exp 7302 22 female R 1 2 16 immoralSelf immoralSelf match m m 1 0.7808 
02-May-2018_14:24:32 Exp 7302 22 female R 1 2 17 moralOther immoralOther mismatch n n 1 0.8749 
02-May-2018_14:24:34 Exp 7302 22 female R 1 2 18 moralSelf immoralOther mismatch n m 0 0.8710 
02-May-2018_14:24:36 Exp 7302 22 female R 1 2 19 moralSelf moralSelf match m m 1 0.6512 
02-May-2018_14:24:38 Exp 7302 22 female R 1 2 20 immoralOther moralOther mismatch n n 1 0.7554 
02-May-2018_14:24:40 Exp 7302 22 female R 1 2 21 immoralOther immoralOther match m m 1 0.6715 
02-May-2018_14:24:42 Exp 7302 22 female R 1 2 22 immoralSelf immoralSelf match m m 1 0.9076 
02-May-2018_14:24:44 Exp 7302 22 female R 1 2 23 immoralOther moralOther mismatch n n 1 0.5997 
02-May-2018_14:24:46 Exp 7302 22 female R 1 2 24 moralOther moralOther match m m 1 0.5218 
02-May-2018_14:24:48 Exp 7302 22 female R 1 3 1 immoralOther immoralOther match m m 1 0.7319 
02-May-2018_14:24:51 Exp 7302 22 female R 1 3 2 moralOther immoralOther mismatch n n 1 0.7640 
02-May-2018_14:24:53 Exp 7302 22 female R 1 3 3 moralSelf moralOther mismatch n NA -1 1.0420 
02-May-2018_14:24:55 Exp 7302 22 female R 1 3 4 immoralSelf moralSelf mismatch n n 1 0.7443 
02-May-2018_14:24:57 Exp 7302 22 female R 1 3 5 moralOther moralOther match m m 1 0.5104 
02-May-2018_14:24:59 Exp 7302 22 female R 1 3 6 moralOther moralOther match m m 1 0.7706 
02-May-2018_14:25:01 Exp 7302 22 female R 1 3 7 immoralOther immoralSelf mismatch n n 1 0.6026 
02-May-2018_14:25:03 Exp 7302 22 female R 1 3 8 moralSelf immoralOther mismatch n n 1 0.7648 
02-May-2018_14:25:05 Exp 7302 22 female R 1 3 9 immoralOther immoralOther match m m 1 0.7109 
02-May-2018_14:25:08 Exp 7302 22 female R 1 3 10 moralSelf moralOther mismatch n n 1 0.8270 
02-May-2018_14:25:10 Exp 7302 22 female R 1 3 11 immoralSelf immoralSelf match m m 1 0.8571 
02-May-2018_14:25:12 Exp 7302 22 female R 1 3 12 moralSelf moralSelf match m n 0 0.8092 
02-May-2018_14:25:14 Exp 7302 22 female R 1 3 13 immoralSelf immoralSelf match m m 1 0.7213 
02-May-2018_14:25:16 Exp 7302 22 female R 1 3 14 immoralOther immoralSelf mismatch n n 1 0.8195 
02-May-2018_14:25:19 Exp 7302 22 female R 1 3 15 immoralSelf moralSelf mismatch n n 1 0.8896 
02-May-2018_14:25:21 Exp 7302 22 female R 1 3 16 moralOther moralOther match m m 1 0.5778 
02-May-2018_14:25:23 Exp 7302 22 female R 1 3 17 immoralSelf immoralSelf match m n 0 0.8799 
02-May-2018_14:25:25 Exp 7302 22 female R 1 3 18 moralOther moralSelf mismatch n n 1 0.6660 
02-May-2018_14:25:27 Exp 7302 22 female R 1 3 19 immoralSelf moralSelf mismatch n n 1 1.0081 
02-May-2018_14:25:30 Exp 7302 22 female R 1 3 20 immoralOther immoralSelf mismatch n n 1 0.8562 
02-May-2018_14:25:32 Exp 7302 22 female R 1 3 21 moralOther moralSelf mismatch n n 1 0.5444 
02-May-2018_14:25:34 Exp 7302 22 female R 1 3 22 moralSelf moralSelf match m m 1 0.6625 
02-May-2018_14:25:36 Exp 7302 22 female R 1 3 23 immoralOther immoralOther match m n 0 0.6846 
02-May-2018_14:25:38 Exp 7302 22 female R 1 3 24 moralSelf moralSelf match m m 1 0.9027 
02-May-2018_14:25:53 Exp 7302 22 female R 1 4 1 immoralSelf immoralSelf match m m 1 0.8236 
02-May-2018_14:25:55 Exp 7302 22 female R 1 4 2 moralOther immoralOther mismatch n n 1 0.6137 
02-May-2018_14:25:57 Exp 7302 22 female R 1 4 3 moralSelf moralOther mismatch n m 0 0.7338 
02-May-2018_14:26:00 Exp 7302 22 female R 1 4 4 moralSelf moralSelf match m n 0 0.7419 
02-May-2018_14:26:02 Exp 7302 22 female R 1 4 5 immoralOther immoralOther match m m 1 0.6840 
02-May-2018_14:26:04 Exp 7302 22 female R 1 4 6 immoralOther immoralOther match m m 1 0.6062 
02-May-2018_14:26:06 Exp 7302 22 female R 1 4 7 immoralSelf moralOther mismatch n n 1 0.7842 
02-May-2018_14:26:08 Exp 7302 22 female R 1 4 8 moralOther moralOther match m m 1 0.5824 
02-May-2018_14:26:10 Exp 7302 22 female R 1 4 9 moralOther moralOther match m m 1 0.4126 
02-May-2018_14:26:11 Exp 7302 22 female R 1 4 10 moralSelf moralSelf match m m 1 0.5006 
02-May-2018_14:26:14 Exp 7302 22 female R 1 4 11 immoralSelf moralSelf mismatch n n 1 0.8507 
02-May-2018_14:26:16 Exp 7302 22 female R 1 4 12 moralSelf moralOther mismatch n n 1 0.9069 
02-May-2018_14:26:18 Exp 7302 22 female R 1 4 13 moralOther moralSelf mismatch n n 1 0.7210 
02-May-2018_14:26:20 Exp 7302 22 female R 1 4 14 immoralOther moralSelf mismatch n n 1 0.6351 
02-May-2018_14:26:22 Exp 7302 22 female R 1 4 15 immoralOther moralOther mismatch n n 1 0.8553 
02-May-2018_14:26:25 Exp 7302 22 female R 1 4 16 immoralSelf moralOther mismatch n n 1 0.7194 
02-May-2018_14:26:26 Exp 7302 22 female R 1 4 17 moralSelf moralOther mismatch n m 0 0.5214 
02-May-2018_14:26:28 Exp 7302 22 female R 1 4 18 moralSelf moralSelf match m m 1 0.6597 
02-May-2018_14:26:31 Exp 7302 22 female R 1 4 19 immoralSelf immoralSelf match m m 1 0.8097 
02-May-2018_14:26:33 Exp 7302 22 female R 1 4 20 immoralOther moralOther mismatch n n 1 0.6738 
02-May-2018_14:26:35 Exp 7302 22 female R 1 4 21 moralOther moralOther match m m 1 0.5340 
02-May-2018_14:26:37 Exp 7302 22 female R 1 4 22 moralOther immoralSelf mismatch n n 1 0.6141 
02-May-2018_14:26:39 Exp 7302 22 female R 1 4 23 immoralOther immoralOther match m m 1 0.6462 
02-May-2018_14:26:41 Exp 7302 22 female R 1 4 24 immoralSelf immoralSelf match m m 1 0.7763 
02-May-2018_14:26:43 Exp 7302 22 female R 1 5 1 moralOther immoralSelf mismatch n n 1 0.6964 
02-May-2018_14:26:45 Exp 7302 22 female R 1 5 2 moralOther moralOther match m n 0 0.8805 
02-May-2018_14:26:47 Exp 7302 22 female R 1 5 3 immoralOther immoralOther match m m 1 0.5546 
02-May-2018_14:26:49 Exp 7302 22 female R 1 5 4 moralSelf moralSelf match m m 1 0.9747 
02-May-2018_14:26:51 Exp 7302 22 female R 1 5 5 immoralSelf immoralSelf match m m 1 0.6149 
02-May-2018_14:26:53 Exp 7302 22 female R 1 5 6 moralOther moralOther match m m 1 0.6150 
02-May-2018_14:26:56 Exp 7302 22 female R 1 5 7 immoralOther immoralSelf mismatch n m 0 0.6552 
02-May-2018_14:26:58 Exp 7302 22 female R 1 5 8 immoralOther immoralOther match m m 1 0.6552 
02-May-2018_14:27:00 Exp 7302 22 female R 1 5 9 immoralOther moralSelf mismatch n n 1 0.5994 
02-May-2018_14:27:02 Exp 7302 22 female R 1 5 10 moralSelf immoralSelf mismatch n m 0 0.6495 
02-May-2018_14:27:04 Exp 7302 22 female R 1 5 11 moralOther immoralOther mismatch n n 1 0.6736 
02-May-2018_14:27:06 Exp 7302 22 female R 1 5 12 immoralOther moralSelf mismatch n n 1 0.7737 
02-May-2018_14:27:08 Exp 7302 22 female R 1 5 13 immoralSelf moralOther mismatch n n 1 0.7338 
02-May-2018_14:27:10 Exp 7302 22 female R 1 5 14 moralSelf immoralOther mismatch n n 1 0.7340 
02-May-2018_14:27:12 Exp 7302 22 female R 1 5 15 immoralSelf immoralSelf match m m 1 0.6221 
02-May-2018_14:27:14 Exp 7302 22 female R 1 5 16 immoralSelf immoralSelf match m m 1 0.5482 
02-May-2018_14:27:16 Exp 7302 22 female R 1 5 17 immoralSelf moralOther mismatch n n 1 0.5923 
02-May-2018_14:27:18 Exp 7302 22 female R 1 5 18 moralOther immoralOther mismatch n n 1 0.6445 
02-May-2018_14:27:20 Exp 7302 22 female R 1 5 19 immoralSelf immoralOther mismatch n n 1 0.4385 
02-May-2018_14:27:22 Exp 7302 22 female R 1 5 20 immoralOther immoralOther match m m 1 0.7766 
02-May-2018_14:27:24 Exp 7302 22 female R 1 5 21 moralSelf moralSelf match m m 1 0.7527 
02-May-2018_14:27:26 Exp 7302 22 female R 1 5 22 moralSelf moralSelf match m m 1 0.5169 
02-May-2018_14:27:28 Exp 7302 22 female R 1 5 23 moralOther moralOther match m m 1 0.6570 
02-May-2018_14:27:30 Exp 7302 22 female R 1 5 24 moralSelf moralOther mismatch n n 1 0.8091 
02-May-2018_14:27:35 Exp 7302 22 female R 2 1 1 moralOther moralOther match m m 1 0.7233 
02-May-2018_14:27:38 Exp 7302 22 female R 2 1 2 moralOther immoralSelf mismatch n n 1 0.9175 
02-May-2018_14:27:40 Exp 7302 22 female R 2 1 3 immoralSelf moralOther mismatch n n 1 0.7036 
02-May-2018_14:27:42 Exp 7302 22 female R 2 1 4 immoralOther moralOther mismatch n n 1 0.6777 
02-May-2018_14:27:44 Exp 7302 22 female R 2 1 5 immoralSelf moralOther mismatch n n 1 0.7278 
02-May-2018_14:27:46 Exp 7302 22 female R 2 1 6 moralOther immoralSelf mismatch n n 1 0.6960 
02-May-2018_14:27:48 Exp 7302 22 female R 2 1 7 immoralOther moralSelf mismatch n n 1 0.8401 
02-May-2018_14:27:50 Exp 7302 22 female R 2 1 8 immoralSelf moralSelf mismatch n n 1 0.7543 
02-May-2018_14:27:52 Exp 7302 22 female R 2 1 9 moralSelf moralSelf match m m 1 0.6304 
02-May-2018_14:27:54 Exp 7302 22 female R 2 1 10 moralOther moralOther match m m 1 0.5224 
02-May-2018_14:27:56 Exp 7302 22 female R 2 1 11 immoralSelf immoralSelf match m n 0 0.6446 
02-May-2018_14:27:59 Exp 7302 22 female R 2 1 12 moralSelf moralOther mismatch n n 1 0.8867 
02-May-2018_14:28:01 Exp 7302 22 female R 2 1 13 immoralOther immoralOther match m m 1 0.7048 
02-May-2018_14:28:03 Exp 7302 22 female R 2 1 14 immoralSelf immoralSelf match m n 0 0.7030 
02-May-2018_14:28:05 Exp 7302 22 female R 2 1 15 moralOther moralSelf mismatch n n 1 0.6690 
02-May-2018_14:28:07 Exp 7302 22 female R 2 1 16 immoralSelf immoralSelf match m m 1 0.6172 
02-May-2018_14:28:09 Exp 7302 22 female R 2 1 17 moralOther moralOther match m m 1 0.6233 
02-May-2018_14:28:11 Exp 7302 22 female R 2 1 18 immoralOther immoralOther match m m 1 0.5735 
02-May-2018_14:28:13 Exp 7302 22 female R 2 1 19 moralSelf moralSelf match m m 1 0.6936 
02-May-2018_14:28:15 Exp 7302 22 female R 2 1 20 moralSelf immoralSelf mismatch n m 0 1.0136 
02-May-2018_14:28:18 Exp 7302 22 female R 2 1 21 immoralOther immoralSelf mismatch n n 1 0.8218 
02-May-2018_14:28:20 Exp 7302 22 female R 2 1 22 immoralOther immoralOther match m m 1 0.6439 
02-May-2018_14:28:22 Exp 7302 22 female R 2 1 23 moralSelf moralOther mismatch n m 0 0.7100 
02-May-2018_14:28:24 Exp 7302 22 female R 2 1 24 moralSelf moralSelf match m m 1 0.9141 
02-May-2018_14:28:26 Exp 7302 22 female R 2 2 1 immoralOther moralSelf mismatch n n 1 0.7343 
02-May-2018_14:28:28 Exp 7302 22 female R 2 2 2 moralSelf immoralOther mismatch n n 1 0.6464 
02-May-2018_14:28:30 Exp 7302 22 female R 2 2 3 moralOther immoralOther mismatch n m 0 0.5765 
02-May-2018_14:28:32 Exp 7302 22 female R 2 2 4 moralSelf moralSelf match m m 1 0.6566 
02-May-2018_14:28:34 Exp 7302 22 female R 2 2 5 immoralSelf immoralSelf match m m 1 0.8089 
02-May-2018_14:28:36 Exp 7302 22 female R 2 2 6 immoralOther immoralOther match m m 1 0.6248 
02-May-2018_14:28:38 Exp 7302 22 female R 2 2 7 moralSelf moralSelf match m m 1 0.7109 
02-May-2018_14:28:40 Exp 7302 22 female R 2 2 8 moralOther moralOther match m m 1 0.6191 
02-May-2018_14:28:42 Exp 7302 22 female R 2 2 9 moralOther moralOther match m m 1 0.4171 
02-May-2018_14:28:44 Exp 7302 22 female R 2 2 10 moralOther moralOther match m m 1 0.4333 
02-May-2018_14:28:46 Exp 7302 22 female R 2 2 11 immoralSelf immoralOther mismatch n n 1 0.6934 
02-May-2018_14:28:48 Exp 7302 22 female R 2 2 12 moralOther moralSelf mismatch n n 1 0.7015 
02-May-2018_14:28:50 Exp 7302 22 female R 2 2 13 immoralOther immoralOther match m m 1 0.5717 
02-May-2018_14:28:53 Exp 7302 22 female R 2 2 14 immoralOther moralOther mismatch n n 1 0.9557 
02-May-2018_14:28:55 Exp 7302 22 female R 2 2 15 moralSelf moralOther mismatch n n 1 0.7838 
02-May-2018_14:28:57 Exp 7302 22 female R 2 2 16 immoralSelf moralSelf mismatch n n 1 0.8540 
02-May-2018_14:28:59 Exp 7302 22 female R 2 2 17 immoralSelf immoralSelf match m n 0 0.9501 
02-May-2018_14:29:01 Exp 7302 22 female R 2 2 18 moralSelf immoralOther mismatch n n 1 0.7062 
02-May-2018_14:29:03 Exp 7302 22 female R 2 2 19 immoralSelf immoralSelf match m m 1 0.6644 
02-May-2018_14:29:06 Exp 7302 22 female R 2 2 20 moralSelf moralSelf match m m 1 0.7664 
02-May-2018_14:29:08 Exp 7302 22 female R 2 2 21 immoralSelf moralOther mismatch n n 1 0.6406 
02-May-2018_14:29:10 Exp 7302 22 female R 2 2 22 moralOther immoralSelf mismatch n n 1 0.6827 
02-May-2018_14:29:12 Exp 7302 22 female R 2 2 23 immoralOther immoralSelf mismatch n n 1 0.8848 
02-May-2018_14:29:14 Exp 7302 22 female R 2 2 24 immoralOther immoralOther match m m 1 0.6469 
02-May-2018_14:29:16 Exp 7302 22 female R 2 3 1 immoralOther immoralOther match m m 1 0.4731 
02-May-2018_14:29:18 Exp 7302 22 female R 2 3 2 moralOther immoralOther mismatch n m 0 0.3812 
02-May-2018_14:29:20 Exp 7302 22 female R 2 3 3 moralSelf moralSelf match m m 1 0.5952 
02-May-2018_14:29:22 Exp 7302 22 female R 2 3 4 immoralOther immoralOther match m m 1 0.8074 
02-May-2018_14:29:24 Exp 7302 22 female R 2 3 5 immoralSelf immoralOther mismatch n n 1 0.5675 
02-May-2018_14:29:26 Exp 7302 22 female R 2 3 6 moralSelf immoralSelf mismatch n n 1 0.8476 
02-May-2018_14:29:28 Exp 7302 22 female R 2 3 7 immoralOther moralOther mismatch n n 1 0.7278 
02-May-2018_14:29:30 Exp 7302 22 female R 2 3 8 immoralSelf immoralSelf match m m 1 0.6079 
02-May-2018_14:29:33 Exp 7302 22 female R 2 3 9 immoralSelf immoralSelf match m NA -1 1.0420 
02-May-2018_14:29:35 Exp 7302 22 female R 2 3 10 moralSelf immoralOther mismatch n n 1 0.6901 
02-May-2018_14:29:37 Exp 7302 22 female R 2 3 11 immoralOther moralSelf mismatch n n 1 0.9862 
02-May-2018_14:29:39 Exp 7302 22 female R 2 3 12 moralOther moralSelf mismatch n n 1 0.7924 
02-May-2018_14:29:41 Exp 7302 22 female R 2 3 13 immoralSelf immoralOther mismatch n n 1 0.7325 
02-May-2018_14:29:43 Exp 7302 22 female R 2 3 14 immoralOther immoralOther match m n 0 0.5727 
02-May-2018_14:29:45 Exp 7302 22 female R 2 3 15 moralOther immoralSelf mismatch n n 1 0.8048 
02-May-2018_14:29:48 Exp 7302 22 female R 2 3 16 moralSelf moralOther mismatch n n 1 0.6549 
02-May-2018_14:29:50 Exp 7302 22 female R 2 3 17 moralSelf moralSelf match m m 1 0.6631 
02-May-2018_14:29:52 Exp 7302 22 female R 2 3 18 immoralOther immoralSelf mismatch n NA -1 1.0420 
02-May-2018_14:29:54 Exp 7302 22 female R 2 3 19 immoralSelf immoralOther mismatch n n 1 0.7672 
02-May-2018_14:29:56 Exp 7302 22 female R 2 3 20 moralSelf moralSelf match m m 1 0.7353 
02-May-2018_14:29:58 Exp 7302 22 female R 2 3 21 moralOther moralOther match m m 1 0.5515 
02-May-2018_14:30:00 Exp 7302 22 female R 2 3 22 immoralSelf immoralSelf match m m 1 0.6276 
02-May-2018_14:30:02 Exp 7302 22 female R 2 3 23 moralOther moralOther match m m 1 0.5277 
02-May-2018_14:30:04 Exp 7302 22 female R 2 3 24 moralOther moralOther match m m 1 0.4878 
02-May-2018_14:30:19 Exp 7302 22 female R 2 4 1 moralSelf moralSelf match m m 1 0.5327 
02-May-2018_14:30:21 Exp 7302 22 female R 2 4 2 immoralSelf immoralSelf match m m 1 0.6848 
02-May-2018_14:30:23 Exp 7302 22 female R 2 4 3 moralOther moralOther match m m 1 0.4549 
02-May-2018_14:30:25 Exp 7302 22 female R 2 4 4 immoralOther immoralOther match m m 1 0.5350 
02-May-2018_14:30:27 Exp 7302 22 female R 2 4 5 moralOther immoralOther mismatch n n 1 0.5831 
02-May-2018_14:30:29 Exp 7302 22 female R 2 4 6 moralSelf immoralSelf mismatch n n 1 0.7973 
02-May-2018_14:30:31 Exp 7302 22 female R 2 4 7 immoralOther immoralOther match m m 1 0.5433 
02-May-2018_14:30:33 Exp 7302 22 female R 2 4 8 moralSelf immoralOther mismatch n n 1 0.5974 
02-May-2018_14:30:35 Exp 7302 22 female R 2 4 9 immoralOther moralSelf mismatch n n 1 0.6796 
02-May-2018_14:30:38 Exp 7302 22 female R 2 4 10 moralSelf immoralOther mismatch n n 1 0.8337 
02-May-2018_14:30:40 Exp 7302 22 female R 2 4 11 immoralSelf moralSelf mismatch n m 0 0.5898 
02-May-2018_14:30:42 Exp 7302 22 female R 2 4 12 moralOther immoralOther mismatch n n 1 0.6259 
02-May-2018_14:30:44 Exp 7302 22 female R 2 4 13 immoralSelf immoralSelf match m m 1 0.7600 
02-May-2018_14:30:46 Exp 7302 22 female R 2 4 14 immoralOther moralOther mismatch n n 1 0.6662 
02-May-2018_14:30:48 Exp 7302 22 female R 2 4 15 moralOther moralOther match m m 1 0.6003 
02-May-2018_14:30:50 Exp 7302 22 female R 2 4 16 moralSelf moralSelf match m n 0 0.7144 
02-May-2018_14:30:52 Exp 7302 22 female R 2 4 17 moralOther moralOther match m m 1 0.7025 
02-May-2018_14:30:54 Exp 7302 22 female R 2 4 18 immoralOther moralSelf mismatch n n 1 0.6766 
02-May-2018_14:30:56 Exp 7302 22 female R 2 4 19 immoralSelf immoralOther mismatch n n 1 0.8327 
02-May-2018_14:30:58 Exp 7302 22 female R 2 4 20 immoralOther immoralOther match m m 1 0.7649 
02-May-2018_14:31:01 Exp 7302 22 female R 2 4 21 immoralSelf immoralSelf match m m 1 0.7991 
02-May-2018_14:31:03 Exp 7302 22 female R 2 4 22 moralSelf moralSelf match m m 1 0.6411 
02-May-2018_14:31:05 Exp 7302 22 female R 2 4 23 immoralSelf moralOther mismatch n n 1 0.6912 
02-May-2018_14:31:07 Exp 7302 22 female R 2 4 24 moralOther immoralOther mismatch n n 1 0.6434 
02-May-2018_14:31:09 Exp 7302 22 female R 2 5 1 moralOther moralOther match m m 1 0.8215 
02-May-2018_14:31:11 Exp 7302 22 female R 2 5 2 moralSelf immoralSelf mismatch n n 1 0.7476 
02-May-2018_14:31:13 Exp 7302 22 female R 2 5 3 moralSelf immoralOther mismatch n n 1 0.8797 
02-May-2018_14:31:15 Exp 7302 22 female R 2 5 4 moralOther moralOther match m m 1 0.6258 
02-May-2018_14:31:17 Exp 7302 22 female R 2 5 5 immoralOther moralOther mismatch n m 0 0.6160 
02-May-2018_14:31:20 Exp 7302 22 female R 2 5 6 immoralOther immoralOther match m n 0 0.9041 
02-May-2018_14:31:22 Exp 7302 22 female R 2 5 7 moralOther immoralSelf mismatch n n 1 0.6702 
02-May-2018_14:31:24 Exp 7302 22 female R 2 5 8 moralSelf moralSelf match m m 1 0.6423 
02-May-2018_14:31:26 Exp 7302 22 female R 2 5 9 immoralSelf moralSelf mismatch n n 1 0.7164 
02-May-2018_14:31:28 Exp 7302 22 female R 2 5 10 immoralSelf immoralOther mismatch n n 1 0.8245 
02-May-2018_14:31:30 Exp 7302 22 female R 2 5 11 immoralSelf moralOther mismatch n n 1 0.6947 
02-May-2018_14:31:32 Exp 7302 22 female R 2 5 12 immoralSelf immoralSelf match m n 0 0.6229 
02-May-2018_14:31:34 Exp 7302 22 female R 2 5 13 immoralOther moralSelf mismatch n n 1 0.6849 
02-May-2018_14:31:36 Exp 7302 22 female R 2 5 14 immoralOther immoralOther match m m 1 0.7510 
02-May-2018_14:31:39 Exp 7302 22 female R 2 5 15 immoralOther moralSelf mismatch n n 1 0.8111 
02-May-2018_14:31:41 Exp 7302 22 female R 2 5 16 moralSelf moralOther mismatch n n 1 0.7233 
02-May-2018_14:31:43 Exp 7302 22 female R 2 5 17 moralOther immoralSelf mismatch n n 1 0.8134 
02-May-2018_14:31:45 Exp 7302 22 female R 2 5 18 moralOther moralOther match m m 1 0.7335 
02-May-2018_14:31:47 Exp 7302 22 female R 2 5 19 immoralSelf immoralSelf match m m 1 0.7816 
02-May-2018_14:31:49 Exp 7302 22 female R 2 5 20 moralSelf moralSelf match m m 1 0.6757 
02-May-2018_14:31:51 Exp 7302 22 female R 2 5 21 moralSelf moralSelf match m m 1 0.5516 
02-May-2018_14:31:53 Exp 7302 22 female R 2 5 22 immoralSelf immoralSelf match m m 1 0.7800 
02-May-2018_14:31:56 Exp 7302 22 female R 2 5 23 moralOther immoralOther mismatch n n 1 0.8421 
02-May-2018_14:31:58 Exp 7302 22 female R 2 5 24 immoralOther immoralOther match m m 1 0.6523 
02-May-2018_14:32:03 Exp 7302 22 female R 3 1 1 moralOther moralOther match m m 1 0.5825 
02-May-2018_14:32:05 Exp 7302 22 female R 3 1 2 immoralOther immoralOther match m m 1 0.7726 
02-May-2018_14:32:07 Exp 7302 22 female R 3 1 3 immoralOther immoralOther match m m 1 0.5407 
02-May-2018_14:32:09 Exp 7302 22 female R 3 1 4 moralSelf moralOther mismatch n n 1 0.7548 
02-May-2018_14:32:11 Exp 7302 22 female R 3 1 5 immoralSelf immoralSelf match m m 1 0.8230 
02-May-2018_14:32:13 Exp 7302 22 female R 3 1 6 immoralSelf moralOther mismatch n n 1 0.8051 
02-May-2018_14:32:15 Exp 7302 22 female R 3 1 7 immoralOther moralOther mismatch n n 1 0.7352 
02-May-2018_14:32:17 Exp 7302 22 female R 3 1 8 immoralSelf immoralSelf match m m 1 0.6634 
02-May-2018_14:32:19 Exp 7302 22 female R 3 1 9 immoralOther immoralSelf mismatch n n 1 0.7255 
02-May-2018_14:32:22 Exp 7302 22 female R 3 1 10 moralOther moralSelf mismatch n n 1 0.7596 
02-May-2018_14:32:24 Exp 7302 22 female R 3 1 11 immoralOther immoralOther match m m 1 0.6657 
02-May-2018_14:32:26 Exp 7302 22 female R 3 1 12 moralSelf immoralOther mismatch n n 1 0.6478 
02-May-2018_14:32:28 Exp 7302 22 female R 3 1 13 moralOther moralSelf mismatch n n 1 0.8559 
02-May-2018_14:32:30 Exp 7302 22 female R 3 1 14 moralSelf moralOther mismatch n n 1 0.6961 
02-May-2018_14:32:32 Exp 7302 22 female R 3 1 15 moralSelf moralSelf match m NA -1 1.0420 
02-May-2018_14:32:34 Exp 7302 22 female R 3 1 16 moralSelf moralSelf match m n 0 0.5864 
02-May-2018_14:32:36 Exp 7302 22 female R 3 1 17 moralOther moralOther match m m 1 0.6484 
02-May-2018_14:32:39 Exp 7302 22 female R 3 1 18 moralSelf moralSelf match m m 1 0.7446 
02-May-2018_14:32:41 Exp 7302 22 female R 3 1 19 immoralOther immoralSelf mismatch n n 1 0.7027 
02-May-2018_14:32:43 Exp 7302 22 female R 3 1 20 immoralSelf moralOther mismatch n n 1 0.6928 
02-May-2018_14:32:45 Exp 7302 22 female R 3 1 21 immoralSelf immoralSelf match m m 1 0.4849 
02-May-2018_14:32:47 Exp 7302 22 female R 3 1 22 immoralSelf moralOther mismatch n n 1 0.5990 
02-May-2018_14:32:49 Exp 7302 22 female R 3 1 23 moralOther moralSelf mismatch n n 1 0.8572 
02-May-2018_14:32:51 Exp 7302 22 female R 3 1 24 moralOther moralOther match m n 0 0.5433 
02-May-2018_14:32:53 Exp 7302 22 female R 3 2 1 moralOther immoralOther mismatch n n 1 0.6774 
02-May-2018_14:32:55 Exp 7302 22 female R 3 2 2 moralSelf moralSelf match m m 1 0.5915 
02-May-2018_14:32:57 Exp 7302 22 female R 3 2 3 immoralOther immoralSelf mismatch n n 1 0.7156 
02-May-2018_14:32:59 Exp 7302 22 female R 3 2 4 immoralOther immoralOther match m m 1 0.5757 
02-May-2018_14:33:01 Exp 7302 22 female R 3 2 5 moralOther moralOther match m m 1 0.6719 
02-May-2018_14:33:03 Exp 7302 22 female R 3 2 6 moralSelf moralSelf match m m 1 0.6359 
02-May-2018_14:33:05 Exp 7302 22 female R 3 2 7 immoralSelf immoralSelf match m m 1 0.5040 
02-May-2018_14:33:07 Exp 7302 22 female R 3 2 8 moralOther moralOther match m m 1 0.5742 
02-May-2018_14:33:09 Exp 7302 22 female R 3 2 9 moralOther immoralOther mismatch n m 0 0.5662 
02-May-2018_14:33:11 Exp 7302 22 female R 3 2 10 immoralSelf immoralSelf match m m 1 0.5844 
02-May-2018_14:33:13 Exp 7302 22 female R 3 2 11 moralOther immoralSelf mismatch n n 1 0.6546 
02-May-2018_14:33:15 Exp 7302 22 female R 3 2 12 immoralSelf immoralSelf match m m 1 0.5906 
02-May-2018_14:33:17 Exp 7302 22 female R 3 2 13 moralSelf immoralOther mismatch n n 1 0.8028 
02-May-2018_14:33:19 Exp 7302 22 female R 3 2 14 immoralSelf immoralOther mismatch n m 0 0.6448 
02-May-2018_14:33:21 Exp 7302 22 female R 3 2 15 moralSelf moralOther mismatch n n 1 0.7029 
02-May-2018_14:33:23 Exp 7302 22 female R 3 2 16 moralSelf moralOther mismatch n n 1 0.6451 
02-May-2018_14:33:25 Exp 7302 22 female R 3 2 17 immoralSelf immoralOther mismatch n n 1 0.7272 
02-May-2018_14:33:27 Exp 7302 22 female R 3 2 18 moralOther moralOther match m m 1 0.6233 
02-May-2018_14:33:29 Exp 7302 22 female R 3 2 19 immoralOther immoralSelf mismatch n m 0 0.6935 
02-May-2018_14:33:31 Exp 7302 22 female R 3 2 20 immoralOther immoralOther match m m 1 0.6455 
02-May-2018_14:33:33 Exp 7302 22 female R 3 2 21 immoralOther moralSelf mismatch n n 1 0.6877 
02-May-2018_14:33:35 Exp 7302 22 female R 3 2 22 immoralOther immoralOther match m m 1 0.6558 
02-May-2018_14:33:38 Exp 7302 22 female R 3 2 23 immoralSelf moralOther mismatch n n 1 0.6879 
02-May-2018_14:33:40 Exp 7302 22 female R 3 2 24 moralSelf moralSelf match m n 0 0.7681 
02-May-2018_14:33:42 Exp 7302 22 female R 3 3 1 immoralSelf immoralOther mismatch n m 0 0.7201 
02-May-2018_14:33:44 Exp 7302 22 female R 3 3 2 immoralOther immoralOther match m m 1 0.6262 
02-May-2018_14:33:46 Exp 7302 22 female R 3 3 3 immoralSelf immoralSelf match m m 1 0.7044 
02-May-2018_14:33:48 Exp 7302 22 female R 3 3 4 immoralOther immoralOther match m m 1 0.5825 
02-May-2018_14:33:50 Exp 7302 22 female R 3 3 5 moralOther immoralOther mismatch n n 1 0.8366 
02-May-2018_14:33:52 Exp 7302 22 female R 3 3 6 immoralOther immoralSelf mismatch n n 1 0.7687 
02-May-2018_14:33:54 Exp 7302 22 female R 3 3 7 immoralOther moralOther mismatch n n 1 0.6648 
02-May-2018_14:33:56 Exp 7302 22 female R 3 3 8 immoralSelf immoralOther mismatch n m 0 0.6230 
02-May-2018_14:33:59 Exp 7302 22 female R 3 3 9 immoralOther immoralSelf mismatch n n 1 0.8054 
02-May-2018_14:34:01 Exp 7302 22 female R 3 3 10 immoralSelf immoralOther mismatch n n 1 0.7272 
02-May-2018_14:34:03 Exp 7302 22 female R 3 3 11 immoralSelf immoralSelf match m m 1 0.6633 
02-May-2018_14:34:05 Exp 7302 22 female R 3 3 12 moralOther moralOther match m m 1 0.6774 
02-May-2018_14:34:07 Exp 7302 22 female R 3 3 13 moralSelf moralSelf match m m 1 0.7595 
02-May-2018_14:34:09 Exp 7302 22 female R 3 3 14 moralOther moralOther match m m 1 0.6416 
02-May-2018_14:34:11 Exp 7302 22 female R 3 3 15 moralSelf immoralOther mismatch n n 1 0.7878 
02-May-2018_14:34:13 Exp 7302 22 female R 3 3 16 moralSelf moralSelf match m m 1 0.5839 
02-May-2018_14:34:15 Exp 7302 22 female R 3 3 17 moralSelf moralSelf match m m 1 0.6141 
02-May-2018_14:34:17 Exp 7302 22 female R 3 3 18 moralOther moralOther match m m 1 0.6781 
02-May-2018_14:34:19 Exp 7302 22 female R 3 3 19 immoralSelf immoralSelf match m m 1 0.6402 
02-May-2018_14:34:21 Exp 7302 22 female R 3 3 20 moralSelf immoralOther mismatch n n 1 0.6744 
02-May-2018_14:34:24 Exp 7302 22 female R 3 3 21 immoralOther immoralOther match m m 1 0.8785 
02-May-2018_14:34:26 Exp 7302 22 female R 3 3 22 moralOther immoralSelf mismatch n n 1 0.7526 
02-May-2018_14:34:28 Exp 7302 22 female R 3 3 23 moralOther immoralSelf mismatch n n 1 0.8447 
02-May-2018_14:34:30 Exp 7302 22 female R 3 3 24 moralSelf immoralSelf mismatch n m 0 0.6229 
02-May-2018_14:34:40 Exp 7302 22 female R 3 4 1 immoralOther immoralOther match m n 0 0.7675 
02-May-2018_14:34:42 Exp 7302 22 female R 3 4 2 moralOther moralOther match m m 1 0.5276 
02-May-2018_14:34:45 Exp 7302 22 female R 3 4 3 immoralOther immoralOther match m m 1 0.8237 
02-May-2018_14:34:47 Exp 7302 22 female R 3 4 4 immoralSelf moralSelf mismatch n n 1 0.9900 
02-May-2018_14:34:49 Exp 7302 22 female R 3 4 5 moralOther moralOther match m m 1 0.7619 
02-May-2018_14:34:51 Exp 7302 22 female R 3 4 6 moralSelf moralOther mismatch n n 1 0.7082 
02-May-2018_14:34:53 Exp 7302 22 female R 3 4 7 immoralOther immoralOther match m m 1 0.7522 
02-May-2018_14:34:56 Exp 7302 22 female R 3 4 8 moralSelf moralSelf match m m 1 0.7803 
02-May-2018_14:34:58 Exp 7302 22 female R 3 4 9 immoralSelf immoralSelf match m m 1 0.6424 
02-May-2018_14:35:00 Exp 7302 22 female R 3 4 10 moralSelf moralOther mismatch n n 1 0.6765 
02-May-2018_14:35:02 Exp 7302 22 female R 3 4 11 moralSelf moralOther mismatch n n 1 0.8247 
02-May-2018_14:35:04 Exp 7302 22 female R 3 4 12 moralSelf moralSelf match m m 1 0.6549 
02-May-2018_14:35:06 Exp 7302 22 female R 3 4 13 immoralSelf immoralSelf match m m 1 0.6629 
02-May-2018_14:35:08 Exp 7302 22 female R 3 4 14 moralOther moralSelf mismatch n n 1 0.7330 
02-May-2018_14:35:10 Exp 7302 22 female R 3 4 15 immoralSelf immoralOther mismatch n n 1 0.7891 
02-May-2018_14:35:13 Exp 7302 22 female R 3 4 16 immoralOther moralSelf mismatch n NA -1 1.0420 
02-May-2018_14:35:15 Exp 7302 22 female R 3 4 17 immoralOther immoralSelf mismatch n NA -1 1.0420 
02-May-2018_14:35:17 Exp 7302 22 female R 3 4 18 immoralSelf immoralSelf match m m 1 0.6935 
02-May-2018_14:35:19 Exp 7302 22 female R 3 4 19 immoralOther moralOther mismatch n n 1 0.6377 
02-May-2018_14:35:21 Exp 7302 22 female R 3 4 20 moralOther moralSelf mismatch n n 1 0.7518 
02-May-2018_14:35:23 Exp 7302 22 female R 3 4 21 immoralSelf moralSelf mismatch n n 1 0.7239 
02-May-2018_14:35:25 Exp 7302 22 female R 3 4 22 moralOther immoralOther mismatch n n 1 0.6460 
02-May-2018_14:35:28 Exp 7302 22 female R 3 4 23 moralSelf moralSelf match m m 1 0.7361 
02-May-2018_14:35:30 Exp 7302 22 female R 3 4 24 moralOther moralOther match m m 1 0.6323 
02-May-2018_14:35:32 Exp 7302 22 female R 3 5 1 moralOther immoralSelf mismatch n n 1 0.7163 
02-May-2018_14:35:34 Exp 7302 22 female R 3 5 2 moralSelf moralOther mismatch n m 0 0.7205 
02-May-2018_14:35:36 Exp 7302 22 female R 3 5 3 moralOther moralOther match m m 1 0.6986 
02-May-2018_14:35:38 Exp 7302 22 female R 3 5 4 immoralOther moralSelf mismatch n n 1 0.6967 
02-May-2018_14:35:40 Exp 7302 22 female R 3 5 5 immoralSelf immoralOther mismatch n n 1 0.7288 
02-May-2018_14:35:42 Exp 7302 22 female R 3 5 6 moralSelf moralSelf match m m 1 0.6010 
02-May-2018_14:35:44 Exp 7302 22 female R 3 5 7 immoralOther immoralOther match m n 0 0.6431 
02-May-2018_14:35:46 Exp 7302 22 female R 3 5 8 moralOther immoralOther mismatch n n 1 0.6292 
02-May-2018_14:35:48 Exp 7302 22 female R 3 5 9 immoralSelf immoralSelf match m m 1 0.7373 
02-May-2018_14:35:50 Exp 7302 22 female R 3 5 10 immoralSelf moralOther mismatch n n 1 0.6874 
02-May-2018_14:35:52 Exp 7302 22 female R 3 5 11 moralOther moralOther match m m 1 0.6475 
02-May-2018_14:35:55 Exp 7302 22 female R 3 5 12 moralSelf moralSelf match m m 1 0.7757 
02-May-2018_14:35:57 Exp 7302 22 female R 3 5 13 moralSelf moralSelf match m m 1 0.6478 
02-May-2018_14:35:59 Exp 7302 22 female R 3 5 14 immoralOther immoralOther match m m 1 0.6399 
02-May-2018_14:36:01 Exp 7302 22 female R 3 5 15 immoralOther immoralOther match m m 1 0.5701 
02-May-2018_14:36:03 Exp 7302 22 female R 3 5 16 immoralOther moralSelf mismatch n n 1 0.6822 
02-May-2018_14:36:05 Exp 7302 22 female R 3 5 17 moralSelf immoralSelf mismatch n n 1 0.9402 
02-May-2018_14:36:07 Exp 7302 22 female R 3 5 18 moralOther moralOther match m m 1 0.5384 
02-May-2018_14:36:09 Exp 7302 22 female R 3 5 19 immoralOther immoralSelf mismatch n n 1 0.6165 
02-May-2018_14:36:11 Exp 7302 22 female R 3 5 20 moralOther moralSelf mismatch n n 1 0.6806 
02-May-2018_14:36:13 Exp 7302 22 female R 3 5 21 immoralSelf immoralSelf match m m 1 0.7307 
02-May-2018_14:36:15 Exp 7302 22 female R 3 5 22 moralSelf immoralSelf mismatch n n 1 0.7868 
02-May-2018_14:36:17 Exp 7302 22 female R 3 5 23 immoralSelf moralSelf mismatch n n 1 0.7850 
02-May-2018_14:36:19 Exp 7302 22 female R 3 5 24 immoralSelf immoralSelf match m m 1 0.6551 
