Date Prac Sub Age Sex Hand Block Bin Trial Shape Label Match CorrResp Resp ACC RT
19-May-2018_15:26:34 Exp 7324 19 female R 1 1 1 immoralOther immoralSelf mismatch n n 1 0.9157 
19-May-2018_15:26:36 Exp 7324 19 female R 1 1 2 moralSelf moralSelf match m m 1 0.8801 
19-May-2018_15:26:39 Exp 7324 19 female R 1 1 3 moralSelf immoralSelf mismatch n NA -1 1.1561 
19-May-2018_15:26:41 Exp 7324 19 female R 1 1 4 moralOther moralOther match m NA -1 1.1557 
19-May-2018_15:26:44 Exp 7324 19 female R 1 1 5 moralOther immoralSelf mismatch n n 1 1.0451 
19-May-2018_15:26:46 Exp 7324 19 female R 1 1 6 moralOther immoralSelf mismatch n n 1 0.7158 
19-May-2018_15:26:48 Exp 7324 19 female R 1 1 7 moralSelf immoralOther mismatch n n 1 0.9319 
19-May-2018_15:26:51 Exp 7324 19 female R 1 1 8 immoralSelf immoralSelf match m m 1 0.9842 
19-May-2018_15:26:53 Exp 7324 19 female R 1 1 9 immoralSelf moralOther mismatch n n 1 0.8935 
19-May-2018_15:26:56 Exp 7324 19 female R 1 1 10 immoralOther immoralSelf mismatch n n 1 0.9411 
19-May-2018_15:26:58 Exp 7324 19 female R 1 1 11 moralOther moralOther match m m 1 0.7577 
19-May-2018_15:27:00 Exp 7324 19 female R 1 1 12 immoralOther immoralOther match m m 1 1.0103 
19-May-2018_15:27:03 Exp 7324 19 female R 1 1 13 immoralSelf immoralOther mismatch n n 1 1.0444 
19-May-2018_15:27:06 Exp 7324 19 female R 1 1 14 moralOther moralOther match m NA -1 1.1561 
19-May-2018_15:27:08 Exp 7324 19 female R 1 1 15 immoralOther immoralOther match m n 0 0.9999 
19-May-2018_15:27:10 Exp 7324 19 female R 1 1 16 moralSelf moralSelf match m m 1 0.9656 
19-May-2018_15:27:13 Exp 7324 19 female R 1 1 17 immoralSelf immoralOther mismatch n n 1 0.8627 
19-May-2018_15:27:15 Exp 7324 19 female R 1 1 18 immoralOther moralSelf mismatch n n 1 1.1216 
19-May-2018_15:27:18 Exp 7324 19 female R 1 1 19 immoralSelf immoralSelf match m NA -1 1.1561 
19-May-2018_15:27:20 Exp 7324 19 female R 1 1 20 moralOther immoralOther mismatch n n 1 0.7265 
19-May-2018_15:27:22 Exp 7324 19 female R 1 1 21 moralSelf moralSelf match m m 1 0.6509 
19-May-2018_15:27:25 Exp 7324 19 female R 1 1 22 immoralSelf immoralSelf match m m 1 0.6575 
19-May-2018_15:27:27 Exp 7324 19 female R 1 1 23 immoralOther immoralOther match m NA -1 1.1561 
19-May-2018_15:27:30 Exp 7324 19 female R 1 1 24 moralSelf immoralOther mismatch n n 1 0.9692 
19-May-2018_15:27:32 Exp 7324 19 female R 1 2 1 moralOther moralOther match m m 1 1.0705 
19-May-2018_15:27:35 Exp 7324 19 female R 1 2 2 immoralSelf moralOther mismatch n n 1 0.9176 
19-May-2018_15:27:37 Exp 7324 19 female R 1 2 3 moralSelf immoralSelf mismatch n n 1 1.0217 
19-May-2018_15:27:39 Exp 7324 19 female R 1 2 4 immoralOther immoralSelf mismatch n n 1 0.7720 
19-May-2018_15:27:42 Exp 7324 19 female R 1 2 5 moralSelf moralSelf match m n 0 0.6850 
19-May-2018_15:27:44 Exp 7324 19 female R 1 2 6 immoralSelf immoralOther mismatch n m 0 0.8323 
19-May-2018_15:27:46 Exp 7324 19 female R 1 2 7 moralSelf moralOther mismatch n n 1 1.0668 
19-May-2018_15:27:49 Exp 7324 19 female R 1 2 8 moralOther immoralSelf mismatch n n 1 0.7658 
19-May-2018_15:27:51 Exp 7324 19 female R 1 2 9 moralOther moralSelf mismatch n n 1 0.6948 
19-May-2018_15:27:53 Exp 7324 19 female R 1 2 10 moralSelf moralSelf match m m 1 0.6944 
19-May-2018_15:27:56 Exp 7324 19 female R 1 2 11 immoralSelf immoralSelf match m m 1 1.1098 
19-May-2018_15:27:58 Exp 7324 19 female R 1 2 12 moralOther immoralOther mismatch n n 1 0.6178 
19-May-2018_15:28:00 Exp 7324 19 female R 1 2 13 moralSelf moralSelf match m n 0 0.8119 
19-May-2018_15:28:02 Exp 7324 19 female R 1 2 14 immoralSelf immoralSelf match m m 1 0.6778 
19-May-2018_15:28:05 Exp 7324 19 female R 1 2 15 moralOther moralOther match m NA -1 1.1561 
19-May-2018_15:28:07 Exp 7324 19 female R 1 2 16 immoralOther immoralOther match m m 1 0.7937 
19-May-2018_15:28:09 Exp 7324 19 female R 1 2 17 immoralSelf moralSelf mismatch n m 0 0.9153 
19-May-2018_15:28:12 Exp 7324 19 female R 1 2 18 immoralOther immoralOther match m m 1 0.8913 
19-May-2018_15:28:14 Exp 7324 19 female R 1 2 19 moralOther moralOther match m m 1 0.7070 
19-May-2018_15:28:17 Exp 7324 19 female R 1 2 20 immoralSelf immoralSelf match m m 1 1.0948 
19-May-2018_15:28:19 Exp 7324 19 female R 1 2 21 moralSelf moralOther mismatch n m 0 0.6065 
19-May-2018_15:28:21 Exp 7324 19 female R 1 2 22 immoralOther immoralOther match m m 1 0.7482 
19-May-2018_15:28:23 Exp 7324 19 female R 1 2 23 immoralOther moralSelf mismatch n m 0 0.8127 
19-May-2018_15:28:26 Exp 7324 19 female R 1 2 24 immoralOther moralSelf mismatch n n 1 1.0867 
19-May-2018_15:28:28 Exp 7324 19 female R 1 3 1 immoralSelf immoralSelf match m m 1 0.6783 
19-May-2018_15:28:30 Exp 7324 19 female R 1 3 2 immoralOther immoralOther match m n 0 0.8375 
19-May-2018_15:28:33 Exp 7324 19 female R 1 3 3 immoralSelf immoralOther mismatch n n 1 1.0560 
19-May-2018_15:28:35 Exp 7324 19 female R 1 3 4 moralSelf moralOther mismatch n m 0 0.8588 
19-May-2018_15:28:37 Exp 7324 19 female R 1 3 5 immoralSelf immoralSelf match m m 1 0.7177 
19-May-2018_15:28:40 Exp 7324 19 female R 1 3 6 immoralOther immoralOther match m m 1 0.8778 
19-May-2018_15:28:42 Exp 7324 19 female R 1 3 7 immoralSelf immoralSelf match m m 1 0.8370 
19-May-2018_15:28:44 Exp 7324 19 female R 1 3 8 moralOther moralOther match m m 1 0.9034 
19-May-2018_15:28:47 Exp 7324 19 female R 1 3 9 moralOther moralSelf mismatch n n 1 0.7953 
19-May-2018_15:28:49 Exp 7324 19 female R 1 3 10 immoralOther moralOther mismatch n n 1 0.8928 
19-May-2018_15:28:52 Exp 7324 19 female R 1 3 11 immoralOther immoralSelf mismatch n NA -1 1.1561 
19-May-2018_15:28:54 Exp 7324 19 female R 1 3 12 moralSelf immoralSelf mismatch n n 1 0.7213 
19-May-2018_15:28:56 Exp 7324 19 female R 1 3 13 immoralSelf immoralOther mismatch n n 1 0.7053 
19-May-2018_15:28:58 Exp 7324 19 female R 1 3 14 immoralOther immoralOther match m n 0 0.6451 
19-May-2018_15:29:00 Exp 7324 19 female R 1 3 15 immoralOther immoralSelf mismatch n n 1 0.8518 
19-May-2018_15:29:03 Exp 7324 19 female R 1 3 16 moralOther moralSelf mismatch n n 1 0.9545 
19-May-2018_15:29:05 Exp 7324 19 female R 1 3 17 moralSelf moralSelf match m m 1 0.7433 
19-May-2018_15:29:08 Exp 7324 19 female R 1 3 18 immoralSelf moralSelf mismatch n n 1 0.9679 
19-May-2018_15:29:10 Exp 7324 19 female R 1 3 19 moralOther moralOther match m m 1 0.9928 
19-May-2018_15:29:12 Exp 7324 19 female R 1 3 20 moralSelf moralSelf match m m 1 0.7304 
19-May-2018_15:29:14 Exp 7324 19 female R 1 3 21 moralOther moralOther match m n 0 0.6228 
19-May-2018_15:29:16 Exp 7324 19 female R 1 3 22 moralSelf moralSelf match m m 1 0.6289 
19-May-2018_15:29:19 Exp 7324 19 female R 1 3 23 moralOther moralSelf mismatch n m 0 0.7792 
19-May-2018_15:29:21 Exp 7324 19 female R 1 3 24 moralSelf immoralOther mismatch n n 1 0.9444 
19-May-2018_15:29:40 Exp 7324 19 female R 1 4 1 moralSelf moralSelf match m m 1 0.7104 
19-May-2018_15:29:42 Exp 7324 19 female R 1 4 2 immoralOther immoralOther match m n 0 0.8902 
19-May-2018_15:29:44 Exp 7324 19 female R 1 4 3 moralOther moralOther match m m 1 1.0135 
19-May-2018_15:29:47 Exp 7324 19 female R 1 4 4 immoralSelf moralOther mismatch n n 1 0.8235 
19-May-2018_15:29:49 Exp 7324 19 female R 1 4 5 immoralSelf immoralSelf match m m 1 0.8057 
19-May-2018_15:29:51 Exp 7324 19 female R 1 4 6 moralOther immoralSelf mismatch n n 1 0.8435 
19-May-2018_15:29:53 Exp 7324 19 female R 1 4 7 moralSelf moralSelf match m n 0 0.6699 
19-May-2018_15:29:56 Exp 7324 19 female R 1 4 8 immoralOther immoralSelf mismatch n n 1 0.7811 
19-May-2018_15:29:58 Exp 7324 19 female R 1 4 9 immoralOther immoralOther match m m 1 0.8183 
19-May-2018_15:30:00 Exp 7324 19 female R 1 4 10 moralOther moralOther match m m 1 0.6523 
19-May-2018_15:30:02 Exp 7324 19 female R 1 4 11 moralOther moralOther match m m 1 0.7789 
19-May-2018_15:30:05 Exp 7324 19 female R 1 4 12 immoralOther moralSelf mismatch n m 0 0.6722 
19-May-2018_15:30:07 Exp 7324 19 female R 1 4 13 immoralOther immoralOther match m m 1 0.7833 
19-May-2018_15:30:09 Exp 7324 19 female R 1 4 14 immoralSelf immoralSelf match m m 1 0.7166 
19-May-2018_15:30:11 Exp 7324 19 female R 1 4 15 moralSelf immoralOther mismatch n n 1 0.6606 
19-May-2018_15:30:14 Exp 7324 19 female R 1 4 16 moralOther moralSelf mismatch n m 0 1.0396 
19-May-2018_15:30:16 Exp 7324 19 female R 1 4 17 moralSelf moralSelf match m m 1 0.8100 
19-May-2018_15:30:18 Exp 7324 19 female R 1 4 18 immoralOther moralSelf mismatch n n 1 0.9641 
19-May-2018_15:30:21 Exp 7324 19 female R 1 4 19 immoralSelf immoralSelf match m m 1 0.8531 
19-May-2018_15:30:23 Exp 7324 19 female R 1 4 20 moralOther immoralSelf mismatch n n 1 0.7397 
19-May-2018_15:30:25 Exp 7324 19 female R 1 4 21 immoralSelf immoralOther mismatch n n 1 0.6043 
19-May-2018_15:30:27 Exp 7324 19 female R 1 4 22 immoralSelf moralSelf mismatch n n 1 0.6340 
19-May-2018_15:30:29 Exp 7324 19 female R 1 4 23 moralSelf immoralSelf mismatch n n 1 0.6685 
19-May-2018_15:30:31 Exp 7324 19 female R 1 4 24 moralSelf immoralSelf mismatch n n 1 0.4836 
19-May-2018_15:30:33 Exp 7324 19 female R 1 5 1 immoralOther moralSelf mismatch n n 1 0.6272 
19-May-2018_15:30:36 Exp 7324 19 female R 1 5 2 immoralOther moralOther mismatch n m 0 1.0254 
19-May-2018_15:30:38 Exp 7324 19 female R 1 5 3 moralSelf moralSelf match m m 1 0.7356 
19-May-2018_15:30:40 Exp 7324 19 female R 1 5 4 immoralSelf immoralSelf match m m 1 0.8359 
19-May-2018_15:30:43 Exp 7324 19 female R 1 5 5 moralSelf moralSelf match m n 0 0.6384 
19-May-2018_15:30:45 Exp 7324 19 female R 1 5 6 moralSelf moralOther mismatch n n 1 0.9528 
19-May-2018_15:30:47 Exp 7324 19 female R 1 5 7 moralOther immoralSelf mismatch n n 1 0.8056 
19-May-2018_15:30:50 Exp 7324 19 female R 1 5 8 moralOther moralOther match m m 1 1.0833 
19-May-2018_15:30:52 Exp 7324 19 female R 1 5 9 moralSelf moralOther mismatch n n 1 0.9027 
19-May-2018_15:30:54 Exp 7324 19 female R 1 5 10 immoralSelf immoralSelf match m n 0 0.6464 
19-May-2018_15:30:56 Exp 7324 19 female R 1 5 11 moralSelf moralSelf match m m 1 0.6450 
19-May-2018_15:30:59 Exp 7324 19 female R 1 5 12 moralOther moralOther match m m 1 0.9317 
19-May-2018_15:31:01 Exp 7324 19 female R 1 5 13 immoralSelf moralOther mismatch n n 1 0.7521 
19-May-2018_15:31:04 Exp 7324 19 female R 1 5 14 immoralSelf moralSelf mismatch n m 0 0.9808 
19-May-2018_15:31:06 Exp 7324 19 female R 1 5 15 immoralOther immoralOther match m m 1 1.0021 
19-May-2018_15:31:08 Exp 7324 19 female R 1 5 16 immoralOther immoralOther match m m 1 0.7438 
19-May-2018_15:31:11 Exp 7324 19 female R 1 5 17 moralOther immoralOther mismatch n n 1 0.8324 
19-May-2018_15:31:13 Exp 7324 19 female R 1 5 18 immoralSelf moralOther mismatch n n 1 0.7789 
19-May-2018_15:31:15 Exp 7324 19 female R 1 5 19 moralSelf moralOther mismatch n m 0 0.6002 
19-May-2018_15:31:17 Exp 7324 19 female R 1 5 20 immoralSelf immoralSelf match m m 1 0.8938 
19-May-2018_15:31:19 Exp 7324 19 female R 1 5 21 immoralOther immoralOther match m n 0 0.6055 
19-May-2018_15:31:21 Exp 7324 19 female R 1 5 22 immoralOther immoralSelf mismatch n n 1 0.5632 
19-May-2018_15:31:24 Exp 7324 19 female R 1 5 23 moralOther moralOther match m m 1 0.7321 
19-May-2018_15:31:26 Exp 7324 19 female R 1 5 24 moralOther immoralOther mismatch n n 1 0.6245 
19-May-2018_15:31:31 Exp 7324 19 female R 2 1 1 moralSelf immoralSelf mismatch n n 1 0.9396 
19-May-2018_15:31:33 Exp 7324 19 female R 2 1 2 moralOther moralOther match m m 1 0.7721 
19-May-2018_15:31:36 Exp 7324 19 female R 2 1 3 moralSelf moralSelf match m NA -1 1.1561 
19-May-2018_15:31:38 Exp 7324 19 female R 2 1 4 immoralSelf immoralSelf match m m 1 0.6943 
19-May-2018_15:31:41 Exp 7324 19 female R 2 1 5 moralOther immoralSelf mismatch n n 1 0.7178 
19-May-2018_15:31:43 Exp 7324 19 female R 2 1 6 immoralSelf immoralSelf match m m 1 0.7819 
19-May-2018_15:31:45 Exp 7324 19 female R 2 1 7 moralOther immoralOther mismatch n n 1 0.7071 
19-May-2018_15:31:47 Exp 7324 19 female R 2 1 8 moralOther moralOther match m m 1 0.7030 
19-May-2018_15:31:50 Exp 7324 19 female R 2 1 9 immoralOther immoralOther match m m 1 0.8908 
19-May-2018_15:31:52 Exp 7324 19 female R 2 1 10 immoralOther immoralSelf mismatch n n 1 0.7822 
19-May-2018_15:31:54 Exp 7324 19 female R 2 1 11 moralSelf moralOther mismatch n m 0 0.7155 
19-May-2018_15:31:56 Exp 7324 19 female R 2 1 12 immoralSelf immoralOther mismatch n m 0 0.5716 
19-May-2018_15:31:59 Exp 7324 19 female R 2 1 13 moralSelf moralSelf match m m 1 1.0446 
19-May-2018_15:32:01 Exp 7324 19 female R 2 1 14 moralSelf immoralOther mismatch n n 1 0.6433 
19-May-2018_15:32:03 Exp 7324 19 female R 2 1 15 moralSelf moralSelf match m m 1 0.8137 
19-May-2018_15:32:05 Exp 7324 19 female R 2 1 16 immoralSelf moralSelf mismatch n n 1 0.6957 
19-May-2018_15:32:07 Exp 7324 19 female R 2 1 17 immoralSelf moralSelf mismatch n m 0 0.7993 
19-May-2018_15:32:10 Exp 7324 19 female R 2 1 18 moralOther moralOther match m m 1 0.8930 
19-May-2018_15:32:12 Exp 7324 19 female R 2 1 19 moralOther immoralSelf mismatch n n 1 0.8526 
19-May-2018_15:32:14 Exp 7324 19 female R 2 1 20 immoralOther moralOther mismatch n n 1 0.6994 
19-May-2018_15:32:17 Exp 7324 19 female R 2 1 21 immoralOther immoralOther match m m 1 1.0909 
19-May-2018_15:32:19 Exp 7324 19 female R 2 1 22 immoralOther immoralSelf mismatch n n 1 0.8384 
19-May-2018_15:32:21 Exp 7324 19 female R 2 1 23 immoralOther immoralOther match m m 1 0.6248 
19-May-2018_15:32:24 Exp 7324 19 female R 2 1 24 immoralSelf immoralSelf match m m 1 0.9750 
19-May-2018_15:32:26 Exp 7324 19 female R 2 2 1 moralOther moralSelf mismatch n m 0 0.8486 
19-May-2018_15:32:28 Exp 7324 19 female R 2 2 2 moralSelf moralSelf match m m 1 0.6152 
19-May-2018_15:32:30 Exp 7324 19 female R 2 2 3 immoralOther moralOther mismatch n n 1 0.5931 
19-May-2018_15:32:33 Exp 7324 19 female R 2 2 4 immoralSelf immoralOther mismatch n n 1 0.8347 
19-May-2018_15:32:35 Exp 7324 19 female R 2 2 5 immoralSelf moralSelf mismatch n n 1 0.7331 
19-May-2018_15:32:37 Exp 7324 19 female R 2 2 6 moralSelf moralOther mismatch n n 1 0.5774 
19-May-2018_15:32:39 Exp 7324 19 female R 2 2 7 moralSelf moralSelf match m m 1 1.0146 
19-May-2018_15:32:42 Exp 7324 19 female R 2 2 8 moralOther immoralOther mismatch n n 1 0.8726 
19-May-2018_15:32:44 Exp 7324 19 female R 2 2 9 moralOther moralOther match m m 1 0.7117 
19-May-2018_15:32:47 Exp 7324 19 female R 2 2 10 moralOther immoralSelf mismatch n NA -1 1.1561 
19-May-2018_15:32:49 Exp 7324 19 female R 2 2 11 moralSelf immoralOther mismatch n n 1 0.7646 
19-May-2018_15:32:51 Exp 7324 19 female R 2 2 12 immoralOther immoralOther match m m 1 0.7658 
19-May-2018_15:32:53 Exp 7324 19 female R 2 2 13 moralOther moralOther match m n 0 0.6867 
19-May-2018_15:32:55 Exp 7324 19 female R 2 2 14 immoralSelf immoralSelf match m n 0 0.7701 
19-May-2018_15:32:58 Exp 7324 19 female R 2 2 15 immoralOther immoralOther match m n 0 0.7951 
19-May-2018_15:33:00 Exp 7324 19 female R 2 2 16 immoralOther moralSelf mismatch n n 1 0.7407 
19-May-2018_15:33:02 Exp 7324 19 female R 2 2 17 immoralOther immoralOther match m m 1 0.6932 
19-May-2018_15:33:04 Exp 7324 19 female R 2 2 18 moralSelf moralOther mismatch n m 0 0.6049 
19-May-2018_15:33:06 Exp 7324 19 female R 2 2 19 immoralSelf immoralSelf match m m 1 0.7226 
19-May-2018_15:33:08 Exp 7324 19 female R 2 2 20 moralSelf moralSelf match m m 1 0.6346 
19-May-2018_15:33:11 Exp 7324 19 female R 2 2 21 immoralSelf immoralOther mismatch n n 1 0.8531 
19-May-2018_15:33:13 Exp 7324 19 female R 2 2 22 immoralOther immoralSelf mismatch n n 1 0.7157 
19-May-2018_15:33:15 Exp 7324 19 female R 2 2 23 immoralSelf immoralSelf match m m 1 0.9159 
19-May-2018_15:33:18 Exp 7324 19 female R 2 2 24 moralOther moralOther match m n 0 0.8758 
19-May-2018_15:33:20 Exp 7324 19 female R 2 3 1 immoralSelf immoralSelf match m m 1 0.7273 
19-May-2018_15:33:22 Exp 7324 19 female R 2 3 2 moralOther moralOther match m m 1 0.9796 
19-May-2018_15:33:25 Exp 7324 19 female R 2 3 3 immoralSelf immoralOther mismatch n n 1 1.0329 
19-May-2018_15:33:27 Exp 7324 19 female R 2 3 4 moralOther immoralOther mismatch n n 1 0.6274 
19-May-2018_15:33:29 Exp 7324 19 female R 2 3 5 immoralSelf immoralSelf match m m 1 0.7855 
19-May-2018_15:33:32 Exp 7324 19 female R 2 3 6 immoralSelf immoralSelf match m m 1 0.8671 
19-May-2018_15:33:34 Exp 7324 19 female R 2 3 7 immoralSelf immoralOther mismatch n n 1 0.8940 
19-May-2018_15:33:36 Exp 7324 19 female R 2 3 8 moralSelf moralSelf match m m 1 0.8534 
19-May-2018_15:33:39 Exp 7324 19 female R 2 3 9 moralSelf immoralOther mismatch n n 1 0.8362 
19-May-2018_15:33:41 Exp 7324 19 female R 2 3 10 immoralOther immoralOther match m n 0 0.6068 
19-May-2018_15:33:43 Exp 7324 19 female R 2 3 11 immoralOther immoralOther match m n 0 0.7324 
19-May-2018_15:33:45 Exp 7324 19 female R 2 3 12 moralSelf immoralSelf mismatch n n 1 0.8727 
19-May-2018_15:33:48 Exp 7324 19 female R 2 3 13 moralSelf moralOther mismatch n n 1 1.0958 
19-May-2018_15:33:50 Exp 7324 19 female R 2 3 14 moralOther moralSelf mismatch n m 0 0.8635 
19-May-2018_15:33:53 Exp 7324 19 female R 2 3 15 immoralSelf immoralOther mismatch n n 1 0.8344 
19-May-2018_15:33:55 Exp 7324 19 female R 2 3 16 moralSelf moralSelf match m m 1 0.9009 
19-May-2018_15:33:57 Exp 7324 19 female R 2 3 17 immoralOther moralOther mismatch n n 1 0.9245 
19-May-2018_15:34:00 Exp 7324 19 female R 2 3 18 moralOther moralOther match m m 1 0.8445 
19-May-2018_15:34:02 Exp 7324 19 female R 2 3 19 immoralOther moralOther mismatch n n 1 0.6193 
19-May-2018_15:34:04 Exp 7324 19 female R 2 3 20 moralSelf moralSelf match m m 1 0.5972 
19-May-2018_15:34:07 Exp 7324 19 female R 2 3 21 moralOther immoralOther mismatch n NA -1 1.1561 
19-May-2018_15:34:09 Exp 7324 19 female R 2 3 22 immoralOther moralSelf mismatch n n 1 0.6878 
19-May-2018_15:34:11 Exp 7324 19 female R 2 3 23 moralOther moralOther match m m 1 0.8831 
19-May-2018_15:34:13 Exp 7324 19 female R 2 3 24 immoralOther immoralOther match m m 1 0.7666 
19-May-2018_15:34:25 Exp 7324 19 female R 2 4 1 immoralOther immoralOther match m m 1 0.7039 
19-May-2018_15:34:28 Exp 7324 19 female R 2 4 2 moralSelf moralSelf match m m 1 0.6199 
19-May-2018_15:34:30 Exp 7324 19 female R 2 4 3 immoralOther moralSelf mismatch n n 1 0.6138 
19-May-2018_15:34:32 Exp 7324 19 female R 2 4 4 moralOther immoralOther mismatch n n 1 0.8317 
19-May-2018_15:34:34 Exp 7324 19 female R 2 4 5 moralOther moralOther match m m 1 0.7820 
19-May-2018_15:34:37 Exp 7324 19 female R 2 4 6 immoralSelf moralSelf mismatch n n 1 0.8512 
19-May-2018_15:34:39 Exp 7324 19 female R 2 4 7 moralOther moralOther match m m 1 0.6739 
19-May-2018_15:34:41 Exp 7324 19 female R 2 4 8 immoralSelf immoralSelf match m n 0 0.9210 
19-May-2018_15:34:43 Exp 7324 19 female R 2 4 9 moralSelf immoralOther mismatch n n 1 0.8171 
19-May-2018_15:34:46 Exp 7324 19 female R 2 4 10 immoralOther immoralOther match m m 1 0.8191 
19-May-2018_15:34:48 Exp 7324 19 female R 2 4 11 moralOther moralOther match m m 1 0.9490 
19-May-2018_15:34:50 Exp 7324 19 female R 2 4 12 moralSelf moralSelf match m m 1 0.7816 
19-May-2018_15:34:53 Exp 7324 19 female R 2 4 13 moralSelf immoralSelf mismatch n n 1 0.8589 
19-May-2018_15:34:55 Exp 7324 19 female R 2 4 14 moralOther moralSelf mismatch n n 1 0.7098 
19-May-2018_15:34:57 Exp 7324 19 female R 2 4 15 immoralOther immoralOther match m m 1 0.6736 
19-May-2018_15:34:59 Exp 7324 19 female R 2 4 16 moralSelf moralOther mismatch n m 0 0.6648 
19-May-2018_15:35:01 Exp 7324 19 female R 2 4 17 moralSelf moralSelf match m m 1 0.5797 
19-May-2018_15:35:04 Exp 7324 19 female R 2 4 18 immoralSelf immoralSelf match m m 1 0.8169 
19-May-2018_15:35:06 Exp 7324 19 female R 2 4 19 immoralOther moralSelf mismatch n n 1 0.6669 
19-May-2018_15:35:08 Exp 7324 19 female R 2 4 20 immoralOther moralSelf mismatch n m 0 0.6618 
19-May-2018_15:35:10 Exp 7324 19 female R 2 4 21 immoralSelf immoralOther mismatch n n 1 0.8727 
19-May-2018_15:35:13 Exp 7324 19 female R 2 4 22 moralOther moralSelf mismatch n n 1 0.9439 
19-May-2018_15:35:15 Exp 7324 19 female R 2 4 23 immoralSelf immoralOther mismatch n n 1 0.9284 
19-May-2018_15:35:17 Exp 7324 19 female R 2 4 24 immoralSelf immoralSelf match m m 1 0.8048 
19-May-2018_15:35:20 Exp 7324 19 female R 2 5 1 moralSelf moralSelf match m m 1 0.9027 
19-May-2018_15:35:22 Exp 7324 19 female R 2 5 2 immoralSelf moralOther mismatch n n 1 0.8385 
19-May-2018_15:35:24 Exp 7324 19 female R 2 5 3 moralOther moralSelf mismatch n n 1 0.8809 
19-May-2018_15:35:27 Exp 7324 19 female R 2 5 4 moralSelf moralOther mismatch n m 0 0.8042 
19-May-2018_15:35:29 Exp 7324 19 female R 2 5 5 immoralSelf immoralSelf match m n 0 0.8340 
19-May-2018_15:35:31 Exp 7324 19 female R 2 5 6 moralSelf moralSelf match m m 1 0.5884 
19-May-2018_15:35:33 Exp 7324 19 female R 2 5 7 immoralOther moralOther mismatch n n 1 0.8618 
19-May-2018_15:35:36 Exp 7324 19 female R 2 5 8 moralSelf immoralOther mismatch n n 1 0.7449 
19-May-2018_15:35:38 Exp 7324 19 female R 2 5 9 immoralSelf immoralOther mismatch n NA -1 1.1561 
19-May-2018_15:35:40 Exp 7324 19 female R 2 5 10 immoralOther moralOther mismatch n n 1 0.6621 
19-May-2018_15:35:43 Exp 7324 19 female R 2 5 11 moralOther moralSelf mismatch n m 0 0.8090 
19-May-2018_15:35:45 Exp 7324 19 female R 2 5 12 moralOther moralOther match m n 0 0.6110 
19-May-2018_15:35:47 Exp 7324 19 female R 2 5 13 immoralOther immoralOther match m m 1 0.7570 
19-May-2018_15:35:49 Exp 7324 19 female R 2 5 14 moralOther moralOther match m m 1 0.9857 
19-May-2018_15:35:52 Exp 7324 19 female R 2 5 15 moralSelf moralSelf match m m 1 0.6033 
19-May-2018_15:35:54 Exp 7324 19 female R 2 5 16 immoralOther immoralOther match m m 1 1.0011 
19-May-2018_15:35:56 Exp 7324 19 female R 2 5 17 immoralOther immoralOther match m m 1 0.7108 
19-May-2018_15:35:59 Exp 7324 19 female R 2 5 18 immoralSelf immoralOther mismatch n n 1 0.8346 
19-May-2018_15:36:01 Exp 7324 19 female R 2 5 19 immoralSelf immoralSelf match m m 1 0.6291 
19-May-2018_15:36:03 Exp 7324 19 female R 2 5 20 moralSelf immoralSelf mismatch n n 1 0.7393 
19-May-2018_15:36:05 Exp 7324 19 female R 2 5 21 moralOther immoralSelf mismatch n n 1 1.0439 
19-May-2018_15:36:08 Exp 7324 19 female R 2 5 22 immoralOther moralOther mismatch n n 1 0.8222 
19-May-2018_15:36:10 Exp 7324 19 female R 2 5 23 moralOther moralOther match m m 1 0.7885 
19-May-2018_15:36:12 Exp 7324 19 female R 2 5 24 immoralSelf immoralSelf match m m 1 1.0300 
19-May-2018_15:36:18 Exp 7324 19 female R 3 1 1 immoralOther moralOther mismatch n NA -1 1.1561 
19-May-2018_15:36:21 Exp 7324 19 female R 3 1 2 immoralSelf immoralSelf match m NA -1 1.1561 
19-May-2018_15:36:23 Exp 7324 19 female R 3 1 3 moralOther moralOther match m m 1 0.6666 
19-May-2018_15:36:25 Exp 7324 19 female R 3 1 4 immoralSelf immoralOther mismatch n n 1 0.8295 
19-May-2018_15:36:28 Exp 7324 19 female R 3 1 5 moralSelf moralSelf match m NA -1 1.1561 
19-May-2018_15:36:30 Exp 7324 19 female R 3 1 6 moralSelf moralSelf match m m 1 0.6166 
19-May-2018_15:36:32 Exp 7324 19 female R 3 1 7 immoralSelf immoralSelf match m m 1 0.8186 
19-May-2018_15:36:35 Exp 7324 19 female R 3 1 8 moralSelf immoralSelf mismatch n n 1 0.8845 
19-May-2018_15:36:37 Exp 7324 19 female R 3 1 9 immoralSelf moralSelf mismatch n n 1 0.9439 
19-May-2018_15:36:40 Exp 7324 19 female R 3 1 10 moralOther immoralSelf mismatch n n 1 1.0085 
19-May-2018_15:36:42 Exp 7324 19 female R 3 1 11 moralSelf immoralSelf mismatch n n 1 1.0701 
19-May-2018_15:36:45 Exp 7324 19 female R 3 1 12 moralOther moralOther match m m 1 0.9814 
19-May-2018_15:36:47 Exp 7324 19 female R 3 1 13 moralOther moralOther match m m 1 0.8426 
19-May-2018_15:36:49 Exp 7324 19 female R 3 1 14 immoralOther immoralOther match m m 1 0.6529 
19-May-2018_15:36:52 Exp 7324 19 female R 3 1 15 immoralOther moralSelf mismatch n n 1 1.0837 
19-May-2018_15:36:54 Exp 7324 19 female R 3 1 16 moralOther immoralSelf mismatch n n 1 0.7511 
19-May-2018_15:36:56 Exp 7324 19 female R 3 1 17 immoralOther immoralOther match m m 1 0.6919 
19-May-2018_15:36:58 Exp 7324 19 female R 3 1 18 moralSelf moralSelf match m n 0 0.7155 
19-May-2018_15:37:00 Exp 7324 19 female R 3 1 19 immoralSelf immoralSelf match m m 1 0.7077 
19-May-2018_15:37:03 Exp 7324 19 female R 3 1 20 moralSelf moralOther mismatch n m 0 0.7755 
19-May-2018_15:37:05 Exp 7324 19 female R 3 1 21 immoralOther immoralOther match m m 1 0.6527 
19-May-2018_15:37:07 Exp 7324 19 female R 3 1 22 immoralOther moralSelf mismatch n n 1 0.7154 
19-May-2018_15:37:09 Exp 7324 19 female R 3 1 23 immoralSelf moralSelf mismatch n n 1 0.8114 
19-May-2018_15:37:11 Exp 7324 19 female R 3 1 24 moralOther moralSelf mismatch n n 1 0.7655 
19-May-2018_15:37:14 Exp 7324 19 female R 3 2 1 moralSelf moralOther mismatch n m 0 0.7547 
19-May-2018_15:37:16 Exp 7324 19 female R 3 2 2 moralSelf immoralOther mismatch n n 1 0.7275 
19-May-2018_15:37:18 Exp 7324 19 female R 3 2 3 moralOther moralOther match m n 0 0.9718 
19-May-2018_15:37:20 Exp 7324 19 female R 3 2 4 immoralOther moralSelf mismatch n n 1 0.6289 
19-May-2018_15:37:23 Exp 7324 19 female R 3 2 5 moralSelf moralSelf match m m 1 0.7950 
19-May-2018_15:37:25 Exp 7324 19 female R 3 2 6 moralOther moralOther match m m 1 0.9006 
19-May-2018_15:37:27 Exp 7324 19 female R 3 2 7 moralOther immoralSelf mismatch n n 1 0.8042 
19-May-2018_15:37:30 Exp 7324 19 female R 3 2 8 immoralSelf moralOther mismatch n n 1 0.7940 
19-May-2018_15:37:32 Exp 7324 19 female R 3 2 9 moralOther moralOther match m m 1 0.6115 
19-May-2018_15:37:34 Exp 7324 19 female R 3 2 10 moralOther moralSelf mismatch n m 0 0.7334 
19-May-2018_15:37:36 Exp 7324 19 female R 3 2 11 immoralOther immoralOther match m m 1 0.7377 
19-May-2018_15:37:38 Exp 7324 19 female R 3 2 12 moralSelf moralSelf match m m 1 0.5660 
19-May-2018_15:37:40 Exp 7324 19 female R 3 2 13 immoralSelf immoralOther mismatch n n 1 0.6710 
19-May-2018_15:37:43 Exp 7324 19 female R 3 2 14 immoralOther immoralOther match m n 0 0.9022 
19-May-2018_15:37:45 Exp 7324 19 female R 3 2 15 immoralSelf moralOther mismatch n n 1 0.9259 
19-May-2018_15:37:48 Exp 7324 19 female R 3 2 16 immoralSelf immoralSelf match m n 0 0.9099 
19-May-2018_15:37:50 Exp 7324 19 female R 3 2 17 immoralOther immoralSelf mismatch n n 1 0.6258 
19-May-2018_15:37:52 Exp 7324 19 female R 3 2 18 moralSelf moralSelf match m m 1 0.6320 
19-May-2018_15:37:54 Exp 7324 19 female R 3 2 19 immoralSelf immoralSelf match m m 1 0.6702 
19-May-2018_15:37:57 Exp 7324 19 female R 3 2 20 moralSelf immoralOther mismatch n NA -1 1.1561 
19-May-2018_15:37:59 Exp 7324 19 female R 3 2 21 immoralOther immoralSelf mismatch n n 1 0.7301 
19-May-2018_15:38:01 Exp 7324 19 female R 3 2 22 immoralSelf immoralSelf match m n 0 0.9984 
19-May-2018_15:38:04 Exp 7324 19 female R 3 2 23 immoralOther immoralOther match m m 1 0.8442 
19-May-2018_15:38:06 Exp 7324 19 female R 3 2 24 moralOther moralSelf mismatch n n 1 0.8588 
19-May-2018_15:38:08 Exp 7324 19 female R 3 3 1 moralOther immoralOther mismatch n m 0 0.7700 
19-May-2018_15:38:11 Exp 7324 19 female R 3 3 2 immoralSelf moralOther mismatch n NA -1 1.1561 
19-May-2018_15:38:13 Exp 7324 19 female R 3 3 3 immoralSelf immoralSelf match m n 0 1.0878 
19-May-2018_15:38:16 Exp 7324 19 female R 3 3 4 moralSelf immoralOther mismatch n n 1 0.6512 
19-May-2018_15:38:18 Exp 7324 19 female R 3 3 5 moralSelf moralSelf match m m 1 0.6339 
19-May-2018_15:38:20 Exp 7324 19 female R 3 3 6 moralOther moralOther match m n 0 0.7323 
19-May-2018_15:38:22 Exp 7324 19 female R 3 3 7 moralOther immoralSelf mismatch n n 1 0.5527 
19-May-2018_15:38:24 Exp 7324 19 female R 3 3 8 immoralSelf immoralSelf match m m 1 0.7014 
19-May-2018_15:38:26 Exp 7324 19 female R 3 3 9 moralSelf immoralSelf mismatch n n 1 0.6691 
19-May-2018_15:38:28 Exp 7324 19 female R 3 3 10 moralOther immoralOther mismatch n n 1 0.5242 
19-May-2018_15:38:30 Exp 7324 19 female R 3 3 11 immoralOther moralOther mismatch n n 1 0.6923 
19-May-2018_15:38:33 Exp 7324 19 female R 3 3 12 immoralOther moralOther mismatch n n 1 0.6359 
19-May-2018_15:38:35 Exp 7324 19 female R 3 3 13 immoralSelf moralOther mismatch n n 1 0.6702 
19-May-2018_15:38:37 Exp 7324 19 female R 3 3 14 immoralOther immoralOther match m m 1 0.7494 
19-May-2018_15:38:39 Exp 7324 19 female R 3 3 15 immoralSelf moralOther mismatch n n 1 0.4780 
19-May-2018_15:38:41 Exp 7324 19 female R 3 3 16 immoralOther immoralSelf mismatch n n 1 0.6532 
19-May-2018_15:38:43 Exp 7324 19 female R 3 3 17 immoralOther immoralOther match m n 0 0.7878 
19-May-2018_15:38:46 Exp 7324 19 female R 3 3 18 moralSelf immoralSelf mismatch n n 1 0.8214 
19-May-2018_15:38:48 Exp 7324 19 female R 3 3 19 moralOther moralOther match m n 0 0.5716 
19-May-2018_15:38:50 Exp 7324 19 female R 3 3 20 immoralSelf immoralSelf match m m 1 0.8206 
19-May-2018_15:38:52 Exp 7324 19 female R 3 3 21 moralOther moralOther match m n 0 0.7867 
19-May-2018_15:38:54 Exp 7324 19 female R 3 3 22 moralSelf moralSelf match m m 1 0.7802 
19-May-2018_15:38:57 Exp 7324 19 female R 3 3 23 moralSelf moralSelf match m n 0 0.6815 
19-May-2018_15:38:59 Exp 7324 19 female R 3 3 24 immoralOther immoralOther match m m 1 0.7489 
19-May-2018_15:39:23 Exp 7324 19 female R 3 4 1 moralOther moralOther match m m 1 0.7978 
19-May-2018_15:39:26 Exp 7324 19 female R 3 4 2 moralSelf moralSelf match m m 1 1.0116 
19-May-2018_15:39:28 Exp 7324 19 female R 3 4 3 immoralSelf moralOther mismatch n n 1 0.7976 
19-May-2018_15:39:30 Exp 7324 19 female R 3 4 4 immoralOther immoralSelf mismatch n n 1 0.7233 
19-May-2018_15:39:32 Exp 7324 19 female R 3 4 5 moralOther moralOther match m m 1 0.7314 
19-May-2018_15:39:35 Exp 7324 19 female R 3 4 6 moralSelf moralOther mismatch n n 1 1.1437 
19-May-2018_15:39:37 Exp 7324 19 female R 3 4 7 immoralOther moralOther mismatch n n 1 0.7523 
19-May-2018_15:39:39 Exp 7324 19 female R 3 4 8 moralOther moralSelf mismatch n m 0 0.6691 
19-May-2018_15:39:42 Exp 7324 19 female R 3 4 9 immoralSelf immoralSelf match m m 1 0.9802 
19-May-2018_15:39:44 Exp 7324 19 female R 3 4 10 immoralOther immoralSelf mismatch n n 1 0.7535 
19-May-2018_15:39:47 Exp 7324 19 female R 3 4 11 moralSelf moralOther mismatch n n 1 1.1503 
19-May-2018_15:39:49 Exp 7324 19 female R 3 4 12 moralSelf moralSelf match m m 1 0.6590 
19-May-2018_15:39:51 Exp 7324 19 female R 3 4 13 moralSelf immoralSelf mismatch n n 1 0.9020 
19-May-2018_15:39:53 Exp 7324 19 female R 3 4 14 immoralSelf immoralSelf match m n 0 0.7576 
19-May-2018_15:39:56 Exp 7324 19 female R 3 4 15 moralOther moralOther match m m 1 0.9304 
19-May-2018_15:39:58 Exp 7324 19 female R 3 4 16 immoralSelf immoralOther mismatch n n 1 1.0067 
19-May-2018_15:40:01 Exp 7324 19 female R 3 4 17 immoralOther immoralOther match m m 1 0.8844 
19-May-2018_15:40:03 Exp 7324 19 female R 3 4 18 moralOther immoralOther mismatch n n 1 0.8398 
19-May-2018_15:40:05 Exp 7324 19 female R 3 4 19 immoralSelf moralSelf mismatch n n 1 0.9223 
19-May-2018_15:40:08 Exp 7324 19 female R 3 4 20 moralOther immoralOther mismatch n n 1 0.9944 
19-May-2018_15:40:10 Exp 7324 19 female R 3 4 21 immoralOther immoralOther match m m 1 0.7159 
19-May-2018_15:40:12 Exp 7324 19 female R 3 4 22 moralSelf moralSelf match m n 0 0.7400 
19-May-2018_15:40:14 Exp 7324 19 female R 3 4 23 immoralOther immoralOther match m m 1 0.7725 
19-May-2018_15:40:17 Exp 7324 19 female R 3 4 24 immoralSelf immoralSelf match m n 0 0.6936 
19-May-2018_15:40:19 Exp 7324 19 female R 3 5 1 immoralSelf immoralSelf match m ,< 2 0.8094 
19-May-2018_15:40:22 Exp 7324 19 female R 3 5 2 moralOther immoralOther mismatch n NA -1 1.1561 
19-May-2018_15:40:24 Exp 7324 19 female R 3 5 3 moralSelf immoralOther mismatch n n 1 0.6882 
19-May-2018_15:40:26 Exp 7324 19 female R 3 5 4 moralOther moralSelf mismatch n n 1 1.0195 
19-May-2018_15:40:28 Exp 7324 19 female R 3 5 5 moralSelf moralSelf match m m 1 0.6855 
19-May-2018_15:40:31 Exp 7324 19 female R 3 5 6 immoralOther moralOther mismatch n n 1 0.7689 
19-May-2018_15:40:33 Exp 7324 19 female R 3 5 7 immoralOther immoralOther match m n 0 0.7379 
19-May-2018_15:40:35 Exp 7324 19 female R 3 5 8 immoralSelf immoralSelf match m m 1 0.7582 
19-May-2018_15:40:37 Exp 7324 19 female R 3 5 9 moralSelf moralSelf match m m 1 0.7391 
19-May-2018_15:40:40 Exp 7324 19 female R 3 5 10 immoralSelf moralSelf mismatch n n 1 0.6997 
19-May-2018_15:40:42 Exp 7324 19 female R 3 5 11 moralSelf moralOther mismatch n n 1 0.7713 
19-May-2018_15:40:44 Exp 7324 19 female R 3 5 12 moralSelf immoralOther mismatch n n 1 0.6362 
19-May-2018_15:40:46 Exp 7324 19 female R 3 5 13 immoralOther moralSelf mismatch n n 1 0.6147 
19-May-2018_15:40:48 Exp 7324 19 female R 3 5 14 immoralSelf moralSelf mismatch n n 1 0.8007 
19-May-2018_15:40:51 Exp 7324 19 female R 3 5 15 moralOther immoralSelf mismatch n n 1 1.1184 
19-May-2018_15:40:53 Exp 7324 19 female R 3 5 16 immoralOther immoralOther match m m 1 0.8145 
19-May-2018_15:40:55 Exp 7324 19 female R 3 5 17 immoralSelf moralOther mismatch n n 1 0.6645 
19-May-2018_15:40:57 Exp 7324 19 female R 3 5 18 moralOther moralOther match m n 0 0.6993 
19-May-2018_15:41:00 Exp 7324 19 female R 3 5 19 immoralSelf immoralSelf match m m 1 0.7789 
19-May-2018_15:41:02 Exp 7324 19 female R 3 5 20 moralOther moralOther match m m 1 1.0483 
19-May-2018_15:41:04 Exp 7324 19 female R 3 5 21 immoralOther moralSelf mismatch n n 1 0.6149 
19-May-2018_15:41:07 Exp 7324 19 female R 3 5 22 moralSelf moralSelf match m m 1 0.8169 
19-May-2018_15:41:09 Exp 7324 19 female R 3 5 23 moralOther moralOther match m m 1 0.7469 
19-May-2018_15:41:11 Exp 7324 19 female R 3 5 24 immoralOther immoralOther match m m 1 0.6674 
Date Prac Sub Age Sex Hand Block Bin Trial Shape Label Match CorrResp Resp ACC RT
19-May-2018_15:45:59 Exp 7324 19 female R 1 1 1 immoralOther moralOther mismatch n n 1 1.0342 
19-May-2018_15:46:01 Exp 7324 19 female R 1 1 2 moralOther immoralOther mismatch n n 1 1.0331 
19-May-2018_15:46:04 Exp 7324 19 female R 1 1 3 moralOther immoralOther mismatch n n 1 1.0515 
19-May-2018_15:46:07 Exp 7324 19 female R 1 1 4 moralOther moralOther match m n 0 1.1061 
19-May-2018_15:46:09 Exp 7324 19 female R 1 1 5 moralSelf moralOther mismatch n n 1 0.8620 
19-May-2018_15:46:11 Exp 7324 19 female R 1 1 6 immoralOther immoralOther match m m 1 0.7449 
19-May-2018_15:46:13 Exp 7324 19 female R 1 1 7 moralOther moralOther match m m 1 0.8415 
19-May-2018_15:46:16 Exp 7324 19 female R 1 1 8 immoralSelf immoralOther mismatch n n 1 0.9879 
19-May-2018_15:46:19 Exp 7324 19 female R 1 1 9 immoralOther immoralOther match m NA -1 1.1561 
19-May-2018_15:46:21 Exp 7324 19 female R 1 1 10 immoralOther immoralOther match m m 1 0.9542 
19-May-2018_15:46:23 Exp 7324 19 female R 1 1 11 immoralSelf moralOther mismatch n n 1 0.8471 
19-May-2018_15:46:26 Exp 7324 19 female R 1 1 12 moralSelf immoralSelf mismatch n n 1 0.9738 
19-May-2018_15:46:28 Exp 7324 19 female R 1 1 13 immoralSelf immoralSelf match m m 1 0.9550 
19-May-2018_15:46:30 Exp 7324 19 female R 1 1 14 moralSelf moralSelf match m m 1 0.7357 
19-May-2018_15:46:33 Exp 7324 19 female R 1 1 15 moralSelf moralOther mismatch n n 1 0.8281 
19-May-2018_15:46:35 Exp 7324 19 female R 1 1 16 immoralSelf moralOther mismatch n m 0 0.7544 
19-May-2018_15:46:38 Exp 7324 19 female R 1 1 17 moralOther moralSelf mismatch n n 1 1.0872 
19-May-2018_15:46:40 Exp 7324 19 female R 1 1 18 moralSelf moralSelf match m m 1 0.9065 
19-May-2018_15:46:42 Exp 7324 19 female R 1 1 19 moralSelf moralSelf match m m 1 0.7664 
19-May-2018_15:46:45 Exp 7324 19 female R 1 1 20 immoralSelf immoralSelf match m m 1 0.8555 
19-May-2018_15:46:47 Exp 7324 19 female R 1 1 21 immoralOther moralOther mismatch n n 1 0.8542 
19-May-2018_15:46:49 Exp 7324 19 female R 1 1 22 immoralOther moralOther mismatch n n 1 1.0928 
19-May-2018_15:46:52 Exp 7324 19 female R 1 1 23 moralOther moralOther match m m 1 0.8684 
19-May-2018_15:46:54 Exp 7324 19 female R 1 1 24 immoralSelf immoralSelf match m m 1 0.6995 
19-May-2018_15:46:56 Exp 7324 19 female R 1 2 1 moralSelf moralSelf match m m 1 0.7594 
19-May-2018_15:46:59 Exp 7324 19 female R 1 2 2 immoralSelf moralSelf mismatch n NA -1 1.1561 
19-May-2018_15:47:01 Exp 7324 19 female R 1 2 3 immoralSelf immoralSelf match m m 1 1.0170 
19-May-2018_15:47:03 Exp 7324 19 female R 1 2 4 immoralOther immoralOther match m n 0 0.6430 
19-May-2018_15:47:06 Exp 7324 19 female R 1 2 5 moralSelf immoralSelf mismatch n n 1 0.8054 
19-May-2018_15:47:08 Exp 7324 19 female R 1 2 6 immoralOther immoralSelf mismatch n n 1 0.7952 
19-May-2018_15:47:10 Exp 7324 19 female R 1 2 7 immoralSelf moralSelf mismatch n n 1 0.7487 
19-May-2018_15:47:13 Exp 7324 19 female R 1 2 8 immoralOther immoralOther match m m 1 0.9732 
19-May-2018_15:47:15 Exp 7324 19 female R 1 2 9 immoralSelf immoralSelf match m m 1 0.8862 
19-May-2018_15:47:18 Exp 7324 19 female R 1 2 10 moralOther immoralSelf mismatch n n 1 0.9777 
19-May-2018_15:47:20 Exp 7324 19 female R 1 2 11 immoralOther immoralSelf mismatch n n 1 0.9349 
19-May-2018_15:47:22 Exp 7324 19 female R 1 2 12 moralOther immoralOther mismatch n n 1 0.8272 
19-May-2018_15:47:25 Exp 7324 19 female R 1 2 13 immoralOther immoralOther match m m 1 0.8734 
19-May-2018_15:47:27 Exp 7324 19 female R 1 2 14 moralOther immoralSelf mismatch n n 1 0.8166 
19-May-2018_15:47:29 Exp 7324 19 female R 1 2 15 moralSelf moralSelf match m m 1 0.9865 
19-May-2018_15:47:32 Exp 7324 19 female R 1 2 16 moralSelf moralSelf match m m 1 1.0921 
19-May-2018_15:47:34 Exp 7324 19 female R 1 2 17 moralOther moralOther match m m 1 0.9716 
19-May-2018_15:47:37 Exp 7324 19 female R 1 2 18 immoralOther moralSelf mismatch n n 1 0.7808 
19-May-2018_15:47:39 Exp 7324 19 female R 1 2 19 moralSelf immoralSelf mismatch n n 1 1.0340 
19-May-2018_15:47:41 Exp 7324 19 female R 1 2 20 moralSelf moralOther mismatch n n 1 0.8284 
19-May-2018_15:47:44 Exp 7324 19 female R 1 2 21 immoralSelf moralSelf mismatch n n 1 0.8026 
19-May-2018_15:47:46 Exp 7324 19 female R 1 2 22 moralOther moralOther match m n 0 0.7924 
19-May-2018_15:47:48 Exp 7324 19 female R 1 2 23 moralOther moralOther match m m 1 0.6260 
19-May-2018_15:47:50 Exp 7324 19 female R 1 2 24 immoralSelf immoralSelf match m m 1 0.8161 
Date Prac Sub Age Sex Hand Block Bin Trial Shape Label Match CorrResp Resp ACC RT
19-May-2018_15:53:14 Exp 7324 19 female R 1 1 1 moralSelf moralOther mismatch n n 1 0.8935 
19-May-2018_15:53:16 Exp 7324 19 female R 1 1 2 immoralSelf immoralSelf match m m 1 0.9053 
19-May-2018_15:53:18 Exp 7324 19 female R 1 1 3 immoralSelf moralSelf mismatch n n 1 0.8773 
19-May-2018_15:53:21 Exp 7324 19 female R 1 1 4 immoralSelf immoralSelf match m m 1 1.0845 
19-May-2018_15:53:23 Exp 7324 19 female R 1 1 5 moralOther moralSelf mismatch n n 1 1.0639 
19-May-2018_15:53:26 Exp 7324 19 female R 1 1 6 immoralOther immoralOther match m m 1 0.7948 
19-May-2018_15:53:28 Exp 7324 19 female R 1 1 7 immoralSelf moralSelf mismatch n NA -1 1.1561 
19-May-2018_15:53:31 Exp 7324 19 female R 1 1 8 immoralSelf immoralSelf match m m 1 0.7531 
19-May-2018_15:53:33 Exp 7324 19 female R 1 1 9 moralSelf moralSelf match m m 1 0.7499 
19-May-2018_15:53:35 Exp 7324 19 female R 1 1 10 moralOther moralOther match m n 0 0.9584 
19-May-2018_15:53:37 Exp 7324 19 female R 1 1 11 moralSelf moralSelf match m m 1 0.7152 
19-May-2018_15:53:40 Exp 7324 19 female R 1 1 12 immoralOther moralOther mismatch n n 1 0.8673 
19-May-2018_15:53:42 Exp 7324 19 female R 1 1 13 moralSelf moralOther mismatch n n 1 0.9342 
19-May-2018_15:53:45 Exp 7324 19 female R 1 1 14 moralOther immoralOther mismatch n n 1 0.9226 
19-May-2018_15:53:47 Exp 7324 19 female R 1 1 15 moralOther immoralOther mismatch n m 0 0.8827 
19-May-2018_15:53:49 Exp 7324 19 female R 1 1 16 moralSelf moralSelf match m m 1 0.8381 
19-May-2018_15:53:52 Exp 7324 19 female R 1 1 17 immoralOther moralOther mismatch n NA -1 1.1561 
19-May-2018_15:53:54 Exp 7324 19 female R 1 1 18 moralOther moralOther match m m 1 0.7855 
19-May-2018_15:53:56 Exp 7324 19 female R 1 1 19 immoralSelf immoralOther mismatch n n 1 0.7630 
19-May-2018_15:53:59 Exp 7324 19 female R 1 1 20 immoralOther immoralSelf mismatch n n 1 0.8121 
19-May-2018_15:54:01 Exp 7324 19 female R 1 1 21 immoralOther immoralOther match m n 0 0.7580 
19-May-2018_15:54:03 Exp 7324 19 female R 1 1 22 moralOther moralOther match m m 1 0.9228 
19-May-2018_15:54:06 Exp 7324 19 female R 1 1 23 immoralOther immoralOther match m m 1 0.7869 
19-May-2018_15:54:08 Exp 7324 19 female R 1 1 24 moralSelf moralOther mismatch n m 0 1.1164 
19-May-2018_15:54:11 Exp 7324 19 female R 1 2 1 immoralOther moralSelf mismatch n NA -1 1.1561 
19-May-2018_15:54:13 Exp 7324 19 female R 1 2 2 moralOther immoralOther mismatch n n 1 0.7815 
19-May-2018_15:54:16 Exp 7324 19 female R 1 2 3 immoralSelf moralOther mismatch n NA -1 1.1561 
19-May-2018_15:54:18 Exp 7324 19 female R 1 2 4 moralSelf immoralSelf mismatch n n 1 0.9116 
19-May-2018_15:54:20 Exp 7324 19 female R 1 2 5 immoralSelf immoralSelf match m m 1 0.7555 
19-May-2018_15:54:23 Exp 7324 19 female R 1 2 6 immoralSelf immoralOther mismatch n n 1 0.8003 
19-May-2018_15:54:25 Exp 7324 19 female R 1 2 7 moralSelf moralOther mismatch n n 1 0.6300 
19-May-2018_15:54:27 Exp 7324 19 female R 1 2 8 immoralOther moralOther mismatch n n 1 0.6442 
19-May-2018_15:54:29 Exp 7324 19 female R 1 2 9 immoralSelf immoralSelf match m m 1 0.7229 
19-May-2018_15:54:31 Exp 7324 19 female R 1 2 10 immoralOther immoralOther match m n 0 0.8510 
19-May-2018_15:54:34 Exp 7324 19 female R 1 2 11 immoralSelf immoralOther mismatch n n 1 0.6576 
19-May-2018_15:54:36 Exp 7324 19 female R 1 2 12 moralOther moralOther match m m 1 0.7645 
19-May-2018_15:54:38 Exp 7324 19 female R 1 2 13 moralOther moralSelf mismatch n NA -1 1.1561 
19-May-2018_15:54:41 Exp 7324 19 female R 1 2 14 moralSelf moralSelf match m NA -1 1.1561 
19-May-2018_15:54:43 Exp 7324 19 female R 1 2 15 immoralSelf immoralSelf match m m 1 0.7112 
19-May-2018_15:54:46 Exp 7324 19 female R 1 2 16 immoralOther immoralOther match m m 1 0.8831 
19-May-2018_15:54:48 Exp 7324 19 female R 1 2 17 moralSelf immoralSelf mismatch n n 1 0.8465 
19-May-2018_15:54:51 Exp 7324 19 female R 1 2 18 immoralOther immoralOther match m NA -1 1.1561 
19-May-2018_15:54:53 Exp 7324 19 female R 1 2 19 immoralOther immoralSelf mismatch n NA -1 1.1561 
19-May-2018_15:54:56 Exp 7324 19 female R 1 2 20 moralOther moralOther match m NA -1 1.1561 
19-May-2018_15:54:58 Exp 7324 19 female R 1 2 21 moralOther moralOther match m NA -1 1.1561 
19-May-2018_15:55:01 Exp 7324 19 female R 1 2 22 moralSelf moralSelf match m m 1 0.7764 
19-May-2018_15:55:03 Exp 7324 19 female R 1 2 23 moralOther immoralOther mismatch n NA -1 1.1561 
19-May-2018_15:55:05 Exp 7324 19 female R 1 2 24 moralSelf moralSelf match m m 1 0.6584 
Date Prac Sub Age Sex Hand Block Bin Trial Shape Label Match CorrResp Resp ACC RT
19-May-2018_16:00:10 Exp 7324 19 female R 1 1 1 moralSelf immoralOther mismatch n n 1 0.9846 
19-May-2018_16:00:13 Exp 7324 19 female R 1 1 2 moralOther moralOther match m m 1 1.1099 
19-May-2018_16:00:15 Exp 7324 19 female R 1 1 3 immoralSelf immoralSelf match m m 1 0.8577 
19-May-2018_16:00:17 Exp 7324 19 female R 1 1 4 immoralOther immoralOther match m m 1 0.9087 
19-May-2018_16:00:20 Exp 7324 19 female R 1 1 5 immoralOther moralSelf mismatch n n 1 0.8006 
19-May-2018_16:00:22 Exp 7324 19 female R 1 1 6 immoralOther immoralOther match m m 1 0.7743 
19-May-2018_16:00:24 Exp 7324 19 female R 1 1 7 immoralOther immoralSelf mismatch n n 1 0.8035 
19-May-2018_16:00:26 Exp 7324 19 female R 1 1 8 moralSelf moralOther mismatch n m 0 0.7453 
19-May-2018_16:00:28 Exp 7324 19 female R 1 1 9 immoralSelf immoralSelf match m m 1 0.6578 
19-May-2018_16:00:31 Exp 7324 19 female R 1 1 10 moralOther immoralSelf mismatch n n 1 0.7728 
19-May-2018_16:00:33 Exp 7324 19 female R 1 1 11 immoralSelf moralSelf mismatch n m 0 0.8458 
19-May-2018_16:00:35 Exp 7324 19 female R 1 1 12 immoralSelf immoralOther mismatch n n 1 0.8764 
19-May-2018_16:00:38 Exp 7324 19 female R 1 1 13 moralOther moralOther match m m 1 0.8916 
19-May-2018_16:00:40 Exp 7324 19 female R 1 1 14 moralOther immoralSelf mismatch n n 1 0.7632 
19-May-2018_16:00:42 Exp 7324 19 female R 1 1 15 immoralSelf immoralSelf match m m 1 0.6923 
19-May-2018_16:00:44 Exp 7324 19 female R 1 1 16 moralSelf moralSelf match m n 0 0.7399 
19-May-2018_16:00:46 Exp 7324 19 female R 1 1 17 moralSelf moralSelf match m m 1 0.5805 
19-May-2018_16:00:49 Exp 7324 19 female R 1 1 18 moralOther immoralOther mismatch n n 1 1.0897 
19-May-2018_16:00:51 Exp 7324 19 female R 1 1 19 moralSelf moralSelf match m m 1 0.7410 
19-May-2018_16:00:54 Exp 7324 19 female R 1 1 20 moralOther moralOther match m NA -1 1.1561 
19-May-2018_16:00:56 Exp 7324 19 female R 1 1 21 immoralOther immoralOther match m m 1 0.8105 
19-May-2018_16:00:58 Exp 7324 19 female R 1 1 22 moralSelf immoralSelf mismatch n n 1 0.7084 
19-May-2018_16:01:01 Exp 7324 19 female R 1 1 23 immoralOther moralSelf mismatch n NA -1 1.1561 
19-May-2018_16:01:04 Exp 7324 19 female R 1 1 24 immoralSelf immoralOther mismatch n NA -1 1.1561 
19-May-2018_16:01:06 Exp 7324 19 female R 1 2 1 moralSelf immoralOther mismatch n n 1 0.8381 
19-May-2018_16:01:08 Exp 7324 19 female R 1 2 2 immoralSelf moralSelf mismatch n n 1 0.9125 
19-May-2018_16:01:11 Exp 7324 19 female R 1 2 3 moralOther moralOther match m m 1 0.7564 
19-May-2018_16:01:13 Exp 7324 19 female R 1 2 4 immoralSelf immoralSelf match m NA -1 1.1561 
19-May-2018_16:01:16 Exp 7324 19 female R 1 2 5 immoralOther moralOther mismatch n NA -1 1.1561 
19-May-2018_16:01:18 Exp 7324 19 female R 1 2 6 moralOther moralOther match m n 0 1.1229 
19-May-2018_16:01:21 Exp 7324 19 female R 1 2 7 immoralOther immoralOther match m m 1 0.7470 
19-May-2018_16:01:23 Exp 7324 19 female R 1 2 8 moralSelf immoralSelf mismatch n NA -1 1.1561 
19-May-2018_16:01:26 Exp 7324 19 female R 1 2 9 moralSelf immoralSelf mismatch n NA -1 1.1561 
19-May-2018_16:01:28 Exp 7324 19 female R 1 2 10 immoralOther moralOther mismatch n n 1 1.0211 
19-May-2018_16:01:31 Exp 7324 19 female R 1 2 11 immoralOther immoralOther match m NA -1 1.1561 
19-May-2018_16:01:34 Exp 7324 19 female R 1 2 12 immoralSelf immoralSelf match m NA -1 1.1561 
19-May-2018_16:01:36 Exp 7324 19 female R 1 2 13 moralSelf moralSelf match m m 1 0.7729 
19-May-2018_16:01:38 Exp 7324 19 female R 1 2 14 moralOther moralOther match m n 0 0.8060 
19-May-2018_16:01:40 Exp 7324 19 female R 1 2 15 immoralSelf moralOther mismatch n n 1 0.7717 
19-May-2018_16:01:43 Exp 7324 19 female R 1 2 16 immoralOther moralSelf mismatch n n 1 0.9008 
19-May-2018_16:01:45 Exp 7324 19 female R 1 2 17 moralSelf moralSelf match m m 1 0.7323 
19-May-2018_16:01:48 Exp 7324 19 female R 1 2 18 moralOther immoralOther mismatch n n 1 1.0888 
19-May-2018_16:01:50 Exp 7324 19 female R 1 2 19 moralSelf moralSelf match m m 1 0.6760 
19-May-2018_16:01:52 Exp 7324 19 female R 1 2 20 immoralOther immoralOther match m NA -1 1.1561 
19-May-2018_16:01:55 Exp 7324 19 female R 1 2 21 immoralSelf immoralSelf match m NA -1 1.1561 
19-May-2018_16:01:57 Exp 7324 19 female R 1 2 22 moralOther immoralSelf mismatch n n 1 0.7408 
19-May-2018_16:01:59 Exp 7324 19 female R 1 2 23 moralOther immoralOther mismatch n n 1 0.7014 
19-May-2018_16:02:02 Exp 7324 19 female R 1 2 24 immoralSelf moralOther mismatch n n 1 0.8610 
Date Prac Sub Age Sex Hand Block Bin Trial Shape Label Match CorrResp Resp ACC RT
19-May-2018_16:07:38 Exp 7324 19 female R 1 1 1 immoralOther immoralOther match m m 1 0.7747 
19-May-2018_16:07:40 Exp 7324 19 female R 1 1 2 immoralSelf moralOther mismatch n n 1 0.8643 
19-May-2018_16:07:42 Exp 7324 19 female R 1 1 3 immoralOther immoralSelf mismatch n n 1 0.7872 
19-May-2018_16:07:45 Exp 7324 19 female R 1 1 4 moralSelf moralOther mismatch n n 1 0.8767 
19-May-2018_16:07:47 Exp 7324 19 female R 1 1 5 moralOther immoralOther mismatch n n 1 0.9078 
19-May-2018_16:07:49 Exp 7324 19 female R 1 1 6 moralSelf moralSelf match m m 1 0.7438 
19-May-2018_16:07:52 Exp 7324 19 female R 1 1 7 immoralOther moralSelf mismatch n n 1 0.8403 
19-May-2018_16:07:54 Exp 7324 19 female R 1 1 8 moralSelf immoralSelf mismatch n n 1 0.7067 
19-May-2018_16:07:56 Exp 7324 19 female R 1 1 9 moralOther moralOther match m m 1 0.8785 
19-May-2018_16:07:58 Exp 7324 19 female R 1 1 10 moralSelf moralSelf match m m 1 0.7017 
19-May-2018_16:08:01 Exp 7324 19 female R 1 1 11 immoralOther immoralOther match m m 1 0.7733 
19-May-2018_16:08:03 Exp 7324 19 female R 1 1 12 moralSelf immoralSelf mismatch n n 1 0.7183 
19-May-2018_16:08:05 Exp 7324 19 female R 1 1 13 moralOther moralSelf mismatch n m 0 0.7265 
19-May-2018_16:08:07 Exp 7324 19 female R 1 1 14 moralOther moralOther match m m 1 0.6988 
19-May-2018_16:08:09 Exp 7324 19 female R 1 1 15 immoralOther immoralOther match m m 1 0.6744 
19-May-2018_16:08:12 Exp 7324 19 female R 1 1 16 immoralSelf immoralOther mismatch n n 1 0.8895 
19-May-2018_16:08:14 Exp 7324 19 female R 1 1 17 immoralOther immoralSelf mismatch n n 1 0.7649 
19-May-2018_16:08:17 Exp 7324 19 female R 1 1 18 moralSelf moralSelf match m NA -1 1.1561 
19-May-2018_16:08:19 Exp 7324 19 female R 1 1 19 immoralSelf moralOther mismatch n n 1 0.8507 
19-May-2018_16:08:21 Exp 7324 19 female R 1 1 20 immoralSelf immoralSelf match m m 1 0.9053 
19-May-2018_16:08:24 Exp 7324 19 female R 1 1 21 immoralSelf immoralSelf match m m 1 0.7893 
19-May-2018_16:08:26 Exp 7324 19 female R 1 1 22 moralOther moralSelf mismatch n n 1 0.8547 
19-May-2018_16:08:28 Exp 7324 19 female R 1 1 23 immoralSelf immoralSelf match m n 0 0.8855 
19-May-2018_16:08:31 Exp 7324 19 female R 1 1 24 moralOther moralOther match m m 1 0.8328 
19-May-2018_16:08:33 Exp 7324 19 female R 1 2 1 immoralOther moralSelf mismatch n n 1 0.8316 
19-May-2018_16:08:35 Exp 7324 19 female R 1 2 2 immoralSelf immoralSelf match m m 1 0.7577 
19-May-2018_16:08:37 Exp 7324 19 female R 1 2 3 immoralOther immoralSelf mismatch n n 1 0.7626 
19-May-2018_16:08:40 Exp 7324 19 female R 1 2 4 immoralOther moralOther mismatch n m 0 0.7955 
19-May-2018_16:08:42 Exp 7324 19 female R 1 2 5 moralOther moralOther match m m 1 0.4930 
19-May-2018_16:08:44 Exp 7324 19 female R 1 2 6 moralOther immoralSelf mismatch n n 1 0.7407 
19-May-2018_16:08:46 Exp 7324 19 female R 1 2 7 immoralSelf immoralOther mismatch n m 0 0.6132 
19-May-2018_16:08:48 Exp 7324 19 female R 1 2 8 moralSelf immoralSelf mismatch n n 1 0.7272 
19-May-2018_16:08:51 Exp 7324 19 female R 1 2 9 moralSelf moralOther mismatch n n 1 0.9475 
19-May-2018_16:08:53 Exp 7324 19 female R 1 2 10 immoralOther immoralOther match m m 1 0.8360 
19-May-2018_16:08:55 Exp 7324 19 female R 1 2 11 moralSelf immoralOther mismatch n n 1 0.6705 
19-May-2018_16:08:57 Exp 7324 19 female R 1 2 12 immoralOther immoralOther match m n 0 0.8456 
19-May-2018_16:09:00 Exp 7324 19 female R 1 2 13 moralSelf moralSelf match m m 1 0.8043 
19-May-2018_16:09:02 Exp 7324 19 female R 1 2 14 immoralSelf moralSelf mismatch n m 0 0.7621 
19-May-2018_16:09:04 Exp 7324 19 female R 1 2 15 immoralSelf immoralSelf match m m 1 0.7070 
19-May-2018_16:09:06 Exp 7324 19 female R 1 2 16 moralSelf moralSelf match m m 1 0.7590 
19-May-2018_16:09:09 Exp 7324 19 female R 1 2 17 moralOther moralOther match m m 1 0.7636 
19-May-2018_16:09:11 Exp 7324 19 female R 1 2 18 moralSelf moralSelf match m m 1 0.7087 
19-May-2018_16:09:13 Exp 7324 19 female R 1 2 19 moralOther immoralSelf mismatch n m 0 0.8486 
19-May-2018_16:09:16 Exp 7324 19 female R 1 2 20 immoralSelf immoralSelf match m m 1 1.0073 
19-May-2018_16:09:18 Exp 7324 19 female R 1 2 21 immoralOther immoralOther match m n 0 0.8370 
19-May-2018_16:09:20 Exp 7324 19 female R 1 2 22 moralOther moralOther match m m 1 0.6475 
19-May-2018_16:09:22 Exp 7324 19 female R 1 2 23 immoralSelf immoralOther mismatch n n 1 0.7823 
19-May-2018_16:09:25 Exp 7324 19 female R 1 2 24 moralOther immoralSelf mismatch n n 1 1.0753 
Date Prac Sub Age Sex Hand Block Bin Trial Shape Label Match CorrResp Resp ACC RT
19-May-2018_16:14:04 Exp 7324 19 female R 1 1 1 moralSelf immoralOther mismatch n n 1 0.9064 
19-May-2018_16:14:07 Exp 7324 19 female R 1 1 2 moralOther moralOther match m m 1 1.0186 
19-May-2018_16:14:09 Exp 7324 19 female R 1 1 3 moralSelf moralSelf match m m 1 0.8845 
19-May-2018_16:14:11 Exp 7324 19 female R 1 1 4 moralSelf moralSelf match m m 1 0.7440 
19-May-2018_16:14:14 Exp 7324 19 female R 1 1 5 immoralSelf immoralSelf match m m 1 0.9045 
19-May-2018_16:14:16 Exp 7324 19 female R 1 1 6 moralOther moralSelf mismatch n n 1 1.1164 
19-May-2018_16:14:19 Exp 7324 19 female R 1 1 7 immoralSelf immoralOther mismatch n n 1 1.0204 
19-May-2018_16:14:21 Exp 7324 19 female R 1 1 8 immoralSelf moralOther mismatch n n 1 0.8907 
19-May-2018_16:14:23 Exp 7324 19 female R 1 1 9 immoralOther moralSelf mismatch n n 1 0.8700 
19-May-2018_16:14:26 Exp 7324 19 female R 1 1 10 moralSelf moralSelf match m m 1 0.7892 
19-May-2018_16:14:28 Exp 7324 19 female R 1 1 11 immoralSelf immoralSelf match m m 1 0.8628 
19-May-2018_16:14:30 Exp 7324 19 female R 1 1 12 immoralOther immoralOther match m m 1 0.8016 
19-May-2018_16:14:33 Exp 7324 19 female R 1 1 13 moralOther immoralSelf mismatch n n 1 0.8874 
19-May-2018_16:14:35 Exp 7324 19 female R 1 1 14 moralOther moralOther match m m 1 0.8987 
19-May-2018_16:14:37 Exp 7324 19 female R 1 1 15 immoralSelf immoralOther mismatch n n 1 0.8664 
19-May-2018_16:14:40 Exp 7324 19 female R 1 1 16 immoralOther moralOther mismatch n n 1 0.7733 
19-May-2018_16:14:42 Exp 7324 19 female R 1 1 17 immoralOther immoralOther match m m 1 0.6943 
19-May-2018_16:14:44 Exp 7324 19 female R 1 1 18 immoralSelf immoralSelf match m NA -1 1.1561 
19-May-2018_16:14:47 Exp 7324 19 female R 1 1 19 moralOther moralOther match m m 1 0.9467 
19-May-2018_16:14:49 Exp 7324 19 female R 1 1 20 moralSelf moralOther mismatch n m 0 0.6273 
19-May-2018_16:14:52 Exp 7324 19 female R 1 1 21 moralSelf immoralOther mismatch n n 1 1.0735 
19-May-2018_16:14:54 Exp 7324 19 female R 1 1 22 immoralOther immoralOther match m m 1 0.9848 
19-May-2018_16:14:56 Exp 7324 19 female R 1 1 23 moralOther moralSelf mismatch n m 0 0.8700 
19-May-2018_16:14:59 Exp 7324 19 female R 1 1 24 immoralOther immoralSelf mismatch n m 0 0.9331 
19-May-2018_16:15:01 Exp 7324 19 female R 1 2 1 moralSelf moralSelf match m m 1 0.7577 
19-May-2018_16:15:03 Exp 7324 19 female R 1 2 2 moralSelf moralSelf match m m 1 0.9544 
19-May-2018_16:15:06 Exp 7324 19 female R 1 2 3 immoralSelf immoralSelf match m m 1 0.7913 
19-May-2018_16:15:08 Exp 7324 19 female R 1 2 4 moralSelf moralSelf match m m 1 0.6087 
19-May-2018_16:15:10 Exp 7324 19 female R 1 2 5 moralOther moralSelf mismatch n n 1 1.1024 
19-May-2018_16:15:13 Exp 7324 19 female R 1 2 6 moralOther immoralOther mismatch n n 1 0.8141 
19-May-2018_16:15:15 Exp 7324 19 female R 1 2 7 moralSelf immoralSelf mismatch n n 1 0.8400 
19-May-2018_16:15:17 Exp 7324 19 female R 1 2 8 immoralOther immoralSelf mismatch n m 0 0.8585 
19-May-2018_16:15:20 Exp 7324 19 female R 1 2 9 immoralOther immoralSelf mismatch n n 1 0.8055 
19-May-2018_16:15:22 Exp 7324 19 female R 1 2 10 immoralOther immoralOther match m m 1 0.8832 
19-May-2018_16:15:24 Exp 7324 19 female R 1 2 11 moralOther moralOther match m m 1 0.9665 
19-May-2018_16:15:27 Exp 7324 19 female R 1 2 12 immoralSelf immoralOther mismatch n m 0 0.8716 
19-May-2018_16:15:29 Exp 7324 19 female R 1 2 13 immoralSelf immoralSelf match m NA -1 1.1561 
19-May-2018_16:15:32 Exp 7324 19 female R 1 2 14 immoralOther immoralOther match m m 1 0.8435 
19-May-2018_16:15:34 Exp 7324 19 female R 1 2 15 moralOther moralOther match m m 1 0.8380 
19-May-2018_16:15:37 Exp 7324 19 female R 1 2 16 moralSelf immoralSelf mismatch n n 1 1.0644 
19-May-2018_16:15:39 Exp 7324 19 female R 1 2 17 immoralSelf moralSelf mismatch n n 1 0.8194 
19-May-2018_16:15:41 Exp 7324 19 female R 1 2 18 immoralSelf immoralSelf match m m 1 0.7573 
19-May-2018_16:15:43 Exp 7324 19 female R 1 2 19 moralOther immoralSelf mismatch n n 1 0.9061 
19-May-2018_16:15:46 Exp 7324 19 female R 1 2 20 immoralSelf moralOther mismatch n n 1 1.0700 
19-May-2018_16:15:48 Exp 7324 19 female R 1 2 21 immoralOther moralSelf mismatch n n 1 0.8772 
19-May-2018_16:15:51 Exp 7324 19 female R 1 2 22 moralSelf immoralSelf mismatch n n 1 0.9563 
19-May-2018_16:15:53 Exp 7324 19 female R 1 2 23 moralOther moralOther match m m 1 0.8731 
19-May-2018_16:15:55 Exp 7324 19 female R 1 2 24 immoralOther immoralOther match m m 1 0.7442 
