Date Prac Sub Age Sex Hand Block Bin Trial Shape Label Match CorrResp Resp ACC RT
07-Jun-2018_15:39:58 Exp 7345 19 male R 1 1 1 moralOther moralSelf mismatch m m 1 0.7495 
07-Jun-2018_15:40:00 Exp 7345 19 male R 1 1 2 moralSelf moralSelf match n n 1 0.6491 
07-Jun-2018_15:40:02 Exp 7345 19 male R 1 1 3 immoralOther moralOther mismatch m m 1 0.6825 
07-Jun-2018_15:40:05 Exp 7345 19 male R 1 1 4 immoralSelf immoralOther mismatch m n 0 0.9047 
07-Jun-2018_15:40:07 Exp 7345 19 male R 1 1 5 immoralSelf moralSelf mismatch m n 0 0.6315 
07-Jun-2018_15:40:09 Exp 7345 19 male R 1 1 6 moralSelf moralOther mismatch m n 0 0.4804 
07-Jun-2018_15:40:11 Exp 7345 19 male R 1 1 7 moralSelf moralSelf match n n 1 0.5746 
07-Jun-2018_15:40:13 Exp 7345 19 male R 1 1 8 moralOther immoralOther mismatch m m 1 0.7347 
07-Jun-2018_15:40:15 Exp 7345 19 male R 1 1 9 moralOther moralOther match n n 1 0.5419 
07-Jun-2018_15:40:17 Exp 7345 19 male R 1 1 10 moralOther immoralSelf mismatch m m 1 0.6893 
07-Jun-2018_15:40:19 Exp 7345 19 male R 1 1 11 moralSelf immoralOther mismatch m n 0 0.9355 
07-Jun-2018_15:40:22 Exp 7345 19 male R 1 1 12 immoralOther immoralOther match n NA -1 1.1081 
07-Jun-2018_15:40:24 Exp 7345 19 male R 1 1 13 moralOther moralOther match n n 1 0.8053 
07-Jun-2018_15:40:26 Exp 7345 19 male R 1 1 14 immoralSelf immoralSelf match n m 0 0.9098 
07-Jun-2018_15:40:28 Exp 7345 19 male R 1 1 15 immoralOther immoralOther match n n 1 0.5165 
07-Jun-2018_15:40:31 Exp 7345 19 male R 1 1 16 immoralOther moralSelf mismatch m m 1 0.8154 
07-Jun-2018_15:40:33 Exp 7345 19 male R 1 1 17 immoralOther immoralOther match n n 1 0.6042 
07-Jun-2018_15:40:35 Exp 7345 19 male R 1 1 18 moralSelf moralOther mismatch m n 0 0.8927 
07-Jun-2018_15:40:37 Exp 7345 19 male R 1 1 19 immoralSelf immoralSelf match n n 1 0.8312 
07-Jun-2018_15:40:39 Exp 7345 19 male R 1 1 20 moralSelf moralSelf match n n 1 0.6162 
07-Jun-2018_15:40:41 Exp 7345 19 male R 1 1 21 immoralSelf immoralOther mismatch m m 1 0.6930 
07-Jun-2018_15:40:44 Exp 7345 19 male R 1 1 22 immoralOther immoralSelf mismatch m m 1 0.7675 
07-Jun-2018_15:40:46 Exp 7345 19 male R 1 1 23 immoralSelf immoralSelf match n m 0 0.7074 
07-Jun-2018_15:40:48 Exp 7345 19 male R 1 1 24 moralOther moralOther match n n 1 0.7300 
07-Jun-2018_15:40:50 Exp 7345 19 male R 1 2 1 immoralSelf immoralSelf match n n 1 0.7291 
07-Jun-2018_15:40:52 Exp 7345 19 male R 1 2 2 moralOther moralOther match n n 1 0.8003 
07-Jun-2018_15:40:54 Exp 7345 19 male R 1 2 3 immoralSelf immoralOther mismatch m n 0 0.5928 
07-Jun-2018_15:40:56 Exp 7345 19 male R 1 2 4 moralOther immoralOther mismatch m n 0 0.7971 
07-Jun-2018_15:40:59 Exp 7345 19 male R 1 2 5 immoralSelf immoralSelf match n n 1 0.7657 
07-Jun-2018_15:41:01 Exp 7345 19 male R 1 2 6 immoralSelf immoralSelf match n n 1 0.5696 
07-Jun-2018_15:41:03 Exp 7345 19 male R 1 2 7 immoralSelf immoralOther mismatch m m 1 0.6534 
07-Jun-2018_15:41:05 Exp 7345 19 male R 1 2 8 moralSelf moralSelf match n n 1 0.6789 
07-Jun-2018_15:41:07 Exp 7345 19 male R 1 2 9 moralSelf immoralOther mismatch m m 1 0.6009 
07-Jun-2018_15:41:09 Exp 7345 19 male R 1 2 10 immoralOther immoralOther match n n 1 0.6654 
07-Jun-2018_15:41:11 Exp 7345 19 male R 1 2 11 immoralOther immoralOther match n n 1 0.5032 
07-Jun-2018_15:41:13 Exp 7345 19 male R 1 2 12 moralSelf immoralSelf mismatch m n 0 0.5659 
07-Jun-2018_15:41:15 Exp 7345 19 male R 1 2 13 moralSelf moralOther mismatch m n 0 0.6176 
07-Jun-2018_15:41:17 Exp 7345 19 male R 1 2 14 moralOther moralSelf mismatch m n 0 0.6785 
07-Jun-2018_15:41:19 Exp 7345 19 male R 1 2 15 immoralSelf immoralOther mismatch m m 1 1.0965 
07-Jun-2018_15:41:22 Exp 7345 19 male R 1 2 16 moralSelf moralSelf match n n 1 0.9389 
07-Jun-2018_15:41:24 Exp 7345 19 male R 1 2 17 immoralOther moralOther mismatch m m 1 0.7103 
07-Jun-2018_15:41:26 Exp 7345 19 male R 1 2 18 moralOther moralOther match n n 1 0.4850 
07-Jun-2018_15:41:28 Exp 7345 19 male R 1 2 19 immoralOther moralOther mismatch m m 1 0.7472 
07-Jun-2018_15:41:30 Exp 7345 19 male R 1 2 20 moralSelf moralSelf match n n 1 0.7186 
07-Jun-2018_15:41:32 Exp 7345 19 male R 1 2 21 moralOther immoralOther mismatch m n 0 0.8414 
07-Jun-2018_15:41:35 Exp 7345 19 male R 1 2 22 immoralOther moralSelf mismatch m m 1 0.7668 
07-Jun-2018_15:41:37 Exp 7345 19 male R 1 2 23 moralOther moralOther match n n 1 0.7625 
07-Jun-2018_15:41:39 Exp 7345 19 male R 1 2 24 immoralOther immoralOther match n n 1 0.9665 
07-Jun-2018_15:41:41 Exp 7345 19 male R 1 3 1 immoralOther immoralOther match n n 1 0.5864 
07-Jun-2018_15:41:43 Exp 7345 19 male R 1 3 2 moralSelf moralSelf match n n 1 0.7106 
07-Jun-2018_15:41:45 Exp 7345 19 male R 1 3 3 immoralOther moralSelf mismatch m m 1 0.7572 
07-Jun-2018_15:41:48 Exp 7345 19 male R 1 3 4 moralOther immoralOther mismatch m NA -1 1.1081 
07-Jun-2018_15:41:50 Exp 7345 19 male R 1 3 5 moralOther moralOther match n n 1 0.9556 
07-Jun-2018_15:41:53 Exp 7345 19 male R 1 3 6 immoralSelf moralSelf mismatch m m 1 1.0592 
07-Jun-2018_15:41:55 Exp 7345 19 male R 1 3 7 moralOther moralOther match n n 1 0.7610 
07-Jun-2018_15:41:57 Exp 7345 19 male R 1 3 8 immoralSelf immoralSelf match n n 1 0.8646 
07-Jun-2018_15:42:00 Exp 7345 19 male R 1 3 9 moralSelf immoralOther mismatch m m 1 0.8143 
07-Jun-2018_15:42:02 Exp 7345 19 male R 1 3 10 immoralOther immoralOther match n n 1 0.9231 
07-Jun-2018_15:42:04 Exp 7345 19 male R 1 3 11 moralOther moralOther match n n 1 0.8540 
07-Jun-2018_15:42:06 Exp 7345 19 male R 1 3 12 moralSelf moralSelf match n n 1 0.8076 
07-Jun-2018_15:42:08 Exp 7345 19 male R 1 3 13 moralSelf immoralSelf mismatch m m 1 0.6241 
07-Jun-2018_15:42:11 Exp 7345 19 male R 1 3 14 moralOther moralSelf mismatch m n 0 0.9291 
07-Jun-2018_15:42:13 Exp 7345 19 male R 1 3 15 immoralOther immoralOther match n n 1 0.6083 
07-Jun-2018_15:42:15 Exp 7345 19 male R 1 3 16 moralSelf moralOther mismatch m n 0 0.7928 
07-Jun-2018_15:42:17 Exp 7345 19 male R 1 3 17 moralSelf moralSelf match n n 1 0.5892 
07-Jun-2018_15:42:19 Exp 7345 19 male R 1 3 18 immoralSelf immoralSelf match n n 1 0.8655 
07-Jun-2018_15:42:21 Exp 7345 19 male R 1 3 19 immoralOther moralSelf mismatch m m 1 0.6712 
07-Jun-2018_15:42:24 Exp 7345 19 male R 1 3 20 immoralOther moralSelf mismatch m m 1 0.7211 
07-Jun-2018_15:42:26 Exp 7345 19 male R 1 3 21 immoralSelf immoralOther mismatch m m 1 0.9961 
07-Jun-2018_15:42:28 Exp 7345 19 male R 1 3 22 moralOther moralSelf mismatch m m 1 0.7364 
07-Jun-2018_15:42:30 Exp 7345 19 male R 1 3 23 immoralSelf immoralOther mismatch m m 1 0.9595 
07-Jun-2018_15:42:33 Exp 7345 19 male R 1 3 24 immoralSelf immoralSelf match n n 1 0.7912 
07-Jun-2018_15:42:53 Exp 7345 19 male R 1 4 1 moralSelf moralSelf match n n 1 0.7653 
07-Jun-2018_15:42:55 Exp 7345 19 male R 1 4 2 immoralSelf moralOther mismatch m n 0 0.7050 
07-Jun-2018_15:42:57 Exp 7345 19 male R 1 4 3 moralOther moralSelf mismatch m m 1 0.8077 
07-Jun-2018_15:43:00 Exp 7345 19 male R 1 4 4 moralSelf moralOther mismatch m n 0 1.0083 
07-Jun-2018_15:43:02 Exp 7345 19 male R 1 4 5 immoralSelf immoralSelf match n n 1 0.7289 
07-Jun-2018_15:43:05 Exp 7345 19 male R 1 4 6 moralSelf moralSelf match n NA -1 1.1081 
07-Jun-2018_15:43:07 Exp 7345 19 male R 1 4 7 immoralOther moralOther mismatch m m 1 0.5667 
07-Jun-2018_15:43:09 Exp 7345 19 male R 1 4 8 moralSelf immoralOther mismatch m m 1 0.7066 
07-Jun-2018_15:43:11 Exp 7345 19 male R 1 4 9 immoralSelf immoralOther mismatch m m 1 0.9372 
07-Jun-2018_15:43:13 Exp 7345 19 male R 1 4 10 immoralOther moralOther mismatch m m 1 0.5204 
07-Jun-2018_15:43:15 Exp 7345 19 male R 1 4 11 moralOther moralSelf mismatch m n 0 0.7553 
07-Jun-2018_15:43:17 Exp 7345 19 male R 1 4 12 moralOther moralOther match n m 0 0.7629 
07-Jun-2018_15:43:20 Exp 7345 19 male R 1 4 13 immoralOther immoralOther match n n 1 0.7348 
07-Jun-2018_15:43:22 Exp 7345 19 male R 1 4 14 moralOther moralOther match n n 1 0.8859 
07-Jun-2018_15:43:24 Exp 7345 19 male R 1 4 15 moralSelf moralSelf match n n 1 0.9081 
07-Jun-2018_15:43:26 Exp 7345 19 male R 1 4 16 immoralOther immoralOther match n n 1 0.7069 
07-Jun-2018_15:43:28 Exp 7345 19 male R 1 4 17 immoralOther immoralOther match n n 1 0.7055 
07-Jun-2018_15:43:30 Exp 7345 19 male R 1 4 18 immoralSelf immoralOther mismatch m n 0 0.5602 
07-Jun-2018_15:43:32 Exp 7345 19 male R 1 4 19 immoralSelf immoralSelf match n n 1 0.5997 
07-Jun-2018_15:43:35 Exp 7345 19 male R 1 4 20 moralSelf immoralSelf mismatch m m 1 0.9924 
07-Jun-2018_15:43:37 Exp 7345 19 male R 1 4 21 moralOther immoralSelf mismatch m n 0 0.9807 
07-Jun-2018_15:43:39 Exp 7345 19 male R 1 4 22 immoralOther moralOther mismatch m m 1 0.7646 
07-Jun-2018_15:43:42 Exp 7345 19 male R 1 4 23 moralOther moralOther match n n 1 0.8646 
07-Jun-2018_15:43:44 Exp 7345 19 male R 1 4 24 immoralSelf immoralSelf match n n 1 0.7743 
07-Jun-2018_15:43:46 Exp 7345 19 male R 1 5 1 immoralOther moralOther mismatch m m 1 0.7504 
07-Jun-2018_15:43:48 Exp 7345 19 male R 1 5 2 immoralSelf immoralSelf match n n 1 0.5181 
07-Jun-2018_15:43:50 Exp 7345 19 male R 1 5 3 moralOther moralOther match n m 0 0.8650 
07-Jun-2018_15:43:52 Exp 7345 19 male R 1 5 4 immoralSelf immoralOther mismatch m n 0 0.5907 
07-Jun-2018_15:43:54 Exp 7345 19 male R 1 5 5 moralSelf moralSelf match n n 1 0.7630 
07-Jun-2018_15:43:57 Exp 7345 19 male R 1 5 6 moralSelf moralSelf match n n 1 0.6548 
07-Jun-2018_15:43:59 Exp 7345 19 male R 1 5 7 immoralSelf immoralSelf match n n 1 0.7443 
07-Jun-2018_15:44:01 Exp 7345 19 male R 1 5 8 moralSelf immoralSelf mismatch m m 1 0.9157 
07-Jun-2018_15:44:03 Exp 7345 19 male R 1 5 9 immoralSelf moralSelf mismatch m n 0 0.7906 
07-Jun-2018_15:44:06 Exp 7345 19 male R 1 5 10 moralOther immoralSelf mismatch m m 1 0.8669 
07-Jun-2018_15:44:08 Exp 7345 19 male R 1 5 11 moralSelf immoralSelf mismatch m n 0 0.8967 
07-Jun-2018_15:44:10 Exp 7345 19 male R 1 5 12 moralOther moralOther match n n 1 0.6671 
07-Jun-2018_15:44:12 Exp 7345 19 male R 1 5 13 moralOther moralOther match n n 1 0.4650 
07-Jun-2018_15:44:14 Exp 7345 19 male R 1 5 14 immoralOther immoralOther match n m 0 0.5267 
07-Jun-2018_15:44:16 Exp 7345 19 male R 1 5 15 immoralOther moralSelf mismatch m m 1 0.6377 
07-Jun-2018_15:44:18 Exp 7345 19 male R 1 5 16 moralOther immoralSelf mismatch m n 0 0.6990 
07-Jun-2018_15:44:20 Exp 7345 19 male R 1 5 17 immoralOther immoralOther match n n 1 0.7175 
07-Jun-2018_15:44:22 Exp 7345 19 male R 1 5 18 moralSelf moralSelf match n n 1 0.6883 
07-Jun-2018_15:44:24 Exp 7345 19 male R 1 5 19 immoralSelf immoralSelf match n m 0 0.7507 
07-Jun-2018_15:44:27 Exp 7345 19 male R 1 5 20 moralSelf moralOther mismatch m n 0 0.7422 
07-Jun-2018_15:44:29 Exp 7345 19 male R 1 5 21 immoralOther immoralOther match n n 1 0.7056 
07-Jun-2018_15:44:31 Exp 7345 19 male R 1 5 22 immoralOther moralSelf mismatch m m 1 0.9042 
07-Jun-2018_15:44:33 Exp 7345 19 male R 1 5 23 immoralSelf moralSelf mismatch m n 0 0.9589 
07-Jun-2018_15:44:36 Exp 7345 19 male R 1 5 24 moralOther moralSelf mismatch m m 1 0.7825 
07-Jun-2018_15:44:41 Exp 7345 19 male R 2 1 1 moralSelf moralOther mismatch m NA -1 1.1081 
07-Jun-2018_15:44:44 Exp 7345 19 male R 2 1 2 moralSelf immoralOther mismatch m NA -1 1.1081 
07-Jun-2018_15:44:46 Exp 7345 19 male R 2 1 3 moralOther moralOther match n n 1 0.9486 
07-Jun-2018_15:44:48 Exp 7345 19 male R 2 1 4 immoralOther moralSelf mismatch m m 1 0.8480 
07-Jun-2018_15:44:50 Exp 7345 19 male R 2 1 5 moralSelf moralSelf match n n 1 0.6415 
07-Jun-2018_15:44:52 Exp 7345 19 male R 2 1 6 moralOther moralOther match n m 0 0.5908 
07-Jun-2018_15:44:55 Exp 7345 19 male R 2 1 7 moralOther immoralSelf mismatch m m 1 0.7471 
07-Jun-2018_15:44:57 Exp 7345 19 male R 2 1 8 immoralSelf moralOther mismatch m NA -1 1.1081 
07-Jun-2018_15:44:59 Exp 7345 19 male R 2 1 9 moralOther moralOther match n n 1 0.7171 
07-Jun-2018_15:45:01 Exp 7345 19 male R 2 1 10 moralOther moralSelf mismatch m m 1 0.7680 
07-Jun-2018_15:45:04 Exp 7345 19 male R 2 1 11 immoralOther immoralOther match n n 1 0.7479 
07-Jun-2018_15:45:06 Exp 7345 19 male R 2 1 12 moralSelf moralSelf match n n 1 0.8633 
07-Jun-2018_15:45:08 Exp 7345 19 male R 2 1 13 immoralSelf immoralOther mismatch m m 1 0.7490 
07-Jun-2018_15:45:10 Exp 7345 19 male R 2 1 14 immoralOther immoralOther match n n 1 0.5764 
07-Jun-2018_15:45:12 Exp 7345 19 male R 2 1 15 immoralSelf moralOther mismatch m n 0 0.5844 
07-Jun-2018_15:45:14 Exp 7345 19 male R 2 1 16 immoralSelf immoralSelf match n n 1 0.6086 
07-Jun-2018_15:45:16 Exp 7345 19 male R 2 1 17 immoralOther immoralSelf mismatch m m 1 0.8971 
07-Jun-2018_15:45:19 Exp 7345 19 male R 2 1 18 moralSelf moralSelf match n n 1 0.7315 
07-Jun-2018_15:45:21 Exp 7345 19 male R 2 1 19 immoralSelf immoralSelf match n n 1 0.6908 
07-Jun-2018_15:45:23 Exp 7345 19 male R 2 1 20 moralSelf immoralOther mismatch m m 1 0.6490 
07-Jun-2018_15:45:25 Exp 7345 19 male R 2 1 21 immoralOther immoralSelf mismatch m m 1 0.7385 
07-Jun-2018_15:45:27 Exp 7345 19 male R 2 1 22 immoralSelf immoralSelf match n m 0 0.8378 
07-Jun-2018_15:45:30 Exp 7345 19 male R 2 1 23 immoralOther immoralOther match n NA -1 1.1081 
07-Jun-2018_15:45:32 Exp 7345 19 male R 2 1 24 moralOther moralSelf mismatch m n 0 0.6737 
07-Jun-2018_15:45:34 Exp 7345 19 male R 2 2 1 moralOther immoralOther mismatch m n 0 0.5397 
07-Jun-2018_15:45:36 Exp 7345 19 male R 2 2 2 immoralSelf moralOther mismatch m m 1 0.6391 
07-Jun-2018_15:45:38 Exp 7345 19 male R 2 2 3 immoralSelf immoralSelf match n n 1 0.7803 
07-Jun-2018_15:45:40 Exp 7345 19 male R 2 2 4 moralSelf immoralOther mismatch m m 1 0.9804 
07-Jun-2018_15:45:42 Exp 7345 19 male R 2 2 5 moralSelf moralSelf match n n 1 0.6206 
07-Jun-2018_15:45:45 Exp 7345 19 male R 2 2 6 moralOther moralOther match n n 1 0.8136 
07-Jun-2018_15:45:47 Exp 7345 19 male R 2 2 7 moralOther immoralSelf mismatch m m 1 0.7064 
07-Jun-2018_15:45:49 Exp 7345 19 male R 2 2 8 immoralSelf immoralSelf match n n 1 0.9930 
07-Jun-2018_15:45:51 Exp 7345 19 male R 2 2 9 moralSelf immoralSelf mismatch m m 1 0.9014 
07-Jun-2018_15:45:54 Exp 7345 19 male R 2 2 10 moralOther immoralOther mismatch m n 0 0.7198 
07-Jun-2018_15:45:56 Exp 7345 19 male R 2 2 11 immoralOther moralOther mismatch m m 1 0.6747 
07-Jun-2018_15:45:58 Exp 7345 19 male R 2 2 12 immoralOther moralOther mismatch m m 1 0.7567 
07-Jun-2018_15:46:00 Exp 7345 19 male R 2 2 13 immoralSelf moralOther mismatch m m 1 0.7164 
07-Jun-2018_15:46:02 Exp 7345 19 male R 2 2 14 immoralOther immoralOther match n m 0 0.8151 
07-Jun-2018_15:46:05 Exp 7345 19 male R 2 2 15 immoralSelf moralOther mismatch m m 1 0.8121 
07-Jun-2018_15:46:07 Exp 7345 19 male R 2 2 16 immoralOther immoralSelf mismatch m m 1 0.7689 
07-Jun-2018_15:46:09 Exp 7345 19 male R 2 2 17 immoralOther immoralOther match n n 1 0.6607 
07-Jun-2018_15:46:11 Exp 7345 19 male R 2 2 18 moralSelf immoralSelf mismatch m m 1 0.8264 
07-Jun-2018_15:46:13 Exp 7345 19 male R 2 2 19 moralOther moralOther match n n 1 0.6595 
07-Jun-2018_15:46:16 Exp 7345 19 male R 2 2 20 immoralSelf immoralSelf match n NA -1 1.1081 
07-Jun-2018_15:46:18 Exp 7345 19 male R 2 2 21 moralOther moralOther match n n 1 0.7439 
07-Jun-2018_15:46:20 Exp 7345 19 male R 2 2 22 moralSelf moralSelf match n n 1 0.6672 
07-Jun-2018_15:46:22 Exp 7345 19 male R 2 2 23 moralSelf moralSelf match n n 1 0.6890 
07-Jun-2018_15:46:24 Exp 7345 19 male R 2 2 24 immoralOther immoralOther match n n 1 0.6152 
07-Jun-2018_15:46:26 Exp 7345 19 male R 2 3 1 moralOther moralOther match n n 1 0.7320 
07-Jun-2018_15:46:28 Exp 7345 19 male R 2 3 2 moralSelf moralSelf match n n 1 0.5392 
07-Jun-2018_15:46:30 Exp 7345 19 male R 2 3 3 immoralSelf moralOther mismatch m n 0 0.6065 
07-Jun-2018_15:46:32 Exp 7345 19 male R 2 3 4 immoralOther immoralSelf mismatch m m 1 0.6550 
07-Jun-2018_15:46:34 Exp 7345 19 male R 2 3 5 moralOther moralOther match n n 1 0.6165 
07-Jun-2018_15:46:36 Exp 7345 19 male R 2 3 6 moralSelf moralOther mismatch m m 1 0.7254 
07-Jun-2018_15:46:39 Exp 7345 19 male R 2 3 7 immoralOther moralOther mismatch m m 1 0.7122 
07-Jun-2018_15:46:41 Exp 7345 19 male R 2 3 8 moralOther moralSelf mismatch m n 0 0.8069 
07-Jun-2018_15:46:43 Exp 7345 19 male R 2 3 9 immoralSelf immoralSelf match n n 1 1.0076 
07-Jun-2018_15:46:45 Exp 7345 19 male R 2 3 10 immoralOther immoralSelf mismatch m m 1 0.6561 
07-Jun-2018_15:46:48 Exp 7345 19 male R 2 3 11 moralSelf moralOther mismatch m m 1 0.8618 
07-Jun-2018_15:46:50 Exp 7345 19 male R 2 3 12 moralSelf moralSelf match n n 1 0.7956 
07-Jun-2018_15:46:52 Exp 7345 19 male R 2 3 13 moralSelf immoralSelf mismatch m m 1 0.9198 
07-Jun-2018_15:46:54 Exp 7345 19 male R 2 3 14 immoralSelf immoralSelf match n n 1 0.8028 
07-Jun-2018_15:46:57 Exp 7345 19 male R 2 3 15 moralOther moralOther match n m 0 0.7633 
07-Jun-2018_15:46:59 Exp 7345 19 male R 2 3 16 immoralSelf immoralOther mismatch m n 0 0.9192 
07-Jun-2018_15:47:01 Exp 7345 19 male R 2 3 17 immoralOther immoralOther match n n 1 0.8581 
07-Jun-2018_15:47:04 Exp 7345 19 male R 2 3 18 moralOther immoralOther mismatch m m 1 0.9918 
07-Jun-2018_15:47:06 Exp 7345 19 male R 2 3 19 immoralSelf moralSelf mismatch m m 1 1.0521 
07-Jun-2018_15:47:08 Exp 7345 19 male R 2 3 20 moralOther immoralOther mismatch m n 0 0.8377 
07-Jun-2018_15:47:11 Exp 7345 19 male R 2 3 21 immoralOther immoralOther match n n 1 0.8750 
07-Jun-2018_15:47:13 Exp 7345 19 male R 2 3 22 moralSelf moralSelf match n n 1 0.6689 
07-Jun-2018_15:47:15 Exp 7345 19 male R 2 3 23 immoralOther immoralOther match n n 1 0.8548 
07-Jun-2018_15:47:17 Exp 7345 19 male R 2 3 24 immoralSelf immoralSelf match n n 1 0.7363 
07-Jun-2018_15:47:30 Exp 7345 19 male R 2 4 1 immoralSelf immoralSelf match n n 1 0.6399 
07-Jun-2018_15:47:32 Exp 7345 19 male R 2 4 2 moralOther immoralOther mismatch m n 0 0.7492 
07-Jun-2018_15:47:35 Exp 7345 19 male R 2 4 3 moralSelf immoralOther mismatch m NA -1 1.1081 
07-Jun-2018_15:47:37 Exp 7345 19 male R 2 4 4 moralOther moralSelf mismatch m n 0 0.7834 
07-Jun-2018_15:47:39 Exp 7345 19 male R 2 4 5 moralSelf moralSelf match n n 1 0.6874 
07-Jun-2018_15:47:41 Exp 7345 19 male R 2 4 6 immoralOther moralOther mismatch m m 1 0.7336 
07-Jun-2018_15:47:44 Exp 7345 19 male R 2 4 7 immoralOther immoralOther match n n 1 0.7808 
07-Jun-2018_15:47:46 Exp 7345 19 male R 2 4 8 immoralSelf immoralSelf match n n 1 0.8929 
07-Jun-2018_15:47:48 Exp 7345 19 male R 2 4 9 moralSelf moralSelf match n n 1 0.8472 
07-Jun-2018_15:47:50 Exp 7345 19 male R 2 4 10 immoralSelf moralSelf mismatch m m 1 0.5928 
07-Jun-2018_15:47:52 Exp 7345 19 male R 2 4 11 moralSelf moralOther mismatch m n 0 0.5651 
07-Jun-2018_15:47:54 Exp 7345 19 male R 2 4 12 moralSelf immoralOther mismatch m m 1 0.8089 
07-Jun-2018_15:47:56 Exp 7345 19 male R 2 4 13 immoralOther moralSelf mismatch m m 1 0.6298 
07-Jun-2018_15:47:59 Exp 7345 19 male R 2 4 14 immoralSelf moralSelf mismatch m n 0 0.9427 
07-Jun-2018_15:48:01 Exp 7345 19 male R 2 4 15 moralOther immoralSelf mismatch m m 1 0.7541 
07-Jun-2018_15:48:03 Exp 7345 19 male R 2 4 16 immoralOther immoralOther match n n 1 0.7378 
07-Jun-2018_15:48:05 Exp 7345 19 male R 2 4 17 immoralSelf moralOther mismatch m m 1 0.8809 
07-Jun-2018_15:48:08 Exp 7345 19 male R 2 4 18 moralOther moralOther match n n 1 0.8551 
07-Jun-2018_15:48:10 Exp 7345 19 male R 2 4 19 immoralSelf immoralSelf match n n 1 1.0566 
07-Jun-2018_15:48:12 Exp 7345 19 male R 2 4 20 moralOther moralOther match n n 1 0.6784 
07-Jun-2018_15:48:14 Exp 7345 19 male R 2 4 21 immoralOther moralSelf mismatch m m 1 0.7924 
07-Jun-2018_15:48:17 Exp 7345 19 male R 2 4 22 moralSelf moralSelf match n n 1 0.8446 
07-Jun-2018_15:48:19 Exp 7345 19 male R 2 4 23 moralOther moralOther match n n 1 0.6381 
07-Jun-2018_15:48:21 Exp 7345 19 male R 2 4 24 immoralOther immoralOther match n n 1 0.8194 
07-Jun-2018_15:48:23 Exp 7345 19 male R 2 5 1 moralOther moralOther match n n 1 0.6641 
07-Jun-2018_15:48:25 Exp 7345 19 male R 2 5 2 moralOther immoralOther mismatch m m 1 0.7019 
07-Jun-2018_15:48:27 Exp 7345 19 male R 2 5 3 moralSelf moralSelf match n n 1 0.7284 
07-Jun-2018_15:48:29 Exp 7345 19 male R 2 5 4 immoralOther moralOther mismatch m m 1 0.6395 
07-Jun-2018_15:48:32 Exp 7345 19 male R 2 5 5 moralSelf immoralSelf mismatch m m 1 0.7808 
07-Jun-2018_15:48:34 Exp 7345 19 male R 2 5 6 immoralSelf immoralSelf match n n 1 0.6849 
07-Jun-2018_15:48:36 Exp 7345 19 male R 2 5 7 immoralOther immoralSelf mismatch m m 1 0.7631 
07-Jun-2018_15:48:38 Exp 7345 19 male R 2 5 8 immoralOther immoralOther match n n 1 0.5909 
07-Jun-2018_15:48:40 Exp 7345 19 male R 2 5 9 immoralSelf immoralSelf match n n 1 0.8753 
07-Jun-2018_15:48:42 Exp 7345 19 male R 2 5 10 immoralOther immoralOther match n n 1 0.8133 
07-Jun-2018_15:48:45 Exp 7345 19 male R 2 5 11 immoralOther moralSelf mismatch m m 1 0.6661 
07-Jun-2018_15:48:47 Exp 7345 19 male R 2 5 12 immoralSelf immoralSelf match n n 1 0.7998 
07-Jun-2018_15:48:49 Exp 7345 19 male R 2 5 13 moralOther immoralOther mismatch m n 0 0.9044 
07-Jun-2018_15:48:51 Exp 7345 19 male R 2 5 14 immoralSelf moralOther mismatch m m 1 0.9030 
07-Jun-2018_15:48:54 Exp 7345 19 male R 2 5 15 moralOther immoralSelf mismatch m n 0 0.9336 
07-Jun-2018_15:48:56 Exp 7345 19 male R 2 5 16 immoralSelf immoralOther mismatch m n 0 0.7168 
07-Jun-2018_15:48:58 Exp 7345 19 male R 2 5 17 moralSelf moralOther mismatch m m 1 0.7678 
07-Jun-2018_15:49:00 Exp 7345 19 male R 2 5 18 moralSelf moralSelf match n n 1 0.7396 
07-Jun-2018_15:49:02 Exp 7345 19 male R 2 5 19 moralOther moralOther match n n 1 0.6390 
07-Jun-2018_15:49:04 Exp 7345 19 male R 2 5 20 moralOther moralOther match n n 1 0.5243 
07-Jun-2018_15:49:06 Exp 7345 19 male R 2 5 21 moralSelf immoralOther mismatch m m 1 0.7272 
07-Jun-2018_15:49:09 Exp 7345 19 male R 2 5 22 immoralOther immoralOther match n n 1 0.9103 
07-Jun-2018_15:49:11 Exp 7345 19 male R 2 5 23 immoralSelf immoralOther mismatch m m 1 0.9010 
07-Jun-2018_15:49:13 Exp 7345 19 male R 2 5 24 moralSelf moralSelf match n n 1 0.6954 
07-Jun-2018_15:49:19 Exp 7345 19 male R 3 1 1 moralSelf moralSelf match n NA -1 1.1081 
07-Jun-2018_15:49:21 Exp 7345 19 male R 3 1 2 immoralOther immoralOther match n n 1 0.6011 
07-Jun-2018_15:49:23 Exp 7345 19 male R 3 1 3 immoralSelf immoralOther mismatch m m 1 0.6498 
07-Jun-2018_15:49:25 Exp 7345 19 male R 3 1 4 moralOther moralOther match n n 1 0.8112 
07-Jun-2018_15:49:27 Exp 7345 19 male R 3 1 5 moralSelf moralOther mismatch m m 1 0.5521 
07-Jun-2018_15:49:29 Exp 7345 19 male R 3 1 6 moralSelf immoralOther mismatch m m 1 0.5916 
07-Jun-2018_15:49:31 Exp 7345 19 male R 3 1 7 immoralSelf immoralOther mismatch m m 1 0.7720 
07-Jun-2018_15:49:33 Exp 7345 19 male R 3 1 8 immoralSelf immoralSelf match n n 1 0.6478 
07-Jun-2018_15:49:35 Exp 7345 19 male R 3 1 9 moralOther moralOther match n m 0 0.5213 
07-Jun-2018_15:49:37 Exp 7345 19 male R 3 1 10 immoralOther moralSelf mismatch m m 1 0.6122 
07-Jun-2018_15:49:39 Exp 7345 19 male R 3 1 11 immoralOther moralOther mismatch m n 0 0.5689 
07-Jun-2018_15:49:41 Exp 7345 19 male R 3 1 12 moralSelf moralSelf match n n 1 0.6847 
07-Jun-2018_15:49:43 Exp 7345 19 male R 3 1 13 moralOther immoralOther mismatch m n 0 0.5711 
07-Jun-2018_15:49:46 Exp 7345 19 male R 3 1 14 moralOther immoralOther mismatch m m 1 0.8628 
07-Jun-2018_15:49:48 Exp 7345 19 male R 3 1 15 moralSelf moralSelf match n n 1 0.6446 
07-Jun-2018_15:49:50 Exp 7345 19 male R 3 1 16 immoralSelf immoralSelf match n n 1 0.6061 
07-Jun-2018_15:49:52 Exp 7345 19 male R 3 1 17 immoralOther immoralOther match n n 1 0.7907 
07-Jun-2018_15:49:54 Exp 7345 19 male R 3 1 18 moralOther moralOther match n n 1 0.7470 
07-Jun-2018_15:49:56 Exp 7345 19 male R 3 1 19 moralSelf immoralOther mismatch m m 1 0.7024 
07-Jun-2018_15:49:58 Exp 7345 19 male R 3 1 20 moralOther immoralOther mismatch m n 0 0.7528 
07-Jun-2018_15:50:00 Exp 7345 19 male R 3 1 21 immoralOther immoralOther match n n 1 0.5604 
07-Jun-2018_15:50:03 Exp 7345 19 male R 3 1 22 immoralSelf moralOther mismatch m m 1 0.7600 
07-Jun-2018_15:50:05 Exp 7345 19 male R 3 1 23 immoralSelf immoralSelf match n n 1 0.7196 
07-Jun-2018_15:50:07 Exp 7345 19 male R 3 1 24 immoralOther moralSelf mismatch m m 1 0.6346 
07-Jun-2018_15:50:09 Exp 7345 19 male R 3 2 1 moralOther moralSelf mismatch m m 1 0.7918 
07-Jun-2018_15:50:11 Exp 7345 19 male R 3 2 2 immoralSelf immoralSelf match n n 1 0.9721 
07-Jun-2018_15:50:14 Exp 7345 19 male R 3 2 3 immoralSelf moralSelf mismatch m m 1 0.7679 
07-Jun-2018_15:50:16 Exp 7345 19 male R 3 2 4 immoralOther immoralOther match n n 1 0.8519 
07-Jun-2018_15:50:18 Exp 7345 19 male R 3 2 5 immoralOther immoralOther match n n 1 0.6134 
07-Jun-2018_15:50:20 Exp 7345 19 male R 3 2 6 moralSelf moralSelf match n n 1 0.7701 
07-Jun-2018_15:50:22 Exp 7345 19 male R 3 2 7 immoralSelf immoralSelf match n m 0 0.6860 
07-Jun-2018_15:50:24 Exp 7345 19 male R 3 2 8 moralOther moralOther match n n 1 0.6842 
07-Jun-2018_15:50:26 Exp 7345 19 male R 3 2 9 moralOther moralOther match n n 1 0.5544 
07-Jun-2018_15:50:28 Exp 7345 19 male R 3 2 10 immoralOther immoralSelf mismatch m m 1 0.7300 
07-Jun-2018_15:50:31 Exp 7345 19 male R 3 2 11 moralSelf immoralSelf mismatch m n 0 0.8011 
07-Jun-2018_15:50:33 Exp 7345 19 male R 3 2 12 moralOther moralSelf mismatch m n 0 0.9777 
07-Jun-2018_15:50:35 Exp 7345 19 male R 3 2 13 immoralOther immoralSelf mismatch m m 1 0.7138 
07-Jun-2018_15:50:37 Exp 7345 19 male R 3 2 14 moralOther moralOther match n n 1 0.6165 
07-Jun-2018_15:50:39 Exp 7345 19 male R 3 2 15 immoralSelf moralOther mismatch m m 1 0.7093 
07-Jun-2018_15:50:42 Exp 7345 19 male R 3 2 16 immoralSelf immoralOther mismatch m m 1 0.8999 
07-Jun-2018_15:50:44 Exp 7345 19 male R 3 2 17 moralSelf immoralOther mismatch m m 1 0.6224 
07-Jun-2018_15:50:46 Exp 7345 19 male R 3 2 18 moralSelf moralSelf match n n 1 0.7035 
07-Jun-2018_15:50:48 Exp 7345 19 male R 3 2 19 immoralOther immoralSelf mismatch m m 1 0.7500 
07-Jun-2018_15:50:50 Exp 7345 19 male R 3 2 20 moralOther moralSelf mismatch m m 1 0.7577 
07-Jun-2018_15:50:52 Exp 7345 19 male R 3 2 21 immoralOther immoralOther match n n 1 0.6452 
07-Jun-2018_15:50:54 Exp 7345 19 male R 3 2 22 moralSelf immoralSelf mismatch m m 1 0.7348 
07-Jun-2018_15:50:56 Exp 7345 19 male R 3 2 23 moralSelf moralSelf match n n 1 0.5579 
07-Jun-2018_15:50:59 Exp 7345 19 male R 3 2 24 immoralSelf immoralSelf match n n 1 0.7416 
07-Jun-2018_15:51:01 Exp 7345 19 male R 3 3 1 moralSelf immoralOther mismatch m m 1 0.6089 
07-Jun-2018_15:51:03 Exp 7345 19 male R 3 3 2 moralOther immoralOther mismatch m n 0 0.7737 
07-Jun-2018_15:51:05 Exp 7345 19 male R 3 3 3 moralOther moralOther match n n 1 0.4859 
07-Jun-2018_15:51:07 Exp 7345 19 male R 3 3 4 moralOther immoralOther mismatch m m 1 0.6920 
07-Jun-2018_15:51:09 Exp 7345 19 male R 3 3 5 immoralOther immoralOther match n m 0 0.8145 
07-Jun-2018_15:51:11 Exp 7345 19 male R 3 3 6 moralOther moralOther match n n 1 0.7153 
07-Jun-2018_15:51:13 Exp 7345 19 male R 3 3 7 immoralSelf moralSelf mismatch m n 0 0.7421 
07-Jun-2018_15:51:16 Exp 7345 19 male R 3 3 8 immoralOther moralOther mismatch m n 0 0.8095 
07-Jun-2018_15:51:18 Exp 7345 19 male R 3 3 9 immoralSelf immoralSelf match n n 1 0.7423 
07-Jun-2018_15:51:20 Exp 7345 19 male R 3 3 10 immoralOther immoralSelf mismatch m m 1 0.6817 
07-Jun-2018_15:51:22 Exp 7345 19 male R 3 3 11 moralOther moralOther match n n 1 0.7599 
07-Jun-2018_15:51:24 Exp 7345 19 male R 3 3 12 moralSelf moralSelf match n n 1 0.8076 
07-Jun-2018_15:51:26 Exp 7345 19 male R 3 3 13 immoralSelf immoralOther mismatch m m 1 0.7840 
07-Jun-2018_15:51:29 Exp 7345 19 male R 3 3 14 moralSelf moralSelf match n n 1 0.7122 
07-Jun-2018_15:51:31 Exp 7345 19 male R 3 3 15 moralSelf moralSelf match n n 1 0.7189 
07-Jun-2018_15:51:33 Exp 7345 19 male R 3 3 16 moralOther immoralSelf mismatch m m 1 0.7298 
07-Jun-2018_15:51:35 Exp 7345 19 male R 3 3 17 immoralOther immoralOther match n n 1 0.8249 
07-Jun-2018_15:51:37 Exp 7345 19 male R 3 3 18 immoralSelf immoralSelf match n n 1 0.6980 
07-Jun-2018_15:51:39 Exp 7345 19 male R 3 3 19 moralSelf immoralOther mismatch m m 1 0.6845 
07-Jun-2018_15:51:41 Exp 7345 19 male R 3 3 20 immoralSelf immoralSelf match n n 1 0.6026 
07-Jun-2018_15:51:44 Exp 7345 19 male R 3 3 21 immoralOther moralOther mismatch m n 0 0.7951 
07-Jun-2018_15:51:46 Exp 7345 19 male R 3 3 22 immoralOther immoralOther match n n 1 0.6155 
07-Jun-2018_15:51:48 Exp 7345 19 male R 3 3 23 immoralSelf immoralOther mismatch m m 1 0.7722 
07-Jun-2018_15:51:50 Exp 7345 19 male R 3 3 24 moralSelf immoralOther mismatch m m 1 0.5361 
07-Jun-2018_15:51:58 Exp 7345 19 male R 3 4 1 immoralOther moralOther mismatch m n 0 0.5120 
07-Jun-2018_15:52:00 Exp 7345 19 male R 3 4 2 moralOther immoralOther mismatch m m 1 0.7826 
07-Jun-2018_15:52:02 Exp 7345 19 male R 3 4 3 moralOther immoralOther mismatch m m 1 0.7987 
07-Jun-2018_15:52:05 Exp 7345 19 male R 3 4 4 moralOther moralOther match n n 1 0.5993 
07-Jun-2018_15:52:07 Exp 7345 19 male R 3 4 5 moralSelf moralOther mismatch m m 1 0.9198 
07-Jun-2018_15:52:09 Exp 7345 19 male R 3 4 6 immoralOther immoralOther match n n 1 0.6747 
07-Jun-2018_15:52:11 Exp 7345 19 male R 3 4 7 moralOther moralOther match n n 1 0.9727 
07-Jun-2018_15:52:13 Exp 7345 19 male R 3 4 8 immoralSelf immoralOther mismatch m m 1 0.6246 
07-Jun-2018_15:52:15 Exp 7345 19 male R 3 4 9 immoralOther immoralOther match n n 1 0.6736 
07-Jun-2018_15:52:18 Exp 7345 19 male R 3 4 10 immoralOther immoralOther match n n 1 0.7076 
07-Jun-2018_15:52:20 Exp 7345 19 male R 3 4 11 immoralSelf moralOther mismatch m m 1 0.6583 
07-Jun-2018_15:52:22 Exp 7345 19 male R 3 4 12 moralSelf immoralSelf mismatch m m 1 0.8960 
07-Jun-2018_15:52:24 Exp 7345 19 male R 3 4 13 immoralSelf immoralSelf match n n 1 0.8584 
07-Jun-2018_15:52:27 Exp 7345 19 male R 3 4 14 moralSelf moralSelf match n n 1 0.8322 
07-Jun-2018_15:52:29 Exp 7345 19 male R 3 4 15 moralSelf moralOther mismatch m m 1 0.7292 
07-Jun-2018_15:52:31 Exp 7345 19 male R 3 4 16 immoralSelf moralOther mismatch m m 1 0.7683 
07-Jun-2018_15:52:33 Exp 7345 19 male R 3 4 17 moralOther moralSelf mismatch m m 1 0.9081 
07-Jun-2018_15:52:35 Exp 7345 19 male R 3 4 18 moralSelf moralSelf match n n 1 0.5869 
07-Jun-2018_15:52:37 Exp 7345 19 male R 3 4 19 moralSelf moralSelf match n n 1 0.6872 
07-Jun-2018_15:52:39 Exp 7345 19 male R 3 4 20 immoralSelf immoralSelf match n m 0 0.5414 
07-Jun-2018_15:52:41 Exp 7345 19 male R 3 4 21 immoralOther moralOther mismatch m m 1 0.7288 
07-Jun-2018_15:52:44 Exp 7345 19 male R 3 4 22 immoralOther moralOther mismatch m m 1 0.8079 
07-Jun-2018_15:52:46 Exp 7345 19 male R 3 4 23 moralOther moralOther match n n 1 0.8005 
07-Jun-2018_15:52:48 Exp 7345 19 male R 3 4 24 immoralSelf immoralSelf match n n 1 0.6891 
07-Jun-2018_15:52:50 Exp 7345 19 male R 3 5 1 moralSelf moralSelf match n n 1 0.6232 
07-Jun-2018_15:52:52 Exp 7345 19 male R 3 5 2 immoralSelf moralSelf mismatch m m 1 0.8162 
07-Jun-2018_15:52:54 Exp 7345 19 male R 3 5 3 immoralSelf immoralSelf match n m 0 0.5491 
07-Jun-2018_15:52:57 Exp 7345 19 male R 3 5 4 immoralOther immoralOther match n n 1 0.9925 
07-Jun-2018_15:52:59 Exp 7345 19 male R 3 5 5 moralSelf immoralSelf mismatch m n 0 0.7887 
07-Jun-2018_15:53:01 Exp 7345 19 male R 3 5 6 immoralOther immoralSelf mismatch m m 1 0.7371 
07-Jun-2018_15:53:03 Exp 7345 19 male R 3 5 7 immoralSelf moralSelf mismatch m n 0 0.7523 
07-Jun-2018_15:53:05 Exp 7345 19 male R 3 5 8 immoralOther immoralOther match n n 1 0.7999 
07-Jun-2018_15:53:08 Exp 7345 19 male R 3 5 9 immoralSelf immoralSelf match n n 1 0.7684 
07-Jun-2018_15:53:10 Exp 7345 19 male R 3 5 10 moralOther immoralSelf mismatch m m 1 0.6923 
07-Jun-2018_15:53:12 Exp 7345 19 male R 3 5 11 immoralOther immoralSelf mismatch m m 1 0.7587 
07-Jun-2018_15:53:14 Exp 7345 19 male R 3 5 12 moralOther immoralOther mismatch m n 0 0.6063 
07-Jun-2018_15:53:16 Exp 7345 19 male R 3 5 13 immoralOther immoralOther match n n 1 0.5988 
07-Jun-2018_15:53:18 Exp 7345 19 male R 3 5 14 moralOther immoralSelf mismatch m m 1 0.7195 
07-Jun-2018_15:53:20 Exp 7345 19 male R 3 5 15 moralSelf moralSelf match n n 1 0.7543 
07-Jun-2018_15:53:23 Exp 7345 19 male R 3 5 16 moralSelf moralSelf match n n 1 0.9300 
07-Jun-2018_15:53:25 Exp 7345 19 male R 3 5 17 moralOther moralOther match n n 1 1.0811 
07-Jun-2018_15:53:27 Exp 7345 19 male R 3 5 18 immoralOther moralSelf mismatch m m 1 0.6953 
07-Jun-2018_15:53:30 Exp 7345 19 male R 3 5 19 moralSelf immoralSelf mismatch m m 1 0.8338 
07-Jun-2018_15:53:32 Exp 7345 19 male R 3 5 20 moralSelf moralOther mismatch m n 0 0.5830 
07-Jun-2018_15:53:34 Exp 7345 19 male R 3 5 21 immoralSelf moralSelf mismatch m m 1 0.7591 
07-Jun-2018_15:53:36 Exp 7345 19 male R 3 5 22 moralOther moralOther match n n 1 0.9347 
07-Jun-2018_15:53:38 Exp 7345 19 male R 3 5 23 moralOther moralOther match n n 1 0.6139 
07-Jun-2018_15:53:40 Exp 7345 19 male R 3 5 24 immoralSelf immoralSelf match n n 1 0.7467 
Date Prac Sub Age Sex Hand Block Bin Trial Shape Label Match CorrResp Resp ACC RT
07-Jun-2018_15:57:56 Exp 7345 19 male R 1 1 1 moralSelf moralOther mismatch m NA -1 1.1081 
07-Jun-2018_15:57:58 Exp 7345 19 male R 1 1 2 immoralSelf immoralSelf match n n 1 0.9960 
07-Jun-2018_15:58:00 Exp 7345 19 male R 1 1 3 immoralSelf moralSelf mismatch m m 1 0.6324 
07-Jun-2018_15:58:02 Exp 7345 19 male R 1 1 4 immoralSelf immoralSelf match n n 1 0.6376 
07-Jun-2018_15:58:05 Exp 7345 19 male R 1 1 5 moralOther moralSelf mismatch m m 1 0.8429 
07-Jun-2018_15:58:07 Exp 7345 19 male R 1 1 6 immoralOther immoralOther match n n 1 0.7681 
07-Jun-2018_15:58:09 Exp 7345 19 male R 1 1 7 immoralSelf moralSelf mismatch m m 1 0.7720 
07-Jun-2018_15:58:11 Exp 7345 19 male R 1 1 8 immoralSelf immoralSelf match n n 1 0.9199 
07-Jun-2018_15:58:13 Exp 7345 19 male R 1 1 9 moralSelf moralSelf match n n 1 0.7228 
07-Jun-2018_15:58:15 Exp 7345 19 male R 1 1 10 moralOther moralOther match n n 1 0.5177 
07-Jun-2018_15:58:17 Exp 7345 19 male R 1 1 11 moralSelf moralSelf match n n 1 0.5686 
07-Jun-2018_15:58:19 Exp 7345 19 male R 1 1 12 immoralOther moralOther mismatch m m 1 0.5965 
07-Jun-2018_15:58:22 Exp 7345 19 male R 1 1 13 moralSelf moralOther mismatch m m 1 0.8007 
07-Jun-2018_15:58:24 Exp 7345 19 male R 1 1 14 moralOther immoralOther mismatch m n 0 1.0173 
07-Jun-2018_15:58:26 Exp 7345 19 male R 1 1 15 moralOther immoralOther mismatch m m 1 0.7261 
07-Jun-2018_15:58:28 Exp 7345 19 male R 1 1 16 moralSelf moralSelf match n n 1 0.6970 
07-Jun-2018_15:58:31 Exp 7345 19 male R 1 1 17 immoralOther moralOther mismatch m m 1 0.8914 
07-Jun-2018_15:58:33 Exp 7345 19 male R 1 1 18 moralOther moralOther match n n 1 0.7019 
07-Jun-2018_15:58:35 Exp 7345 19 male R 1 1 19 immoralSelf immoralOther mismatch m m 1 0.8324 
07-Jun-2018_15:58:38 Exp 7345 19 male R 1 1 20 immoralOther immoralSelf mismatch m m 1 1.0936 
07-Jun-2018_15:58:40 Exp 7345 19 male R 1 1 21 immoralOther immoralOther match n m 0 1.0401 
07-Jun-2018_15:58:42 Exp 7345 19 male R 1 1 22 moralOther moralOther match n n 1 0.6054 
07-Jun-2018_15:58:44 Exp 7345 19 male R 1 1 23 immoralOther immoralOther match n n 1 0.5499 
07-Jun-2018_15:58:46 Exp 7345 19 male R 1 1 24 moralSelf moralOther mismatch m m 1 0.6813 
07-Jun-2018_15:58:48 Exp 7345 19 male R 1 2 1 immoralOther moralSelf mismatch m m 1 0.7434 
07-Jun-2018_15:58:51 Exp 7345 19 male R 1 2 2 moralOther immoralOther mismatch m n 0 0.8428 
07-Jun-2018_15:58:53 Exp 7345 19 male R 1 2 3 immoralSelf moralOther mismatch m m 1 0.6481 
07-Jun-2018_15:58:55 Exp 7345 19 male R 1 2 4 moralSelf immoralSelf mismatch m m 1 0.8096 
07-Jun-2018_15:58:57 Exp 7345 19 male R 1 2 5 immoralSelf immoralSelf match n n 1 0.6384 
07-Jun-2018_15:58:59 Exp 7345 19 male R 1 2 6 immoralSelf immoralOther mismatch m m 1 0.8756 
07-Jun-2018_15:59:02 Exp 7345 19 male R 1 2 7 moralSelf moralOther mismatch m m 1 0.9976 
07-Jun-2018_15:59:04 Exp 7345 19 male R 1 2 8 immoralOther moralOther mismatch m m 1 0.8542 
07-Jun-2018_15:59:06 Exp 7345 19 male R 1 2 9 immoralSelf immoralSelf match n n 1 0.7437 
07-Jun-2018_15:59:08 Exp 7345 19 male R 1 2 10 immoralOther immoralOther match n n 1 1.0031 
07-Jun-2018_15:59:11 Exp 7345 19 male R 1 2 11 immoralSelf immoralOther mismatch m m 1 1.0755 
07-Jun-2018_15:59:13 Exp 7345 19 male R 1 2 12 moralOther moralOther match n n 1 0.6856 
07-Jun-2018_15:59:15 Exp 7345 19 male R 1 2 13 moralOther moralSelf mismatch m m 1 0.9159 
07-Jun-2018_15:59:18 Exp 7345 19 male R 1 2 14 moralSelf moralSelf match n m 0 0.9987 
07-Jun-2018_15:59:20 Exp 7345 19 male R 1 2 15 immoralSelf immoralSelf match n n 1 0.7673 
07-Jun-2018_15:59:22 Exp 7345 19 male R 1 2 16 immoralOther immoralOther match n n 1 0.6911 
07-Jun-2018_15:59:24 Exp 7345 19 male R 1 2 17 moralSelf immoralSelf mismatch m m 1 0.8377 
07-Jun-2018_15:59:27 Exp 7345 19 male R 1 2 18 immoralOther immoralOther match n n 1 0.7548 
07-Jun-2018_15:59:29 Exp 7345 19 male R 1 2 19 immoralOther immoralSelf mismatch m m 1 0.7865 
07-Jun-2018_15:59:31 Exp 7345 19 male R 1 2 20 moralOther moralOther match n n 1 0.6548 
07-Jun-2018_15:59:33 Exp 7345 19 male R 1 2 21 moralOther moralOther match n n 1 0.6083 
07-Jun-2018_15:59:35 Exp 7345 19 male R 1 2 22 moralSelf moralSelf match n n 1 0.8409 
07-Jun-2018_15:59:38 Exp 7345 19 male R 1 2 23 moralOther immoralOther mismatch m NA -1 1.1081 
07-Jun-2018_15:59:40 Exp 7345 19 male R 1 2 24 moralSelf moralSelf match n n 1 0.6608 
Date Prac Sub Age Sex Hand Block Bin Trial Shape Label Match CorrResp Resp ACC RT
07-Jun-2018_16:03:32 Exp 7345 19 male R 1 1 1 moralSelf immoralOther mismatch m m 1 0.6488 
07-Jun-2018_16:03:34 Exp 7345 19 male R 1 1 2 moralOther moralOther match n n 1 0.6264 
07-Jun-2018_16:03:36 Exp 7345 19 male R 1 1 3 immoralSelf immoralSelf match n n 1 0.8274 
07-Jun-2018_16:03:38 Exp 7345 19 male R 1 1 4 immoralOther immoralOther match n n 1 0.5885 
07-Jun-2018_16:03:40 Exp 7345 19 male R 1 1 5 immoralOther moralSelf mismatch m m 1 0.9208 
07-Jun-2018_16:03:42 Exp 7345 19 male R 1 1 6 immoralOther immoralOther match n n 1 0.6756 
07-Jun-2018_16:03:44 Exp 7345 19 male R 1 1 7 immoralOther immoralSelf mismatch m m 1 0.5576 
07-Jun-2018_16:03:46 Exp 7345 19 male R 1 1 8 moralSelf moralOther mismatch m n 0 0.5333 
07-Jun-2018_16:03:48 Exp 7345 19 male R 1 1 9 immoralSelf immoralSelf match n n 1 0.7163 
07-Jun-2018_16:03:51 Exp 7345 19 male R 1 1 10 moralOther immoralSelf mismatch m m 1 0.7192 
07-Jun-2018_16:03:53 Exp 7345 19 male R 1 1 11 immoralSelf moralSelf mismatch m m 1 0.9382 
07-Jun-2018_16:03:55 Exp 7345 19 male R 1 1 12 immoralSelf immoralOther mismatch m n 0 0.5975 
07-Jun-2018_16:03:57 Exp 7345 19 male R 1 1 13 moralOther moralOther match n n 1 0.9261 
07-Jun-2018_16:03:59 Exp 7345 19 male R 1 1 14 moralOther immoralSelf mismatch m m 1 0.6490 
07-Jun-2018_16:04:02 Exp 7345 19 male R 1 1 15 immoralSelf immoralSelf match n n 1 0.7305 
07-Jun-2018_16:04:04 Exp 7345 19 male R 1 1 16 moralSelf moralSelf match n n 1 0.5616 
07-Jun-2018_16:04:05 Exp 7345 19 male R 1 1 17 moralSelf moralSelf match n n 1 0.5613 
07-Jun-2018_16:04:08 Exp 7345 19 male R 1 1 18 moralOther immoralOther mismatch m m 1 0.8409 
07-Jun-2018_16:04:10 Exp 7345 19 male R 1 1 19 moralSelf moralSelf match n n 1 0.6701 
07-Jun-2018_16:04:12 Exp 7345 19 male R 1 1 20 moralOther moralOther match n n 1 0.6481 
07-Jun-2018_16:04:14 Exp 7345 19 male R 1 1 21 immoralOther immoralOther match n n 1 0.5617 
07-Jun-2018_16:04:16 Exp 7345 19 male R 1 1 22 moralSelf immoralSelf mismatch m n 0 0.6493 
07-Jun-2018_16:04:18 Exp 7345 19 male R 1 1 23 immoralOther moralSelf mismatch m m 1 0.8187 
07-Jun-2018_16:04:21 Exp 7345 19 male R 1 1 24 immoralSelf immoralOther mismatch m m 1 0.9115 
07-Jun-2018_16:04:23 Exp 7345 19 male R 1 2 1 moralSelf immoralOther mismatch m m 1 0.6941 
07-Jun-2018_16:04:25 Exp 7345 19 male R 1 2 2 immoralSelf moralSelf mismatch m n 0 0.8727 
07-Jun-2018_16:04:27 Exp 7345 19 male R 1 2 3 moralOther moralOther match n n 1 0.7386 
07-Jun-2018_16:04:29 Exp 7345 19 male R 1 2 4 immoralSelf immoralSelf match n n 1 0.8060 
07-Jun-2018_16:04:32 Exp 7345 19 male R 1 2 5 immoralOther moralOther mismatch m m 1 0.8305 
07-Jun-2018_16:04:34 Exp 7345 19 male R 1 2 6 moralOther moralOther match n n 1 0.7276 
07-Jun-2018_16:04:36 Exp 7345 19 male R 1 2 7 immoralOther immoralOther match n n 1 0.9027 
07-Jun-2018_16:04:38 Exp 7345 19 male R 1 2 8 moralSelf immoralSelf mismatch m m 1 0.7851 
07-Jun-2018_16:04:40 Exp 7345 19 male R 1 2 9 moralSelf immoralSelf mismatch m m 1 0.6413 
07-Jun-2018_16:04:42 Exp 7345 19 male R 1 2 10 immoralOther moralOther mismatch m n 0 0.5985 
07-Jun-2018_16:04:44 Exp 7345 19 male R 1 2 11 immoralOther immoralOther match n n 1 0.5915 
07-Jun-2018_16:04:47 Exp 7345 19 male R 1 2 12 immoralSelf immoralSelf match n n 1 0.7873 
07-Jun-2018_16:04:49 Exp 7345 19 male R 1 2 13 moralSelf moralSelf match n n 1 0.6077 
07-Jun-2018_16:04:51 Exp 7345 19 male R 1 2 14 moralOther moralOther match n m 0 0.6242 
07-Jun-2018_16:04:53 Exp 7345 19 male R 1 2 15 immoralSelf moralOther mismatch m m 1 0.6653 
07-Jun-2018_16:04:55 Exp 7345 19 male R 1 2 16 immoralOther moralSelf mismatch m m 1 0.8229 
07-Jun-2018_16:04:57 Exp 7345 19 male R 1 2 17 moralSelf moralSelf match n n 1 0.6160 
07-Jun-2018_16:04:59 Exp 7345 19 male R 1 2 18 moralOther immoralOther mismatch m m 1 0.8289 
07-Jun-2018_16:05:01 Exp 7345 19 male R 1 2 19 moralSelf moralSelf match n n 1 0.6858 
07-Jun-2018_16:05:04 Exp 7345 19 male R 1 2 20 immoralOther immoralOther match n m 0 0.9000 
07-Jun-2018_16:05:06 Exp 7345 19 male R 1 2 21 immoralSelf immoralSelf match n n 1 0.7504 
07-Jun-2018_16:05:08 Exp 7345 19 male R 1 2 22 moralOther immoralSelf mismatch m m 1 0.8061 
07-Jun-2018_16:05:10 Exp 7345 19 male R 1 2 23 moralOther immoralOther mismatch m n 0 0.6067 
07-Jun-2018_16:05:13 Exp 7345 19 male R 1 2 24 immoralSelf moralOther mismatch m m 1 1.0472 
Date Prac Sub Age Sex Hand Block Bin Trial Shape Label Match CorrResp Resp ACC RT
07-Jun-2018_16:08:45 Exp 7345 19 male R 1 1 1 immoralOther immoralOther match n NA -1 1.1081 
07-Jun-2018_16:08:47 Exp 7345 19 male R 1 1 2 immoralSelf moralOther mismatch m m 1 0.6317 
07-Jun-2018_16:08:49 Exp 7345 19 male R 1 1 3 immoralOther immoralSelf mismatch m m 1 0.7047 
07-Jun-2018_16:08:51 Exp 7345 19 male R 1 1 4 moralSelf moralOther mismatch m n 0 0.8315 
07-Jun-2018_16:08:54 Exp 7345 19 male R 1 1 5 moralOther immoralOther mismatch m m 1 0.8484 
07-Jun-2018_16:08:56 Exp 7345 19 male R 1 1 6 moralSelf moralSelf match n n 1 0.5939 
07-Jun-2018_16:08:58 Exp 7345 19 male R 1 1 7 immoralOther moralSelf mismatch m m 1 0.5263 
07-Jun-2018_16:09:00 Exp 7345 19 male R 1 1 8 moralSelf immoralSelf mismatch m m 1 0.9131 
07-Jun-2018_16:09:02 Exp 7345 19 male R 1 1 9 moralOther moralOther match n n 1 0.6958 
07-Jun-2018_16:09:04 Exp 7345 19 male R 1 1 10 moralSelf moralSelf match n n 1 0.7862 
07-Jun-2018_16:09:06 Exp 7345 19 male R 1 1 11 immoralOther immoralOther match n n 1 0.7345 
07-Jun-2018_16:09:08 Exp 7345 19 male R 1 1 12 moralSelf immoralSelf mismatch m m 1 0.7338 
07-Jun-2018_16:09:11 Exp 7345 19 male R 1 1 13 moralOther moralSelf mismatch m m 1 0.7649 
07-Jun-2018_16:09:13 Exp 7345 19 male R 1 1 14 moralOther moralOther match n n 1 0.8647 
07-Jun-2018_16:09:15 Exp 7345 19 male R 1 1 15 immoralOther immoralOther match n n 1 0.8864 
07-Jun-2018_16:09:18 Exp 7345 19 male R 1 1 16 immoralSelf immoralOther mismatch m m 1 0.9487 
07-Jun-2018_16:09:20 Exp 7345 19 male R 1 1 17 immoralOther immoralSelf mismatch m m 1 0.8561 
07-Jun-2018_16:09:22 Exp 7345 19 male R 1 1 18 moralSelf moralSelf match n n 1 0.6938 
07-Jun-2018_16:09:24 Exp 7345 19 male R 1 1 19 immoralSelf moralOther mismatch m m 1 0.6482 
07-Jun-2018_16:09:26 Exp 7345 19 male R 1 1 20 immoralSelf immoralSelf match n n 1 0.5537 
07-Jun-2018_16:09:28 Exp 7345 19 male R 1 1 21 immoralSelf immoralSelf match n n 1 0.5693 
07-Jun-2018_16:09:30 Exp 7345 19 male R 1 1 22 moralOther moralSelf mismatch m m 1 0.5812 
07-Jun-2018_16:09:32 Exp 7345 19 male R 1 1 23 immoralSelf immoralSelf match n n 1 0.7013 
07-Jun-2018_16:09:34 Exp 7345 19 male R 1 1 24 moralOther moralOther match n n 1 0.6237 
07-Jun-2018_16:09:36 Exp 7345 19 male R 1 2 1 immoralOther moralSelf mismatch m m 1 0.6167 
07-Jun-2018_16:09:39 Exp 7345 19 male R 1 2 2 immoralSelf immoralSelf match n n 1 1.0136 
07-Jun-2018_16:09:41 Exp 7345 19 male R 1 2 3 immoralOther immoralSelf mismatch m m 1 0.5943 
07-Jun-2018_16:09:43 Exp 7345 19 male R 1 2 4 immoralOther moralOther mismatch m m 1 0.6146 
07-Jun-2018_16:09:45 Exp 7345 19 male R 1 2 5 moralOther moralOther match n n 1 0.5794 
07-Jun-2018_16:09:47 Exp 7345 19 male R 1 2 6 moralOther immoralSelf mismatch m m 1 0.9635 
07-Jun-2018_16:09:49 Exp 7345 19 male R 1 2 7 immoralSelf immoralOther mismatch m n 0 0.5993 
07-Jun-2018_16:09:51 Exp 7345 19 male R 1 2 8 moralSelf immoralSelf mismatch m m 1 0.7119 
07-Jun-2018_16:09:53 Exp 7345 19 male R 1 2 9 moralSelf moralOther mismatch m m 1 0.7666 
07-Jun-2018_16:09:56 Exp 7345 19 male R 1 2 10 immoralOther immoralOther match n n 1 0.8504 
07-Jun-2018_16:09:58 Exp 7345 19 male R 1 2 11 moralSelf immoralOther mismatch m m 1 0.8359 
07-Jun-2018_16:10:00 Exp 7345 19 male R 1 2 12 immoralOther immoralOther match n n 1 0.7372 
07-Jun-2018_16:10:02 Exp 7345 19 male R 1 2 13 moralSelf moralSelf match n n 1 0.7444 
07-Jun-2018_16:10:04 Exp 7345 19 male R 1 2 14 immoralSelf moralSelf mismatch m m 1 0.6677 
07-Jun-2018_16:10:06 Exp 7345 19 male R 1 2 15 immoralSelf immoralSelf match n n 1 0.5497 
07-Jun-2018_16:10:08 Exp 7345 19 male R 1 2 16 moralSelf moralSelf match n n 1 0.5691 
07-Jun-2018_16:10:11 Exp 7345 19 male R 1 2 17 moralOther moralOther match n n 1 0.8209 
07-Jun-2018_16:10:13 Exp 7345 19 male R 1 2 18 moralSelf moralSelf match n n 1 0.7420 
07-Jun-2018_16:10:15 Exp 7345 19 male R 1 2 19 moralOther immoralSelf mismatch m m 1 0.7139 
07-Jun-2018_16:10:17 Exp 7345 19 male R 1 2 20 immoralSelf immoralSelf match n n 1 0.6960 
07-Jun-2018_16:10:19 Exp 7345 19 male R 1 2 21 immoralOther immoralOther match n n 1 0.6825 
07-Jun-2018_16:10:21 Exp 7345 19 male R 1 2 22 moralOther moralOther match n m 0 0.6886 
07-Jun-2018_16:10:24 Exp 7345 19 male R 1 2 23 immoralSelf immoralOther mismatch m m 1 0.8549 
07-Jun-2018_16:10:26 Exp 7345 19 male R 1 2 24 moralOther immoralSelf mismatch m m 1 0.8883 
Date Prac Sub Age Sex Hand Block Bin Trial Shape Label Match CorrResp Resp ACC RT
07-Jun-2018_16:14:10 Exp 7345 19 male R 1 1 1 moralSelf immoralOther mismatch m m 1 0.6848 
07-Jun-2018_16:14:12 Exp 7345 19 male R 1 1 2 moralOther moralOther match n n 1 0.6191 
07-Jun-2018_16:14:14 Exp 7345 19 male R 1 1 3 moralSelf moralSelf match n n 1 0.5519 
07-Jun-2018_16:14:16 Exp 7345 19 male R 1 1 4 moralSelf moralSelf match n n 1 0.6715 
07-Jun-2018_16:14:18 Exp 7345 19 male R 1 1 5 immoralSelf immoralSelf match n n 1 0.6895 
07-Jun-2018_16:14:21 Exp 7345 19 male R 1 1 6 moralOther moralSelf mismatch m m 1 0.8877 
07-Jun-2018_16:14:23 Exp 7345 19 male R 1 1 7 immoralSelf immoralOther mismatch m m 1 0.7499 
07-Jun-2018_16:14:25 Exp 7345 19 male R 1 1 8 immoralSelf moralOther mismatch m m 1 0.9255 
07-Jun-2018_16:14:27 Exp 7345 19 male R 1 1 9 immoralOther moralSelf mismatch m m 1 0.6644 
07-Jun-2018_16:14:29 Exp 7345 19 male R 1 1 10 moralSelf moralSelf match n n 1 0.5822 
07-Jun-2018_16:14:31 Exp 7345 19 male R 1 1 11 immoralSelf immoralSelf match n n 1 0.5422 
07-Jun-2018_16:14:33 Exp 7345 19 male R 1 1 12 immoralOther immoralOther match n n 1 0.5936 
07-Jun-2018_16:14:35 Exp 7345 19 male R 1 1 13 moralOther immoralSelf mismatch m m 1 0.6220 
07-Jun-2018_16:14:37 Exp 7345 19 male R 1 1 14 moralOther moralOther match n n 1 0.6150 
07-Jun-2018_16:14:39 Exp 7345 19 male R 1 1 15 immoralSelf immoralOther mismatch m m 1 0.8677 
07-Jun-2018_16:14:42 Exp 7345 19 male R 1 1 16 immoralOther moralOther mismatch m n 0 0.9577 
07-Jun-2018_16:14:44 Exp 7345 19 male R 1 1 17 immoralOther immoralOther match n n 1 0.6373 
07-Jun-2018_16:14:46 Exp 7345 19 male R 1 1 18 immoralSelf immoralSelf match n n 1 0.7306 
07-Jun-2018_16:14:48 Exp 7345 19 male R 1 1 19 moralOther moralOther match n m 0 0.5458 
07-Jun-2018_16:14:50 Exp 7345 19 male R 1 1 20 moralSelf moralOther mismatch m m 1 0.7491 
07-Jun-2018_16:14:52 Exp 7345 19 male R 1 1 21 moralSelf immoralOther mismatch m m 1 0.7284 
07-Jun-2018_16:14:54 Exp 7345 19 male R 1 1 22 immoralOther immoralOther match n n 1 0.5596 
07-Jun-2018_16:14:56 Exp 7345 19 male R 1 1 23 moralOther moralSelf mismatch m m 1 0.5833 
07-Jun-2018_16:14:58 Exp 7345 19 male R 1 1 24 immoralOther immoralSelf mismatch m m 1 0.6794 
07-Jun-2018_16:15:01 Exp 7345 19 male R 1 2 1 moralSelf moralSelf match n NA -1 1.1081 
07-Jun-2018_16:15:03 Exp 7345 19 male R 1 2 2 moralSelf moralSelf match n n 1 0.5403 
07-Jun-2018_16:15:05 Exp 7345 19 male R 1 2 3 immoralSelf immoralSelf match n n 1 0.7196 
07-Jun-2018_16:15:07 Exp 7345 19 male R 1 2 4 moralSelf moralSelf match n n 1 0.5705 
07-Jun-2018_16:15:09 Exp 7345 19 male R 1 2 5 moralOther moralSelf mismatch m n 0 0.6943 
07-Jun-2018_16:15:11 Exp 7345 19 male R 1 2 6 moralOther immoralOther mismatch m m 1 0.6487 
07-Jun-2018_16:15:13 Exp 7345 19 male R 1 2 7 moralSelf immoralSelf mismatch m m 1 0.8503 
07-Jun-2018_16:15:16 Exp 7345 19 male R 1 2 8 immoralOther immoralSelf mismatch m m 1 0.6517 
07-Jun-2018_16:15:18 Exp 7345 19 male R 1 2 9 immoralOther immoralSelf mismatch m m 1 0.7733 
07-Jun-2018_16:15:20 Exp 7345 19 male R 1 2 10 immoralOther immoralOther match n n 1 1.0091 
07-Jun-2018_16:15:22 Exp 7345 19 male R 1 2 11 moralOther moralOther match n n 1 0.7899 
07-Jun-2018_16:15:25 Exp 7345 19 male R 1 2 12 immoralSelf immoralOther mismatch m m 1 0.7222 
07-Jun-2018_16:15:27 Exp 7345 19 male R 1 2 13 immoralSelf immoralSelf match n n 1 0.8772 
07-Jun-2018_16:15:29 Exp 7345 19 male R 1 2 14 immoralOther immoralOther match n n 1 0.9192 
07-Jun-2018_16:15:31 Exp 7345 19 male R 1 2 15 moralOther moralOther match n n 1 0.6901 
07-Jun-2018_16:15:34 Exp 7345 19 male R 1 2 16 moralSelf immoralSelf mismatch m n 0 0.8323 
07-Jun-2018_16:15:36 Exp 7345 19 male R 1 2 17 immoralSelf moralSelf mismatch m m 1 0.7735 
07-Jun-2018_16:15:38 Exp 7345 19 male R 1 2 18 immoralSelf immoralSelf match n n 1 0.6856 
07-Jun-2018_16:15:40 Exp 7345 19 male R 1 2 19 moralOther immoralSelf mismatch m m 1 0.5877 
07-Jun-2018_16:15:42 Exp 7345 19 male R 1 2 20 immoralSelf moralOther mismatch m m 1 0.8081 
07-Jun-2018_16:15:44 Exp 7345 19 male R 1 2 21 immoralOther moralSelf mismatch m m 1 0.7446 
07-Jun-2018_16:15:47 Exp 7345 19 male R 1 2 22 moralSelf immoralSelf mismatch m m 1 0.9400 
07-Jun-2018_16:15:49 Exp 7345 19 male R 1 2 23 moralOther moralOther match n n 1 0.7113 
07-Jun-2018_16:15:51 Exp 7345 19 male R 1 2 24 immoralOther immoralOther match n n 1 0.8381 
Date Prac Sub Age Sex Hand Block Bin Trial Shape Label Match CorrResp Resp ACC RT
07-Jun-2018_16:19:58 Exp 7345 19 male R 1 1 1 moralOther immoralOther mismatch m NA -1 1.1081 
07-Jun-2018_16:20:00 Exp 7345 19 male R 1 1 2 moralOther immoralSelf mismatch m m 1 0.6313 
07-Jun-2018_16:20:02 Exp 7345 19 male R 1 1 3 moralSelf immoralSelf mismatch m m 1 0.8885 
07-Jun-2018_16:20:04 Exp 7345 19 male R 1 1 4 moralSelf moralSelf match n n 1 0.5026 
07-Jun-2018_16:20:07 Exp 7345 19 male R 1 1 5 moralOther moralOther match n n 1 0.9931 
07-Jun-2018_16:20:09 Exp 7345 19 male R 1 1 6 moralOther moralOther match n n 1 0.5174 
07-Jun-2018_16:20:11 Exp 7345 19 male R 1 1 7 immoralOther moralSelf mismatch m m 1 0.7924 
07-Jun-2018_16:20:13 Exp 7345 19 male R 1 1 8 immoralOther immoralOther match n n 1 0.4846 
07-Jun-2018_16:20:15 Exp 7345 19 male R 1 1 9 moralOther moralOther match n n 1 0.5869 
07-Jun-2018_16:20:17 Exp 7345 19 male R 1 1 10 immoralSelf immoralSelf match n n 1 0.7431 
07-Jun-2018_16:20:19 Exp 7345 19 male R 1 1 11 immoralSelf moralOther mismatch m m 1 0.6826 
07-Jun-2018_16:20:21 Exp 7345 19 male R 1 1 12 immoralSelf moralSelf mismatch m n 0 0.7047 
07-Jun-2018_16:20:23 Exp 7345 19 male R 1 1 13 immoralOther moralOther mismatch m m 1 0.8555 
07-Jun-2018_16:20:26 Exp 7345 19 male R 1 1 14 moralSelf moralSelf match n n 1 0.8410 
07-Jun-2018_16:20:28 Exp 7345 19 male R 1 1 15 moralOther immoralOther mismatch m n 0 0.7102 
07-Jun-2018_16:20:30 Exp 7345 19 male R 1 1 16 immoralSelf immoralSelf match n n 1 0.9249 
07-Jun-2018_16:20:32 Exp 7345 19 male R 1 1 17 immoralOther immoralOther match n n 1 0.6557 
07-Jun-2018_16:20:34 Exp 7345 19 male R 1 1 18 moralSelf immoralOther mismatch m m 1 0.8573 
07-Jun-2018_16:20:37 Exp 7345 19 male R 1 1 19 immoralOther immoralOther match n n 1 0.7909 
07-Jun-2018_16:20:39 Exp 7345 19 male R 1 1 20 moralSelf moralSelf match n n 1 0.6353 
07-Jun-2018_16:20:41 Exp 7345 19 male R 1 1 21 immoralOther moralSelf mismatch m m 1 0.7766 
07-Jun-2018_16:20:43 Exp 7345 19 male R 1 1 22 moralSelf immoralOther mismatch m m 1 0.7366 
07-Jun-2018_16:20:45 Exp 7345 19 male R 1 1 23 immoralSelf immoralSelf match n n 1 0.7199 
07-Jun-2018_16:20:47 Exp 7345 19 male R 1 1 24 immoralSelf moralOther mismatch m m 1 0.7787 
07-Jun-2018_16:20:50 Exp 7345 19 male R 1 2 1 immoralSelf moralOther mismatch m m 1 0.7228 
07-Jun-2018_16:20:52 Exp 7345 19 male R 1 2 2 immoralOther immoralOther match n n 1 0.7098 
07-Jun-2018_16:20:54 Exp 7345 19 male R 1 2 3 immoralOther immoralOther match n n 1 0.6524 
07-Jun-2018_16:20:56 Exp 7345 19 male R 1 2 4 immoralOther moralSelf mismatch m m 1 0.5818 
07-Jun-2018_16:20:58 Exp 7345 19 male R 1 2 5 moralSelf moralSelf match n n 1 0.6220 
07-Jun-2018_16:21:00 Exp 7345 19 male R 1 2 6 immoralOther immoralSelf mismatch m m 1 0.7510 
07-Jun-2018_16:21:02 Exp 7345 19 male R 1 2 7 moralSelf moralSelf match n n 1 0.5826 
07-Jun-2018_16:21:04 Exp 7345 19 male R 1 2 8 immoralOther immoralOther match n n 1 0.8867 
07-Jun-2018_16:21:06 Exp 7345 19 male R 1 2 9 immoralSelf immoralSelf match n n 1 0.7329 
07-Jun-2018_16:21:09 Exp 7345 19 male R 1 2 10 immoralSelf immoralSelf match n n 1 0.7560 
07-Jun-2018_16:21:11 Exp 7345 19 male R 1 2 11 moralOther moralSelf mismatch m m 1 0.8596 
07-Jun-2018_16:21:13 Exp 7345 19 male R 1 2 12 moralOther moralOther match n n 1 0.5613 
07-Jun-2018_16:21:15 Exp 7345 19 male R 1 2 13 moralOther immoralOther mismatch m m 1 0.6490 
07-Jun-2018_16:21:17 Exp 7345 19 male R 1 2 14 immoralSelf moralOther mismatch m m 1 0.7065 
07-Jun-2018_16:21:20 Exp 7345 19 male R 1 2 15 moralOther moralOther match n n 1 1.1051 
07-Jun-2018_16:21:22 Exp 7345 19 male R 1 2 16 immoralSelf moralOther mismatch m m 1 0.6638 
07-Jun-2018_16:21:24 Exp 7345 19 male R 1 2 17 moralSelf immoralSelf mismatch m m 1 0.8055 
07-Jun-2018_16:21:26 Exp 7345 19 male R 1 2 18 moralSelf immoralOther mismatch m m 1 0.7421 
07-Jun-2018_16:21:28 Exp 7345 19 male R 1 2 19 moralSelf moralSelf match n n 1 0.6815 
07-Jun-2018_16:21:30 Exp 7345 19 male R 1 2 20 immoralSelf immoralSelf match n n 1 0.7357 
07-Jun-2018_16:21:32 Exp 7345 19 male R 1 2 21 moralOther moralSelf mismatch m m 1 0.6789 
07-Jun-2018_16:21:35 Exp 7345 19 male R 1 2 22 moralSelf moralOther mismatch m m 1 0.7848 
07-Jun-2018_16:21:37 Exp 7345 19 male R 1 2 23 immoralOther moralOther mismatch m n 0 0.8889 
07-Jun-2018_16:21:39 Exp 7345 19 male R 1 2 24 moralOther moralOther match n n 1 0.7351 
