Date Prac Sub Age Sex Hand Block Bin Trial Shape Label Match CorrResp Resp ACC RT
12-May-2018_16:03:31 Exp 7310 21 2 R 1 1 1 moralOther immoralOther mismatch n n 1 0.5062 
12-May-2018_16:03:33 Exp 7310 21 2 R 1 1 2 immoralSelf immoralSelf match m m 1 0.6682 
12-May-2018_16:03:35 Exp 7310 21 2 R 1 1 3 immoralSelf immoralSelf match m m 1 0.6123 
12-May-2018_16:03:37 Exp 7310 21 2 R 1 1 4 immoralSelf moralOther mismatch n n 1 0.6484 
12-May-2018_16:03:40 Exp 7310 21 2 R 1 1 5 moralOther moralSelf mismatch n n 1 0.7326 
12-May-2018_16:03:42 Exp 7310 21 2 R 1 1 6 moralSelf immoralSelf mismatch n n 1 0.5767 
12-May-2018_16:03:44 Exp 7310 21 2 R 1 1 7 moralSelf moralSelf match m m 1 0.5409 
12-May-2018_16:03:46 Exp 7310 21 2 R 1 1 8 immoralSelf moralSelf mismatch n n 1 0.7193 
12-May-2018_16:03:48 Exp 7310 21 2 R 1 1 9 moralOther moralOther match m m 1 0.4451 
12-May-2018_16:03:50 Exp 7310 21 2 R 1 1 10 moralSelf moralOther mismatch n m 0 0.5152 
12-May-2018_16:03:52 Exp 7310 21 2 R 1 1 11 moralOther immoralSelf mismatch n n 1 0.5153 
12-May-2018_16:03:54 Exp 7310 21 2 R 1 1 12 immoralOther moralSelf mismatch n n 1 0.7154 
12-May-2018_16:03:56 Exp 7310 21 2 R 1 1 13 moralOther moralOther match m m 1 0.5475 
12-May-2018_16:03:58 Exp 7310 21 2 R 1 1 14 moralSelf moralSelf match m m 1 0.5637 
12-May-2018_16:04:00 Exp 7310 21 2 R 1 1 15 moralSelf moralSelf match m m 1 0.5379 
12-May-2018_16:04:03 Exp 7310 21 2 R 1 1 16 immoralSelf moralOther mismatch n n 1 0.6599 
12-May-2018_16:04:05 Exp 7310 21 2 R 1 1 17 immoralSelf immoralSelf match m m 1 0.6541 
12-May-2018_16:04:07 Exp 7310 21 2 R 1 1 18 moralSelf immoralSelf mismatch n m 0 0.9701 
12-May-2018_16:04:09 Exp 7310 21 2 R 1 1 19 moralOther moralOther match m m 1 0.4863 
12-May-2018_16:04:11 Exp 7310 21 2 R 1 1 20 immoralOther moralOther mismatch n n 1 0.6364 
12-May-2018_16:04:14 Exp 7310 21 2 R 1 1 21 immoralOther immoralOther match m m 1 0.8765 
12-May-2018_16:04:16 Exp 7310 21 2 R 1 1 22 immoralOther immoralOther match m n 0 1.0686 
12-May-2018_16:04:19 Exp 7310 21 2 R 1 1 23 immoralOther moralOther mismatch n n 1 0.9249 
12-May-2018_16:04:22 Exp 7310 21 2 R 1 1 24 immoralOther immoralOther match m m 1 1.0830 
12-May-2018_16:04:24 Exp 7310 21 2 R 1 2 1 immoralSelf immoralSelf match m m 1 0.9771 
12-May-2018_16:04:26 Exp 7310 21 2 R 1 2 2 moralSelf moralSelf match m m 1 0.5413 
12-May-2018_16:04:28 Exp 7310 21 2 R 1 2 3 immoralOther immoralSelf mismatch n n 1 0.7673 
12-May-2018_16:04:31 Exp 7310 21 2 R 1 2 4 moralOther immoralOther mismatch n NA -1 1.1430 
12-May-2018_16:04:33 Exp 7310 21 2 R 1 2 5 moralSelf moralSelf match m m 1 0.5496 
12-May-2018_16:04:35 Exp 7310 21 2 R 1 2 6 moralOther moralOther match m m 1 0.6217 
12-May-2018_16:04:38 Exp 7310 21 2 R 1 2 7 immoralSelf moralSelf mismatch n m 0 0.6719 
12-May-2018_16:04:40 Exp 7310 21 2 R 1 2 8 immoralOther immoralSelf mismatch n n 1 0.5920 
12-May-2018_16:04:42 Exp 7310 21 2 R 1 2 9 immoralSelf immoralOther mismatch n n 1 0.6801 
12-May-2018_16:04:44 Exp 7310 21 2 R 1 2 10 immoralSelf moralOther mismatch n n 1 0.6622 
12-May-2018_16:04:46 Exp 7310 21 2 R 1 2 11 moralOther moralOther match m m 1 0.4886 
12-May-2018_16:04:48 Exp 7310 21 2 R 1 2 12 immoralOther immoralOther match m n 0 0.6524 
12-May-2018_16:04:50 Exp 7310 21 2 R 1 2 13 moralOther moralOther match m m 1 0.5606 
12-May-2018_16:04:52 Exp 7310 21 2 R 1 2 14 moralOther immoralSelf mismatch n n 1 0.5507 
12-May-2018_16:04:55 Exp 7310 21 2 R 1 2 15 moralSelf immoralOther mismatch n n 1 0.6868 
12-May-2018_16:04:57 Exp 7310 21 2 R 1 2 16 immoralSelf immoralSelf match m m 1 0.7409 
12-May-2018_16:04:59 Exp 7310 21 2 R 1 2 17 moralSelf moralSelf match m m 1 0.4791 
12-May-2018_16:05:01 Exp 7310 21 2 R 1 2 18 moralSelf immoralSelf mismatch n m 0 0.8132 
12-May-2018_16:05:03 Exp 7310 21 2 R 1 2 19 moralOther immoralOther mismatch n n 1 0.5773 
12-May-2018_16:05:05 Exp 7310 21 2 R 1 2 20 immoralOther moralSelf mismatch n n 1 0.6115 
12-May-2018_16:05:08 Exp 7310 21 2 R 1 2 21 moralSelf immoralOther mismatch n n 1 0.7756 
12-May-2018_16:05:10 Exp 7310 21 2 R 1 2 22 immoralSelf immoralSelf match m m 1 0.6597 
12-May-2018_16:05:12 Exp 7310 21 2 R 1 2 23 immoralOther immoralOther match m m 1 0.7098 
12-May-2018_16:05:14 Exp 7310 21 2 R 1 2 24 immoralOther immoralOther match m m 1 0.4860 
12-May-2018_16:05:16 Exp 7310 21 2 R 1 3 1 immoralSelf immoralSelf match m m 1 0.6601 
12-May-2018_16:05:19 Exp 7310 21 2 R 1 3 2 immoralOther immoralSelf mismatch n n 1 0.8623 
12-May-2018_16:05:21 Exp 7310 21 2 R 1 3 3 immoralSelf immoralOther mismatch n n 1 0.7123 
12-May-2018_16:05:23 Exp 7310 21 2 R 1 3 4 immoralOther moralOther mismatch n m 0 0.5125 
12-May-2018_16:05:25 Exp 7310 21 2 R 1 3 5 moralSelf immoralOther mismatch n n 1 0.6086 
12-May-2018_16:05:28 Exp 7310 21 2 R 1 3 6 immoralSelf moralOther mismatch n n 1 0.8687 
12-May-2018_16:05:30 Exp 7310 21 2 R 1 3 7 moralSelf immoralOther mismatch n n 1 0.6128 
12-May-2018_16:05:32 Exp 7310 21 2 R 1 3 8 immoralOther immoralOther match m n 0 0.5690 
12-May-2018_16:05:34 Exp 7310 21 2 R 1 3 9 moralSelf moralSelf match m m 1 1.0611 
12-May-2018_16:05:37 Exp 7310 21 2 R 1 3 10 immoralOther immoralSelf mismatch n n 1 0.7433 
12-May-2018_16:05:39 Exp 7310 21 2 R 1 3 11 immoralSelf immoralSelf match m n 0 0.7214 
12-May-2018_16:05:41 Exp 7310 21 2 R 1 3 12 moralOther moralOther match m m 1 0.4315 
12-May-2018_16:05:43 Exp 7310 21 2 R 1 3 13 moralOther immoralSelf mismatch n n 1 0.5356 
12-May-2018_16:05:45 Exp 7310 21 2 R 1 3 14 moralOther moralOther match m m 1 0.4677 
12-May-2018_16:05:47 Exp 7310 21 2 R 1 3 15 moralOther moralOther match m m 1 0.5158 
12-May-2018_16:05:49 Exp 7310 21 2 R 1 3 16 immoralSelf moralSelf mismatch n m 0 0.7320 
12-May-2018_16:05:52 Exp 7310 21 2 R 1 3 17 moralOther moralSelf mismatch n n 1 0.7441 
12-May-2018_16:05:54 Exp 7310 21 2 R 1 3 18 immoralSelf immoralSelf match m m 1 0.6342 
12-May-2018_16:05:56 Exp 7310 21 2 R 1 3 19 moralSelf moralSelf match m m 1 0.5544 
12-May-2018_16:05:58 Exp 7310 21 2 R 1 3 20 moralOther moralSelf mismatch n m 0 0.4745 
12-May-2018_16:06:00 Exp 7310 21 2 R 1 3 21 immoralOther immoralOther match m m 1 0.7305 
12-May-2018_16:06:02 Exp 7310 21 2 R 1 3 22 moralSelf moralSelf match m m 1 0.4947 
12-May-2018_16:06:04 Exp 7310 21 2 R 1 3 23 moralSelf moralOther mismatch n n 1 0.7468 
12-May-2018_16:06:06 Exp 7310 21 2 R 1 3 24 immoralOther immoralOther match m m 1 0.5569 
12-May-2018_16:06:29 Exp 7310 21 2 R 1 4 1 moralSelf moralOther mismatch n n 1 0.7281 
12-May-2018_16:06:31 Exp 7310 21 2 R 1 4 2 moralOther immoralSelf mismatch n n 1 0.5163 
12-May-2018_16:06:33 Exp 7310 21 2 R 1 4 3 immoralOther moralOther mismatch n n 1 0.6525 
12-May-2018_16:06:35 Exp 7310 21 2 R 1 4 4 moralSelf moralSelf match m m 1 0.5846 
12-May-2018_16:06:37 Exp 7310 21 2 R 1 4 5 immoralOther moralSelf mismatch n n 1 0.5307 
12-May-2018_16:06:40 Exp 7310 21 2 R 1 4 6 immoralSelf immoralOther mismatch n n 1 0.7508 
12-May-2018_16:06:42 Exp 7310 21 2 R 1 4 7 moralSelf moralSelf match m m 1 0.4709 
12-May-2018_16:06:44 Exp 7310 21 2 R 1 4 8 immoralOther immoralOther match m m 1 0.6550 
12-May-2018_16:06:46 Exp 7310 21 2 R 1 4 9 immoralSelf immoralSelf match m m 1 0.8512 
12-May-2018_16:06:48 Exp 7310 21 2 R 1 4 10 immoralSelf immoralSelf match m m 1 0.6073 
12-May-2018_16:06:50 Exp 7310 21 2 R 1 4 11 moralOther moralOther match m m 1 0.4595 
12-May-2018_16:06:53 Exp 7310 21 2 R 1 4 12 immoralOther immoralSelf mismatch n n 1 0.6376 
12-May-2018_16:06:55 Exp 7310 21 2 R 1 4 13 immoralOther immoralOther match m m 1 0.5797 
12-May-2018_16:06:57 Exp 7310 21 2 R 1 4 14 moralSelf moralOther mismatch n m 0 0.4698 
12-May-2018_16:06:59 Exp 7310 21 2 R 1 4 15 immoralSelf moralOther mismatch n n 1 0.7019 
12-May-2018_16:07:01 Exp 7310 21 2 R 1 4 16 moralOther immoralOther mismatch n n 1 0.5200 
12-May-2018_16:07:03 Exp 7310 21 2 R 1 4 17 immoralOther immoralOther match m m 1 0.6382 
12-May-2018_16:07:05 Exp 7310 21 2 R 1 4 18 moralSelf moralSelf match m m 1 0.4923 
12-May-2018_16:07:07 Exp 7310 21 2 R 1 4 19 moralOther moralOther match m m 1 0.5204 
12-May-2018_16:07:09 Exp 7310 21 2 R 1 4 20 moralOther immoralOther mismatch n n 1 0.5025 
12-May-2018_16:07:11 Exp 7310 21 2 R 1 4 21 immoralSelf immoralSelf match m m 1 0.6326 
12-May-2018_16:07:13 Exp 7310 21 2 R 1 4 22 immoralSelf immoralOther mismatch n n 1 0.5767 
12-May-2018_16:07:16 Exp 7310 21 2 R 1 4 23 moralSelf immoralSelf mismatch n n 1 0.5809 
12-May-2018_16:07:18 Exp 7310 21 2 R 1 4 24 moralOther moralOther match m m 1 0.4630 
12-May-2018_16:07:20 Exp 7310 21 2 R 1 5 1 immoralSelf immoralOther mismatch n n 1 0.6011 
12-May-2018_16:07:22 Exp 7310 21 2 R 1 5 2 immoralOther moralOther mismatch n n 1 0.5672 
12-May-2018_16:07:24 Exp 7310 21 2 R 1 5 3 moralOther moralOther match m n 0 0.5553 
12-May-2018_16:07:26 Exp 7310 21 2 R 1 5 4 moralSelf moralSelf match m m 1 0.6114 
12-May-2018_16:07:28 Exp 7310 21 2 R 1 5 5 moralOther moralOther match m m 1 0.5036 
12-May-2018_16:07:30 Exp 7310 21 2 R 1 5 6 immoralSelf immoralSelf match m m 1 0.5857 
12-May-2018_16:07:32 Exp 7310 21 2 R 1 5 7 immoralSelf immoralSelf match m m 1 0.7077 
12-May-2018_16:07:35 Exp 7310 21 2 R 1 5 8 moralSelf moralSelf match m m 1 0.6200 
12-May-2018_16:07:37 Exp 7310 21 2 R 1 5 9 immoralOther immoralOther match m m 1 0.5740 
12-May-2018_16:07:39 Exp 7310 21 2 R 1 5 10 moralSelf moralSelf match m m 1 0.4741 
12-May-2018_16:07:41 Exp 7310 21 2 R 1 5 11 moralOther immoralOther mismatch n m 0 0.7543 
12-May-2018_16:07:43 Exp 7310 21 2 R 1 5 12 immoralOther immoralOther match m m 1 0.4984 
12-May-2018_16:07:45 Exp 7310 21 2 R 1 5 13 immoralSelf immoralSelf match m m 1 0.6685 
12-May-2018_16:07:48 Exp 7310 21 2 R 1 5 14 moralOther moralSelf mismatch n n 1 0.8366 
12-May-2018_16:07:50 Exp 7310 21 2 R 1 5 15 immoralOther immoralOther match m m 1 0.6608 
12-May-2018_16:07:52 Exp 7310 21 2 R 1 5 16 moralSelf immoralSelf mismatch n n 1 0.7909 
12-May-2018_16:07:54 Exp 7310 21 2 R 1 5 17 immoralSelf moralSelf mismatch n m 0 0.5834 
12-May-2018_16:07:56 Exp 7310 21 2 R 1 5 18 moralOther moralOther match m m 1 0.4731 
12-May-2018_16:07:58 Exp 7310 21 2 R 1 5 19 immoralOther moralSelf mismatch n n 1 0.5933 
12-May-2018_16:08:00 Exp 7310 21 2 R 1 5 20 immoralOther moralSelf mismatch n n 1 0.7054 
12-May-2018_16:08:03 Exp 7310 21 2 R 1 5 21 moralSelf moralOther mismatch n n 1 0.8115 
12-May-2018_16:08:05 Exp 7310 21 2 R 1 5 22 immoralSelf immoralOther mismatch n n 1 0.8076 
12-May-2018_16:08:07 Exp 7310 21 2 R 1 5 23 moralSelf immoralSelf mismatch n n 1 0.6438 
12-May-2018_16:08:09 Exp 7310 21 2 R 1 5 24 moralOther immoralOther mismatch n n 1 0.5859 
12-May-2018_16:08:15 Exp 7310 21 2 R 2 1 1 immoralOther moralSelf mismatch n n 1 0.6802 
12-May-2018_16:08:17 Exp 7310 21 2 R 2 1 2 moralOther moralSelf mismatch n n 1 0.6224 
12-May-2018_16:08:19 Exp 7310 21 2 R 2 1 3 immoralSelf immoralOther mismatch n n 1 0.7285 
12-May-2018_16:08:21 Exp 7310 21 2 R 2 1 4 moralOther moralOther match m m 1 0.5245 
12-May-2018_16:08:23 Exp 7310 21 2 R 2 1 5 immoralOther immoralOther match m m 1 0.8506 
12-May-2018_16:08:26 Exp 7310 21 2 R 2 1 6 immoralSelf immoralSelf match m m 1 0.8308 
12-May-2018_16:08:28 Exp 7310 21 2 R 2 1 7 moralSelf immoralSelf mismatch n m 0 0.6629 
12-May-2018_16:08:30 Exp 7310 21 2 R 2 1 8 moralOther moralSelf mismatch n n 1 0.6011 
12-May-2018_16:08:32 Exp 7310 21 2 R 2 1 9 moralOther moralSelf mismatch n n 1 0.5512 
12-May-2018_16:08:34 Exp 7310 21 2 R 2 1 10 moralSelf immoralOther mismatch n n 1 0.5913 
12-May-2018_16:08:37 Exp 7310 21 2 R 2 1 11 immoralSelf immoralSelf match m m 1 0.6474 
12-May-2018_16:08:39 Exp 7310 21 2 R 2 1 12 immoralSelf immoralSelf match m m 1 0.5475 
12-May-2018_16:08:41 Exp 7310 21 2 R 2 1 13 immoralOther moralSelf mismatch n n 1 0.5636 
12-May-2018_16:08:43 Exp 7310 21 2 R 2 1 14 immoralOther immoralOther match m m 1 0.6818 
12-May-2018_16:08:45 Exp 7310 21 2 R 2 1 15 immoralSelf moralSelf mismatch n m 0 0.5279 
12-May-2018_16:08:47 Exp 7310 21 2 R 2 1 16 moralSelf moralSelf match m m 1 0.5480 
12-May-2018_16:08:49 Exp 7310 21 2 R 2 1 17 moralSelf immoralSelf mismatch n n 1 0.8202 
12-May-2018_16:08:52 Exp 7310 21 2 R 2 1 18 moralSelf moralSelf match m m 1 0.5983 
12-May-2018_16:08:54 Exp 7310 21 2 R 2 1 19 immoralSelf immoralOther mismatch n n 1 0.6605 
12-May-2018_16:08:56 Exp 7310 21 2 R 2 1 20 immoralOther moralSelf mismatch n n 1 0.5906 
12-May-2018_16:08:58 Exp 7310 21 2 R 2 1 21 moralOther moralOther match m m 1 0.4626 
12-May-2018_16:09:00 Exp 7310 21 2 R 2 1 22 moralSelf moralSelf match m m 1 0.5688 
12-May-2018_16:09:02 Exp 7310 21 2 R 2 1 23 immoralOther immoralOther match m n 0 0.5889 
12-May-2018_16:09:04 Exp 7310 21 2 R 2 1 24 moralOther moralOther match m m 1 0.4370 
12-May-2018_16:09:06 Exp 7310 21 2 R 2 2 1 immoralOther immoralSelf mismatch n n 1 0.8851 
12-May-2018_16:09:08 Exp 7310 21 2 R 2 2 2 moralSelf moralSelf match m m 1 0.4673 
12-May-2018_16:09:11 Exp 7310 21 2 R 2 2 3 moralSelf immoralSelf mismatch n n 1 0.7954 
12-May-2018_16:09:13 Exp 7310 21 2 R 2 2 4 moralOther moralOther match m m 1 0.4755 
12-May-2018_16:09:15 Exp 7310 21 2 R 2 2 5 moralOther immoralSelf mismatch n n 1 0.5476 
12-May-2018_16:09:17 Exp 7310 21 2 R 2 2 6 moralOther immoralSelf mismatch n n 1 0.5477 
12-May-2018_16:09:19 Exp 7310 21 2 R 2 2 7 moralSelf immoralOther mismatch n n 1 0.8679 
12-May-2018_16:09:21 Exp 7310 21 2 R 2 2 8 immoralSelf immoralSelf match m m 1 0.6440 
12-May-2018_16:09:24 Exp 7310 21 2 R 2 2 9 immoralSelf moralOther mismatch n n 1 0.5061 
12-May-2018_16:09:26 Exp 7310 21 2 R 2 2 10 immoralOther immoralSelf mismatch n n 1 0.8363 
12-May-2018_16:09:28 Exp 7310 21 2 R 2 2 11 moralOther moralOther match m m 1 0.4684 
12-May-2018_16:09:30 Exp 7310 21 2 R 2 2 12 immoralOther immoralOther match m n 0 0.4925 
12-May-2018_16:09:32 Exp 7310 21 2 R 2 2 13 immoralSelf immoralOther mismatch n n 1 0.5846 
12-May-2018_16:09:34 Exp 7310 21 2 R 2 2 14 moralOther moralOther match m m 1 0.5388 
12-May-2018_16:09:36 Exp 7310 21 2 R 2 2 15 immoralOther immoralOther match m m 1 0.6369 
12-May-2018_16:09:38 Exp 7310 21 2 R 2 2 16 moralSelf moralSelf match m m 1 0.6530 
12-May-2018_16:09:40 Exp 7310 21 2 R 2 2 17 immoralSelf immoralOther mismatch n n 1 0.5371 
12-May-2018_16:09:43 Exp 7310 21 2 R 2 2 18 immoralOther moralSelf mismatch n n 1 0.6612 
12-May-2018_16:09:45 Exp 7310 21 2 R 2 2 19 immoralSelf immoralSelf match m m 1 0.7513 
12-May-2018_16:09:47 Exp 7310 21 2 R 2 2 20 moralOther immoralOther mismatch n n 1 0.5434 
12-May-2018_16:09:49 Exp 7310 21 2 R 2 2 21 moralSelf moralSelf match m m 1 0.6016 
12-May-2018_16:09:51 Exp 7310 21 2 R 2 2 22 immoralSelf immoralSelf match m m 1 0.5677 
12-May-2018_16:09:53 Exp 7310 21 2 R 2 2 23 immoralOther immoralOther match m m 1 0.6358 
12-May-2018_16:09:56 Exp 7310 21 2 R 2 2 24 moralSelf immoralOther mismatch n n 1 0.6040 
12-May-2018_16:09:58 Exp 7310 21 2 R 2 3 1 moralOther moralOther match m m 1 0.5621 
12-May-2018_16:10:00 Exp 7310 21 2 R 2 3 2 immoralSelf moralOther mismatch n n 1 0.6642 
12-May-2018_16:10:02 Exp 7310 21 2 R 2 3 3 moralSelf immoralSelf mismatch n n 1 0.7463 
12-May-2018_16:10:04 Exp 7310 21 2 R 2 3 4 immoralOther immoralSelf mismatch n n 1 0.6764 
12-May-2018_16:10:06 Exp 7310 21 2 R 2 3 5 moralSelf moralSelf match m m 1 0.4846 
12-May-2018_16:10:08 Exp 7310 21 2 R 2 3 6 immoralSelf immoralOther mismatch n n 1 0.5386 
12-May-2018_16:10:11 Exp 7310 21 2 R 2 3 7 moralSelf moralOther mismatch n n 1 0.6527 
12-May-2018_16:10:13 Exp 7310 21 2 R 2 3 8 moralOther immoralSelf mismatch n n 1 0.5369 
12-May-2018_16:10:15 Exp 7310 21 2 R 2 3 9 moralOther moralSelf mismatch n n 1 0.5331 
12-May-2018_16:10:17 Exp 7310 21 2 R 2 3 10 moralSelf moralSelf match m m 1 0.5771 
12-May-2018_16:10:19 Exp 7310 21 2 R 2 3 11 immoralSelf immoralSelf match m n 0 0.5872 
12-May-2018_16:10:21 Exp 7310 21 2 R 2 3 12 moralOther immoralOther mismatch n n 1 0.5953 
12-May-2018_16:10:23 Exp 7310 21 2 R 2 3 13 moralSelf moralSelf match m m 1 0.6915 
12-May-2018_16:10:25 Exp 7310 21 2 R 2 3 14 immoralSelf immoralSelf match m m 1 0.6796 
12-May-2018_16:10:28 Exp 7310 21 2 R 2 3 15 moralOther moralOther match m m 1 0.5257 
12-May-2018_16:10:30 Exp 7310 21 2 R 2 3 16 immoralOther immoralOther match m m 1 0.5959 
12-May-2018_16:10:32 Exp 7310 21 2 R 2 3 17 immoralSelf moralSelf mismatch n m 0 0.5319 
12-May-2018_16:10:34 Exp 7310 21 2 R 2 3 18 immoralOther immoralOther match m m 1 0.7361 
12-May-2018_16:10:36 Exp 7310 21 2 R 2 3 19 moralOther moralOther match m m 1 0.4842 
12-May-2018_16:10:38 Exp 7310 21 2 R 2 3 20 immoralSelf immoralSelf match m n 0 0.8903 
12-May-2018_16:10:40 Exp 7310 21 2 R 2 3 21 moralSelf moralOther mismatch n n 1 0.5985 
12-May-2018_16:10:43 Exp 7310 21 2 R 2 3 22 immoralOther immoralOther match m m 1 0.5326 
12-May-2018_16:10:45 Exp 7310 21 2 R 2 3 23 immoralOther moralSelf mismatch n n 1 0.5767 
12-May-2018_16:10:47 Exp 7310 21 2 R 2 3 24 immoralOther moralSelf mismatch n n 1 0.6288 
12-May-2018_16:11:06 Exp 7310 21 2 R 2 4 1 immoralSelf immoralSelf match m m 1 0.7859 
12-May-2018_16:11:08 Exp 7310 21 2 R 2 4 2 immoralOther immoralOther match m m 1 0.5561 
12-May-2018_16:11:10 Exp 7310 21 2 R 2 4 3 immoralSelf immoralOther mismatch n n 1 0.6682 
12-May-2018_16:11:13 Exp 7310 21 2 R 2 4 4 moralSelf moralOther mismatch n n 1 0.8363 
12-May-2018_16:11:15 Exp 7310 21 2 R 2 4 5 immoralSelf immoralSelf match m m 1 0.6604 
12-May-2018_16:11:17 Exp 7310 21 2 R 2 4 6 immoralOther immoralOther match m m 1 0.5906 
12-May-2018_16:11:19 Exp 7310 21 2 R 2 4 7 immoralSelf immoralSelf match m m 1 0.7667 
12-May-2018_16:11:21 Exp 7310 21 2 R 2 4 8 moralOther moralOther match m m 1 0.4848 
12-May-2018_16:11:24 Exp 7310 21 2 R 2 4 9 moralOther moralSelf mismatch n n 1 0.6509 
12-May-2018_16:11:26 Exp 7310 21 2 R 2 4 10 immoralOther moralOther mismatch n n 1 0.6471 
12-May-2018_16:11:28 Exp 7310 21 2 R 2 4 11 immoralOther immoralSelf mismatch n n 1 0.6211 
12-May-2018_16:11:30 Exp 7310 21 2 R 2 4 12 moralSelf immoralSelf mismatch n n 1 0.6235 
12-May-2018_16:11:32 Exp 7310 21 2 R 2 4 13 immoralSelf immoralOther mismatch n n 1 0.6255 
12-May-2018_16:11:34 Exp 7310 21 2 R 2 4 14 immoralOther immoralOther match m m 1 0.6995 
12-May-2018_16:11:36 Exp 7310 21 2 R 2 4 15 immoralOther immoralSelf mismatch n n 1 0.5176 
12-May-2018_16:11:39 Exp 7310 21 2 R 2 4 16 moralOther moralSelf mismatch n n 1 0.6197 
12-May-2018_16:11:41 Exp 7310 21 2 R 2 4 17 moralSelf moralSelf match m m 1 0.4939 
12-May-2018_16:11:43 Exp 7310 21 2 R 2 4 18 immoralSelf moralSelf mismatch n n 1 0.5381 
12-May-2018_16:11:45 Exp 7310 21 2 R 2 4 19 moralOther moralOther match m m 1 0.4602 
12-May-2018_16:11:47 Exp 7310 21 2 R 2 4 20 moralSelf moralSelf match m n 0 0.6542 
12-May-2018_16:11:49 Exp 7310 21 2 R 2 4 21 moralOther moralOther match m m 1 0.4664 
12-May-2018_16:11:51 Exp 7310 21 2 R 2 4 22 moralSelf moralSelf match m m 1 0.4605 
12-May-2018_16:11:53 Exp 7310 21 2 R 2 4 23 moralOther moralSelf mismatch n n 1 0.5426 
12-May-2018_16:11:55 Exp 7310 21 2 R 2 4 24 moralSelf immoralOther mismatch n n 1 0.7447 
12-May-2018_16:11:57 Exp 7310 21 2 R 2 5 1 moralSelf moralSelf match m m 1 0.6588 
12-May-2018_16:12:00 Exp 7310 21 2 R 2 5 2 immoralOther immoralOther match m m 1 0.7409 
12-May-2018_16:12:02 Exp 7310 21 2 R 2 5 3 moralOther moralOther match m m 1 0.5431 
12-May-2018_16:12:04 Exp 7310 21 2 R 2 5 4 immoralSelf moralOther mismatch n n 1 0.6653 
12-May-2018_16:12:06 Exp 7310 21 2 R 2 5 5 immoralSelf immoralSelf match m m 1 0.8033 
12-May-2018_16:12:08 Exp 7310 21 2 R 2 5 6 moralOther immoralSelf mismatch n n 1 0.5374 
12-May-2018_16:12:10 Exp 7310 21 2 R 2 5 7 moralSelf moralSelf match m m 1 0.5716 
12-May-2018_16:12:13 Exp 7310 21 2 R 2 5 8 immoralOther immoralSelf mismatch n n 1 0.6157 
12-May-2018_16:12:15 Exp 7310 21 2 R 2 5 9 immoralOther immoralOther match m m 1 0.7158 
12-May-2018_16:12:17 Exp 7310 21 2 R 2 5 10 moralOther moralOther match m m 1 0.5399 
12-May-2018_16:12:19 Exp 7310 21 2 R 2 5 11 moralOther moralOther match m m 1 0.5100 
12-May-2018_16:12:21 Exp 7310 21 2 R 2 5 12 immoralOther moralSelf mismatch n n 1 0.5582 
12-May-2018_16:12:23 Exp 7310 21 2 R 2 5 13 immoralOther immoralOther match m m 1 0.5243 
12-May-2018_16:12:25 Exp 7310 21 2 R 2 5 14 immoralSelf immoralSelf match m m 1 0.6104 
12-May-2018_16:12:27 Exp 7310 21 2 R 2 5 15 moralSelf immoralOther mismatch n n 1 0.6065 
12-May-2018_16:12:29 Exp 7310 21 2 R 2 5 16 moralOther moralSelf mismatch n n 1 0.5487 
12-May-2018_16:12:31 Exp 7310 21 2 R 2 5 17 moralSelf moralSelf match m m 1 0.4368 
12-May-2018_16:12:34 Exp 7310 21 2 R 2 5 18 immoralOther moralSelf mismatch n n 1 0.6770 
12-May-2018_16:12:36 Exp 7310 21 2 R 2 5 19 immoralSelf immoralSelf match m m 1 0.5570 
12-May-2018_16:12:38 Exp 7310 21 2 R 2 5 20 moralOther immoralSelf mismatch n n 1 0.5331 
12-May-2018_16:12:40 Exp 7310 21 2 R 2 5 21 immoralSelf immoralOther mismatch n n 1 0.6572 
12-May-2018_16:12:42 Exp 7310 21 2 R 2 5 22 immoralSelf moralSelf mismatch n n 1 0.9794 
12-May-2018_16:12:45 Exp 7310 21 2 R 2 5 23 moralSelf immoralSelf mismatch n n 1 0.7495 
12-May-2018_16:12:47 Exp 7310 21 2 R 2 5 24 moralSelf immoralSelf mismatch n n 1 0.6776 
12-May-2018_16:12:52 Exp 7310 21 2 R 3 1 1 immoralOther moralSelf mismatch n n 1 0.5919 
12-May-2018_16:12:54 Exp 7310 21 2 R 3 1 2 immoralOther moralOther mismatch n n 1 0.6161 
12-May-2018_16:12:56 Exp 7310 21 2 R 3 1 3 moralSelf moralSelf match m m 1 0.4922 
12-May-2018_16:12:58 Exp 7310 21 2 R 3 1 4 immoralSelf immoralSelf match m m 1 0.6482 
12-May-2018_16:13:00 Exp 7310 21 2 R 3 1 5 moralSelf moralSelf match m m 1 0.4764 
12-May-2018_16:13:02 Exp 7310 21 2 R 3 1 6 moralSelf moralOther mismatch n m 0 0.4926 
12-May-2018_16:13:04 Exp 7310 21 2 R 3 1 7 moralOther immoralSelf mismatch n n 1 0.5367 
12-May-2018_16:13:06 Exp 7310 21 2 R 3 1 8 moralOther moralOther match m m 1 0.5407 
12-May-2018_16:13:09 Exp 7310 21 2 R 3 1 9 moralSelf moralOther mismatch n n 1 0.7590 
12-May-2018_16:13:11 Exp 7310 21 2 R 3 1 10 immoralSelf immoralSelf match m m 1 0.5170 
12-May-2018_16:13:13 Exp 7310 21 2 R 3 1 11 moralSelf moralSelf match m m 1 0.5091 
12-May-2018_16:13:15 Exp 7310 21 2 R 3 1 12 moralOther moralOther match m m 1 0.4932 
12-May-2018_16:13:17 Exp 7310 21 2 R 3 1 13 immoralSelf moralOther mismatch n n 1 0.6173 
12-May-2018_16:13:19 Exp 7310 21 2 R 3 1 14 immoralSelf moralSelf mismatch n n 1 0.7235 
12-May-2018_16:13:21 Exp 7310 21 2 R 3 1 15 immoralOther immoralOther match m n 0 0.5537 
12-May-2018_16:13:23 Exp 7310 21 2 R 3 1 16 immoralOther immoralOther match m n 0 0.5697 
12-May-2018_16:13:26 Exp 7310 21 2 R 3 1 17 moralOther immoralOther mismatch n n 1 0.5819 
12-May-2018_16:13:28 Exp 7310 21 2 R 3 1 18 immoralSelf moralOther mismatch n n 1 0.5759 
12-May-2018_16:13:30 Exp 7310 21 2 R 3 1 19 moralSelf moralOther mismatch n n 1 0.6921 
12-May-2018_16:13:32 Exp 7310 21 2 R 3 1 20 immoralSelf immoralSelf match m m 1 0.5842 
12-May-2018_16:13:34 Exp 7310 21 2 R 3 1 21 immoralOther immoralOther match m m 1 0.6503 
12-May-2018_16:13:36 Exp 7310 21 2 R 3 1 22 immoralOther immoralSelf mismatch n n 1 0.6865 
12-May-2018_16:13:38 Exp 7310 21 2 R 3 1 23 moralOther moralOther match m m 1 0.5325 
12-May-2018_16:13:40 Exp 7310 21 2 R 3 1 24 moralOther immoralOther mismatch n n 1 0.5127 
12-May-2018_16:13:43 Exp 7310 21 2 R 3 2 1 moralSelf immoralSelf mismatch n n 1 0.6409 
12-May-2018_16:13:45 Exp 7310 21 2 R 3 2 2 moralOther moralOther match m m 1 0.4949 
12-May-2018_16:13:47 Exp 7310 21 2 R 3 2 3 moralSelf moralSelf match m n 0 0.6990 
12-May-2018_16:13:49 Exp 7310 21 2 R 3 2 4 immoralSelf immoralSelf match m m 1 0.7572 
12-May-2018_16:13:51 Exp 7310 21 2 R 3 2 5 moralOther immoralSelf mismatch n n 1 0.5714 
12-May-2018_16:13:53 Exp 7310 21 2 R 3 2 6 immoralSelf immoralSelf match m m 1 0.5994 
12-May-2018_16:13:56 Exp 7310 21 2 R 3 2 7 moralOther immoralOther mismatch n n 1 0.6536 
12-May-2018_16:13:58 Exp 7310 21 2 R 3 2 8 moralOther moralOther match m m 1 0.5856 
12-May-2018_16:14:00 Exp 7310 21 2 R 3 2 9 immoralOther immoralOther match m m 1 0.4758 
12-May-2018_16:14:02 Exp 7310 21 2 R 3 2 10 immoralOther immoralSelf mismatch n n 1 0.5719 
12-May-2018_16:14:04 Exp 7310 21 2 R 3 2 11 moralSelf moralOther mismatch n n 1 0.6240 
12-May-2018_16:14:06 Exp 7310 21 2 R 3 2 12 immoralSelf immoralOther mismatch n n 1 0.7621 
12-May-2018_16:14:08 Exp 7310 21 2 R 3 2 13 moralSelf moralSelf match m m 1 0.5283 
12-May-2018_16:14:10 Exp 7310 21 2 R 3 2 14 moralSelf immoralOther mismatch n n 1 0.5804 
12-May-2018_16:14:13 Exp 7310 21 2 R 3 2 15 moralSelf moralSelf match m m 1 0.8145 
12-May-2018_16:14:15 Exp 7310 21 2 R 3 2 16 immoralSelf moralSelf mismatch n n 1 0.6587 
12-May-2018_16:14:17 Exp 7310 21 2 R 3 2 17 immoralSelf moralSelf mismatch n m 0 1.0208 
12-May-2018_16:14:20 Exp 7310 21 2 R 3 2 18 moralOther moralOther match m m 1 0.6870 
12-May-2018_16:14:22 Exp 7310 21 2 R 3 2 19 moralOther immoralSelf mismatch n n 1 0.6450 
12-May-2018_16:14:24 Exp 7310 21 2 R 3 2 20 immoralOther moralOther mismatch n n 1 0.6432 
12-May-2018_16:14:26 Exp 7310 21 2 R 3 2 21 immoralOther immoralOther match m m 1 0.6173 
12-May-2018_16:14:28 Exp 7310 21 2 R 3 2 22 immoralOther immoralSelf mismatch n n 1 0.5954 
12-May-2018_16:14:30 Exp 7310 21 2 R 3 2 23 immoralOther immoralOther match m m 1 0.5235 
12-May-2018_16:14:33 Exp 7310 21 2 R 3 2 24 immoralSelf immoralSelf match m m 1 0.6576 
12-May-2018_16:14:35 Exp 7310 21 2 R 3 3 1 moralOther moralSelf mismatch n n 1 0.6437 
12-May-2018_16:14:37 Exp 7310 21 2 R 3 3 2 moralSelf moralSelf match m m 1 0.6260 
12-May-2018_16:14:39 Exp 7310 21 2 R 3 3 3 immoralOther moralOther mismatch n n 1 0.9560 
12-May-2018_16:14:42 Exp 7310 21 2 R 3 3 4 immoralSelf immoralOther mismatch n n 1 0.6201 
12-May-2018_16:14:44 Exp 7310 21 2 R 3 3 5 immoralSelf moralSelf mismatch n n 1 0.9183 
12-May-2018_16:14:46 Exp 7310 21 2 R 3 3 6 moralSelf moralOther mismatch n n 1 0.6444 
12-May-2018_16:14:48 Exp 7310 21 2 R 3 3 7 moralSelf moralSelf match m m 1 0.4905 
12-May-2018_16:14:50 Exp 7310 21 2 R 3 3 8 moralOther immoralOther mismatch n n 1 0.5347 
12-May-2018_16:14:52 Exp 7310 21 2 R 3 3 9 moralOther moralOther match m m 1 0.5948 
12-May-2018_16:14:54 Exp 7310 21 2 R 3 3 10 moralOther immoralSelf mismatch n n 1 0.6189 
12-May-2018_16:14:57 Exp 7310 21 2 R 3 3 11 moralSelf immoralOther mismatch n n 1 0.5490 
12-May-2018_16:14:59 Exp 7310 21 2 R 3 3 12 immoralOther immoralOther match m m 1 0.6291 
12-May-2018_16:15:01 Exp 7310 21 2 R 3 3 13 moralOther moralOther match m m 1 0.5332 
12-May-2018_16:15:03 Exp 7310 21 2 R 3 3 14 immoralSelf immoralSelf match m m 1 0.6414 
12-May-2018_16:15:05 Exp 7310 21 2 R 3 3 15 immoralOther immoralOther match m m 1 0.5915 
12-May-2018_16:15:07 Exp 7310 21 2 R 3 3 16 immoralOther moralSelf mismatch n n 1 0.5036 
12-May-2018_16:15:09 Exp 7310 21 2 R 3 3 17 immoralOther immoralOther match m m 1 0.5457 
12-May-2018_16:15:11 Exp 7310 21 2 R 3 3 18 moralSelf moralOther mismatch n n 1 0.6358 
12-May-2018_16:15:13 Exp 7310 21 2 R 3 3 19 immoralSelf immoralSelf match m m 1 0.6359 
12-May-2018_16:15:16 Exp 7310 21 2 R 3 3 20 moralSelf moralSelf match m m 1 0.6601 
12-May-2018_16:15:18 Exp 7310 21 2 R 3 3 21 immoralSelf immoralOther mismatch n n 1 0.6542 
12-May-2018_16:15:20 Exp 7310 21 2 R 3 3 22 immoralOther immoralSelf mismatch n n 1 0.6424 
12-May-2018_16:15:22 Exp 7310 21 2 R 3 3 23 immoralSelf immoralSelf match m m 1 0.5284 
12-May-2018_16:15:24 Exp 7310 21 2 R 3 3 24 moralOther moralOther match m m 1 0.5086 
12-May-2018_16:15:40 Exp 7310 21 2 R 3 4 1 immoralSelf immoralSelf match m m 1 0.6016 
12-May-2018_16:15:42 Exp 7310 21 2 R 3 4 2 moralOther moralOther match m m 1 0.4876 
12-May-2018_16:15:44 Exp 7310 21 2 R 3 4 3 immoralSelf immoralOther mismatch n n 1 0.5397 
12-May-2018_16:15:47 Exp 7310 21 2 R 3 4 4 moralOther immoralOther mismatch n n 1 0.9419 
12-May-2018_16:15:49 Exp 7310 21 2 R 3 4 5 immoralSelf immoralSelf match m m 1 0.7440 
12-May-2018_16:15:51 Exp 7310 21 2 R 3 4 6 immoralSelf immoralSelf match m m 1 0.5941 
12-May-2018_16:15:53 Exp 7310 21 2 R 3 4 7 immoralSelf immoralOther mismatch n n 1 0.5542 
12-May-2018_16:15:55 Exp 7310 21 2 R 3 4 8 moralSelf moralSelf match m m 1 0.5063 
12-May-2018_16:15:57 Exp 7310 21 2 R 3 4 9 moralSelf immoralOther mismatch n n 1 0.5565 
12-May-2018_16:16:00 Exp 7310 21 2 R 3 4 10 immoralOther immoralOther match m m 1 0.6366 
12-May-2018_16:16:02 Exp 7310 21 2 R 3 4 11 immoralOther immoralOther match m m 1 0.5007 
12-May-2018_16:16:04 Exp 7310 21 2 R 3 4 12 moralSelf immoralSelf mismatch n n 1 0.7508 
12-May-2018_16:16:06 Exp 7310 21 2 R 3 4 13 moralSelf moralOther mismatch n n 1 0.6790 
12-May-2018_16:16:08 Exp 7310 21 2 R 3 4 14 moralOther moralSelf mismatch n n 1 0.7251 
12-May-2018_16:16:10 Exp 7310 21 2 R 3 4 15 immoralSelf immoralOther mismatch n n 1 0.6032 
12-May-2018_16:16:12 Exp 7310 21 2 R 3 4 16 moralSelf moralSelf match m m 1 0.5135 
12-May-2018_16:16:15 Exp 7310 21 2 R 3 4 17 immoralOther moralOther mismatch n n 1 0.5374 
12-May-2018_16:16:16 Exp 7310 21 2 R 3 4 18 moralOther moralOther match m m 1 0.4355 
12-May-2018_16:16:19 Exp 7310 21 2 R 3 4 19 immoralOther moralOther mismatch n n 1 0.5397 
12-May-2018_16:16:21 Exp 7310 21 2 R 3 4 20 moralSelf moralSelf match m m 1 0.6058 
12-May-2018_16:16:23 Exp 7310 21 2 R 3 4 21 moralOther immoralOther mismatch n n 1 0.4839 
12-May-2018_16:16:25 Exp 7310 21 2 R 3 4 22 immoralOther moralSelf mismatch n n 1 0.5220 
12-May-2018_16:16:27 Exp 7310 21 2 R 3 4 23 moralOther moralOther match m m 1 0.5522 
12-May-2018_16:16:29 Exp 7310 21 2 R 3 4 24 immoralOther immoralOther match m m 1 0.7203 
12-May-2018_16:16:31 Exp 7310 21 2 R 3 5 1 immoralOther immoralOther match m m 1 0.6464 
12-May-2018_16:16:33 Exp 7310 21 2 R 3 5 2 moralSelf moralSelf match m m 1 0.5565 
12-May-2018_16:16:35 Exp 7310 21 2 R 3 5 3 immoralOther moralSelf mismatch n n 1 0.5887 
12-May-2018_16:16:38 Exp 7310 21 2 R 3 5 4 moralOther immoralOther mismatch n n 1 0.5247 
12-May-2018_16:16:40 Exp 7310 21 2 R 3 5 5 moralOther moralOther match m m 1 0.5389 
12-May-2018_16:16:42 Exp 7310 21 2 R 3 5 6 immoralSelf moralSelf mismatch n n 1 0.6931 
12-May-2018_16:16:44 Exp 7310 21 2 R 3 5 7 moralOther moralOther match m m 1 0.5051 
12-May-2018_16:16:46 Exp 7310 21 2 R 3 5 8 immoralSelf immoralSelf match m m 1 0.5872 
12-May-2018_16:16:48 Exp 7310 21 2 R 3 5 9 moralSelf immoralOther mismatch n n 1 0.6193 
12-May-2018_16:16:50 Exp 7310 21 2 R 3 5 10 immoralOther immoralOther match m m 1 0.6295 
12-May-2018_16:16:52 Exp 7310 21 2 R 3 5 11 moralOther moralOther match m m 1 0.5096 
12-May-2018_16:16:54 Exp 7310 21 2 R 3 5 12 moralSelf moralSelf match m m 1 0.4937 
12-May-2018_16:16:56 Exp 7310 21 2 R 3 5 13 moralSelf immoralSelf mismatch n n 1 0.5378 
12-May-2018_16:16:59 Exp 7310 21 2 R 3 5 14 moralOther moralSelf mismatch n n 1 0.6039 
12-May-2018_16:17:01 Exp 7310 21 2 R 3 5 15 immoralOther immoralOther match m m 1 0.5620 
12-May-2018_16:17:03 Exp 7310 21 2 R 3 5 16 moralSelf moralOther mismatch n n 1 0.5282 
12-May-2018_16:17:05 Exp 7310 21 2 R 3 5 17 moralSelf moralSelf match m m 1 0.5003 
12-May-2018_16:17:07 Exp 7310 21 2 R 3 5 18 immoralSelf immoralSelf match m m 1 0.5904 
12-May-2018_16:17:09 Exp 7310 21 2 R 3 5 19 immoralOther moralSelf mismatch n n 1 0.6625 
12-May-2018_16:17:11 Exp 7310 21 2 R 3 5 20 immoralOther moralSelf mismatch n n 1 0.5766 
12-May-2018_16:17:13 Exp 7310 21 2 R 3 5 21 immoralSelf immoralOther mismatch n n 1 0.5489 
12-May-2018_16:17:15 Exp 7310 21 2 R 3 5 22 moralOther moralSelf mismatch n n 1 0.5809 
12-May-2018_16:17:17 Exp 7310 21 2 R 3 5 23 immoralSelf immoralOther mismatch n n 1 0.5270 
12-May-2018_16:17:20 Exp 7310 21 2 R 3 5 24 immoralSelf immoralSelf match m m 1 0.9811 
Date Prac Sub Age Sex Hand Block Bin Trial Shape Label Match CorrResp Resp ACC RT
12-May-2018_16:22:33 Exp 7310 21 2 R 1 1 1 moralOther moralOther match m m 1 0.6829 
12-May-2018_16:22:35 Exp 7310 21 2 R 1 1 2 moralSelf moralSelf match m m 1 0.6010 
12-May-2018_16:22:37 Exp 7310 21 2 R 1 1 3 immoralSelf moralOther mismatch n n 1 0.6711 
12-May-2018_16:22:40 Exp 7310 21 2 R 1 1 4 immoralOther immoralSelf mismatch n n 1 0.7351 
12-May-2018_16:22:42 Exp 7310 21 2 R 1 1 5 moralOther moralOther match m m 1 0.4434 
12-May-2018_16:22:44 Exp 7310 21 2 R 1 1 6 moralSelf moralOther mismatch n n 1 0.8095 
12-May-2018_16:22:46 Exp 7310 21 2 R 1 1 7 immoralOther moralOther mismatch n n 1 0.5416 
12-May-2018_16:22:48 Exp 7310 21 2 R 1 1 8 moralOther moralSelf mismatch n n 1 0.6077 
12-May-2018_16:22:50 Exp 7310 21 2 R 1 1 9 immoralSelf immoralSelf match m m 1 0.6999 
12-May-2018_16:22:53 Exp 7310 21 2 R 1 1 10 immoralOther immoralSelf mismatch n n 1 0.5260 
12-May-2018_16:22:55 Exp 7310 21 2 R 1 1 11 moralSelf moralOther mismatch n n 1 0.8041 
12-May-2018_16:22:57 Exp 7310 21 2 R 1 1 12 moralSelf moralSelf match m m 1 0.6342 
12-May-2018_16:22:59 Exp 7310 21 2 R 1 1 13 moralSelf immoralSelf mismatch n n 1 0.6344 
12-May-2018_16:23:01 Exp 7310 21 2 R 1 1 14 immoralSelf immoralSelf match m m 1 0.5545 
12-May-2018_16:23:04 Exp 7310 21 2 R 1 1 15 moralOther moralOther match m m 1 0.7386 
12-May-2018_16:23:06 Exp 7310 21 2 R 1 1 16 immoralSelf immoralOther mismatch n n 1 0.7167 
12-May-2018_16:23:08 Exp 7310 21 2 R 1 1 17 immoralOther immoralOther match m m 1 0.6288 
12-May-2018_16:23:10 Exp 7310 21 2 R 1 1 18 moralOther immoralOther mismatch n n 1 0.5570 
12-May-2018_16:23:12 Exp 7310 21 2 R 1 1 19 immoralSelf moralSelf mismatch n n 1 0.7332 
12-May-2018_16:23:14 Exp 7310 21 2 R 1 1 20 moralOther immoralOther mismatch n n 1 0.6653 
12-May-2018_16:23:17 Exp 7310 21 2 R 1 1 21 immoralOther immoralOther match m m 1 0.5793 
12-May-2018_16:23:19 Exp 7310 21 2 R 1 1 22 moralSelf moralSelf match m m 1 0.5814 
12-May-2018_16:23:21 Exp 7310 21 2 R 1 1 23 immoralOther immoralOther match m m 1 0.5756 
12-May-2018_16:23:23 Exp 7310 21 2 R 1 1 24 immoralSelf immoralSelf match m m 1 0.8037 
12-May-2018_16:23:25 Exp 7310 21 2 R 1 2 1 immoralSelf immoralSelf match m m 1 0.5858 
12-May-2018_16:23:28 Exp 7310 21 2 R 1 2 2 moralOther immoralOther mismatch n n 1 0.8599 
12-May-2018_16:23:30 Exp 7310 21 2 R 1 2 3 moralSelf immoralOther mismatch n n 1 0.8221 
12-May-2018_16:23:32 Exp 7310 21 2 R 1 2 4 moralOther moralSelf mismatch n n 1 0.6083 
12-May-2018_16:23:34 Exp 7310 21 2 R 1 2 5 moralSelf moralSelf match m m 1 0.5003 
12-May-2018_16:23:36 Exp 7310 21 2 R 1 2 6 immoralOther moralOther mismatch n n 1 0.8385 
12-May-2018_16:23:39 Exp 7310 21 2 R 1 2 7 immoralOther immoralOther match m m 1 0.5886 
12-May-2018_16:23:41 Exp 7310 21 2 R 1 2 8 immoralSelf immoralSelf match m m 1 0.6448 
12-May-2018_16:23:43 Exp 7310 21 2 R 1 2 9 moralSelf moralSelf match m m 1 0.4669 
12-May-2018_16:23:45 Exp 7310 21 2 R 1 2 10 immoralSelf moralSelf mismatch n n 1 0.5969 
12-May-2018_16:23:47 Exp 7310 21 2 R 1 2 11 moralSelf moralOther mismatch n m 0 0.5090 
12-May-2018_16:23:49 Exp 7310 21 2 R 1 2 12 moralSelf immoralOther mismatch n n 1 0.6612 
12-May-2018_16:23:51 Exp 7310 21 2 R 1 2 13 immoralOther moralSelf mismatch n n 1 0.6233 
12-May-2018_16:23:54 Exp 7310 21 2 R 1 2 14 immoralSelf moralSelf mismatch n n 1 0.7854 
12-May-2018_16:23:56 Exp 7310 21 2 R 1 2 15 moralOther immoralSelf mismatch n n 1 0.4996 
12-May-2018_16:23:58 Exp 7310 21 2 R 1 2 16 immoralOther immoralOther match m m 1 0.6216 
12-May-2018_16:24:00 Exp 7310 21 2 R 1 2 17 immoralSelf moralOther mismatch n n 1 0.5998 
12-May-2018_16:24:02 Exp 7310 21 2 R 1 2 18 moralOther moralOther match m m 1 0.6139 
12-May-2018_16:24:04 Exp 7310 21 2 R 1 2 19 immoralSelf immoralSelf match m m 1 0.6500 
12-May-2018_16:24:06 Exp 7310 21 2 R 1 2 20 moralOther moralOther match m n 0 0.5501 
12-May-2018_16:24:08 Exp 7310 21 2 R 1 2 21 immoralOther moralSelf mismatch n n 1 0.5903 
12-May-2018_16:24:10 Exp 7310 21 2 R 1 2 22 moralSelf moralSelf match m m 1 0.5184 
12-May-2018_16:24:13 Exp 7310 21 2 R 1 2 23 moralOther moralOther match m m 1 0.8049 
12-May-2018_16:24:15 Exp 7310 21 2 R 1 2 24 immoralOther immoralOther match m m 1 0.5867 
Date Prac Sub Age Sex Hand Block Bin Trial Shape Label Match CorrResp Resp ACC RT
12-May-2018_16:28:40 Exp 7310 21 2 R 1 1 1 immoralOther moralOther mismatch n n 1 0.5917 
12-May-2018_16:28:43 Exp 7310 21 2 R 1 1 2 moralOther immoralOther mismatch n n 1 0.5838 
12-May-2018_16:28:45 Exp 7310 21 2 R 1 1 3 moralOther immoralOther mismatch n n 1 0.6099 
12-May-2018_16:28:47 Exp 7310 21 2 R 1 1 4 moralOther moralOther match m m 1 0.4461 
12-May-2018_16:28:49 Exp 7310 21 2 R 1 1 5 moralSelf moralOther mismatch n m 0 0.4842 
12-May-2018_16:28:51 Exp 7310 21 2 R 1 1 6 immoralOther immoralOther match m m 1 0.6262 
12-May-2018_16:28:53 Exp 7310 21 2 R 1 1 7 moralOther moralOther match m m 1 0.5404 
12-May-2018_16:28:55 Exp 7310 21 2 R 1 1 8 immoralSelf immoralOther mismatch n n 1 0.5106 
12-May-2018_16:28:57 Exp 7310 21 2 R 1 1 9 immoralOther immoralOther match m m 1 0.6466 
12-May-2018_16:28:59 Exp 7310 21 2 R 1 1 10 immoralOther immoralOther match m m 1 0.6768 
12-May-2018_16:29:01 Exp 7310 21 2 R 1 1 11 immoralSelf moralOther mismatch n n 1 0.5569 
12-May-2018_16:29:04 Exp 7310 21 2 R 1 1 12 moralSelf immoralSelf mismatch n n 1 0.8050 
12-May-2018_16:29:06 Exp 7310 21 2 R 1 1 13 immoralSelf immoralSelf match m m 1 0.6671 
12-May-2018_16:29:08 Exp 7310 21 2 R 1 1 14 moralSelf moralSelf match m m 1 0.5074 
12-May-2018_16:29:10 Exp 7310 21 2 R 1 1 15 moralSelf moralOther mismatch n n 1 0.6194 
12-May-2018_16:29:12 Exp 7310 21 2 R 1 1 16 immoralSelf moralOther mismatch n n 1 0.5735 
12-May-2018_16:29:14 Exp 7310 21 2 R 1 1 17 moralOther moralSelf mismatch n n 1 0.5376 
12-May-2018_16:29:16 Exp 7310 21 2 R 1 1 18 moralSelf moralSelf match m m 1 0.5238 
12-May-2018_16:29:19 Exp 7310 21 2 R 1 1 19 moralSelf moralSelf match m m 1 0.6819 
12-May-2018_16:29:21 Exp 7310 21 2 R 1 1 20 immoralSelf immoralSelf match m m 1 0.7440 
12-May-2018_16:29:23 Exp 7310 21 2 R 1 1 21 immoralOther moralOther mismatch n n 1 0.5621 
12-May-2018_16:29:25 Exp 7310 21 2 R 1 1 22 immoralOther moralOther mismatch n n 1 0.5682 
12-May-2018_16:29:27 Exp 7310 21 2 R 1 1 23 moralOther moralOther match m m 1 0.5563 
12-May-2018_16:29:29 Exp 7310 21 2 R 1 1 24 immoralSelf immoralSelf match m m 1 0.6605 
12-May-2018_16:29:31 Exp 7310 21 2 R 1 2 1 moralSelf moralSelf match m m 1 0.5346 
12-May-2018_16:29:34 Exp 7310 21 2 R 1 2 2 immoralSelf moralSelf mismatch n n 1 0.6587 
12-May-2018_16:29:36 Exp 7310 21 2 R 1 2 3 immoralSelf immoralSelf match m m 1 0.7408 
12-May-2018_16:29:38 Exp 7310 21 2 R 1 2 4 immoralOther immoralOther match m m 1 0.5750 
12-May-2018_16:29:40 Exp 7310 21 2 R 1 2 5 moralSelf immoralSelf mismatch n n 1 0.9151 
12-May-2018_16:29:43 Exp 7310 21 2 R 1 2 6 immoralOther immoralSelf mismatch n n 1 0.7792 
12-May-2018_16:29:45 Exp 7310 21 2 R 1 2 7 immoralSelf moralSelf mismatch n m 0 0.7574 
12-May-2018_16:29:47 Exp 7310 21 2 R 1 2 8 immoralOther immoralOther match m m 1 0.5394 
12-May-2018_16:29:49 Exp 7310 21 2 R 1 2 9 immoralSelf immoralSelf match m m 1 0.7416 
12-May-2018_16:29:51 Exp 7310 21 2 R 1 2 10 moralOther immoralSelf mismatch n n 1 0.5758 
12-May-2018_16:29:54 Exp 7310 21 2 R 1 2 11 immoralOther immoralSelf mismatch n n 1 0.6198 
12-May-2018_16:29:56 Exp 7310 21 2 R 1 2 12 moralOther immoralOther mismatch n n 1 0.8380 
12-May-2018_16:29:58 Exp 7310 21 2 R 1 2 13 immoralOther immoralOther match m m 1 0.5641 
12-May-2018_16:30:00 Exp 7310 21 2 R 1 2 14 moralOther immoralSelf mismatch n n 1 0.7062 
12-May-2018_16:30:02 Exp 7310 21 2 R 1 2 15 moralSelf moralSelf match m m 1 0.5804 
12-May-2018_16:30:05 Exp 7310 21 2 R 1 2 16 moralSelf moralSelf match m m 1 0.6625 
12-May-2018_16:30:07 Exp 7310 21 2 R 1 2 17 moralOther moralOther match m n 0 0.5526 
12-May-2018_16:30:09 Exp 7310 21 2 R 1 2 18 immoralOther moralSelf mismatch n n 1 0.6327 
12-May-2018_16:30:11 Exp 7310 21 2 R 1 2 19 moralSelf immoralSelf mismatch n n 1 0.8089 
12-May-2018_16:30:13 Exp 7310 21 2 R 1 2 20 moralSelf moralOther mismatch n n 1 0.6049 
12-May-2018_16:30:15 Exp 7310 21 2 R 1 2 21 immoralSelf moralSelf mismatch n n 1 0.6111 
12-May-2018_16:30:17 Exp 7310 21 2 R 1 2 22 moralOther moralOther match m m 1 0.5273 
12-May-2018_16:30:20 Exp 7310 21 2 R 1 2 23 moralOther moralOther match m m 1 0.6914 
12-May-2018_16:30:22 Exp 7310 21 2 R 1 2 24 immoralSelf immoralSelf match m m 1 0.7354 
Date Prac Sub Age Sex Hand Block Bin Trial Shape Label Match CorrResp Resp ACC RT
12-May-2018_16:34:44 Exp 7310 21 2 R 1 1 1 moralSelf moralOther mismatch n n 1 0.5964 
12-May-2018_16:34:46 Exp 7310 21 2 R 1 1 2 immoralSelf immoralSelf match m m 1 0.5484 
12-May-2018_16:34:48 Exp 7310 21 2 R 1 1 3 immoralSelf moralSelf mismatch n n 1 0.5165 
12-May-2018_16:34:51 Exp 7310 21 2 R 1 1 4 immoralSelf immoralSelf match m m 1 0.6207 
12-May-2018_16:34:52 Exp 7310 21 2 R 1 1 5 moralOther moralSelf mismatch n m 0 0.4229 
12-May-2018_16:34:55 Exp 7310 21 2 R 1 1 6 immoralOther immoralOther match m m 1 0.5769 
12-May-2018_16:34:57 Exp 7310 21 2 R 1 1 7 immoralSelf moralSelf mismatch n n 1 0.5971 
12-May-2018_16:34:59 Exp 7310 21 2 R 1 1 8 immoralSelf immoralSelf match m m 1 0.6831 
12-May-2018_16:35:01 Exp 7310 21 2 R 1 1 9 moralSelf moralSelf match m m 1 0.5293 
12-May-2018_16:35:03 Exp 7310 21 2 R 1 1 10 moralOther moralOther match m m 1 0.5734 
12-May-2018_16:35:05 Exp 7310 21 2 R 1 1 11 moralSelf moralSelf match m m 1 0.7055 
12-May-2018_16:35:07 Exp 7310 21 2 R 1 1 12 immoralOther moralOther mismatch n n 1 0.6437 
12-May-2018_16:35:10 Exp 7310 21 2 R 1 1 13 moralSelf moralOther mismatch n n 1 0.7378 
12-May-2018_16:35:12 Exp 7310 21 2 R 1 1 14 moralOther immoralOther mismatch n n 1 0.6519 
12-May-2018_16:35:14 Exp 7310 21 2 R 1 1 15 moralOther immoralOther mismatch n n 1 0.7041 
12-May-2018_16:35:16 Exp 7310 21 2 R 1 1 16 moralSelf moralSelf match m m 1 0.5142 
12-May-2018_16:35:18 Exp 7310 21 2 R 1 1 17 immoralOther moralOther mismatch n n 1 0.6182 
12-May-2018_16:35:21 Exp 7310 21 2 R 1 1 18 moralOther moralOther match m m 1 0.6364 
12-May-2018_16:35:23 Exp 7310 21 2 R 1 1 19 immoralSelf immoralOther mismatch n n 1 0.5887 
12-May-2018_16:35:25 Exp 7310 21 2 R 1 1 20 immoralOther immoralSelf mismatch n n 1 0.5086 
12-May-2018_16:35:27 Exp 7310 21 2 R 1 1 21 immoralOther immoralOther match m n 0 0.5407 
12-May-2018_16:35:29 Exp 7310 21 2 R 1 1 22 moralOther moralOther match m m 1 0.6389 
12-May-2018_16:35:31 Exp 7310 21 2 R 1 1 23 immoralOther immoralOther match m m 1 0.5490 
12-May-2018_16:35:33 Exp 7310 21 2 R 1 1 24 moralSelf moralOther mismatch n n 1 0.6290 
12-May-2018_16:35:35 Exp 7310 21 2 R 1 2 1 immoralOther moralSelf mismatch n n 1 0.5332 
12-May-2018_16:35:38 Exp 7310 21 2 R 1 2 2 moralOther immoralOther mismatch n n 1 0.7933 
12-May-2018_16:35:40 Exp 7310 21 2 R 1 2 3 immoralSelf moralOther mismatch n n 1 0.5135 
12-May-2018_16:35:42 Exp 7310 21 2 R 1 2 4 moralSelf immoralSelf mismatch n n 1 0.8016 
12-May-2018_16:35:44 Exp 7310 21 2 R 1 2 5 immoralSelf immoralSelf match m m 1 0.5998 
12-May-2018_16:35:46 Exp 7310 21 2 R 1 2 6 immoralSelf immoralOther mismatch n n 1 0.5259 
12-May-2018_16:35:48 Exp 7310 21 2 R 1 2 7 moralSelf moralOther mismatch n n 1 0.6599 
12-May-2018_16:35:51 Exp 7310 21 2 R 1 2 8 immoralOther moralOther mismatch n n 1 0.7901 
12-May-2018_16:35:53 Exp 7310 21 2 R 1 2 9 immoralSelf immoralSelf match m m 1 0.6302 
12-May-2018_16:35:55 Exp 7310 21 2 R 1 2 10 immoralOther immoralOther match m m 1 0.6864 
12-May-2018_16:35:57 Exp 7310 21 2 R 1 2 11 immoralSelf immoralOther mismatch n n 1 0.5485 
12-May-2018_16:35:59 Exp 7310 21 2 R 1 2 12 moralOther moralOther match m m 1 0.4526 
12-May-2018_16:36:01 Exp 7310 21 2 R 1 2 13 moralOther moralSelf mismatch n n 1 0.5287 
12-May-2018_16:36:03 Exp 7310 21 2 R 1 2 14 moralSelf moralSelf match m m 1 0.5308 
12-May-2018_16:36:05 Exp 7310 21 2 R 1 2 15 immoralSelf immoralSelf match m m 1 0.8230 
12-May-2018_16:36:08 Exp 7310 21 2 R 1 2 16 immoralOther immoralOther match m m 1 0.6011 
12-May-2018_16:36:10 Exp 7310 21 2 R 1 2 17 moralSelf immoralSelf mismatch n n 1 0.6952 
12-May-2018_16:36:12 Exp 7310 21 2 R 1 2 18 immoralOther immoralOther match m m 1 0.6033 
12-May-2018_16:36:14 Exp 7310 21 2 R 1 2 19 immoralOther immoralSelf mismatch n n 1 0.5454 
12-May-2018_16:36:16 Exp 7310 21 2 R 1 2 20 moralOther moralOther match m m 1 0.4915 
12-May-2018_16:36:18 Exp 7310 21 2 R 1 2 21 moralOther moralOther match m m 1 0.5597 
12-May-2018_16:36:20 Exp 7310 21 2 R 1 2 22 moralSelf moralSelf match m m 1 0.5818 
12-May-2018_16:36:22 Exp 7310 21 2 R 1 2 23 moralOther immoralOther mismatch n n 1 0.6799 
12-May-2018_16:36:25 Exp 7310 21 2 R 1 2 24 moralSelf moralSelf match m m 1 0.5181 
Date Prac Sub Age Sex Hand Block Bin Trial Shape Label Match CorrResp Resp ACC RT
12-May-2018_16:40:38 Exp 7310 21 2 R 1 1 1 moralSelf immoralOther mismatch n n 1 0.5084 
12-May-2018_16:40:40 Exp 7310 21 2 R 1 1 2 moralOther moralOther match m m 1 0.4205 
12-May-2018_16:40:42 Exp 7310 21 2 R 1 1 3 immoralSelf immoralSelf match m m 1 0.5746 
12-May-2018_16:40:44 Exp 7310 21 2 R 1 1 4 immoralOther immoralOther match m m 1 0.5868 
12-May-2018_16:40:46 Exp 7310 21 2 R 1 1 5 immoralOther moralSelf mismatch n n 1 0.5809 
12-May-2018_16:40:48 Exp 7310 21 2 R 1 1 6 immoralOther immoralOther match m m 1 0.5270 
12-May-2018_16:40:50 Exp 7310 21 2 R 1 1 7 immoralOther immoralSelf mismatch n n 1 0.5731 
12-May-2018_16:40:52 Exp 7310 21 2 R 1 1 8 moralSelf moralOther mismatch n m 0 0.4573 
12-May-2018_16:40:55 Exp 7310 21 2 R 1 1 9 immoralSelf immoralSelf match m m 1 0.7073 
12-May-2018_16:40:57 Exp 7310 21 2 R 1 1 10 moralOther immoralSelf mismatch n n 1 0.5875 
12-May-2018_16:40:59 Exp 7310 21 2 R 1 1 11 immoralSelf moralSelf mismatch n n 1 0.5796 
12-May-2018_16:41:01 Exp 7310 21 2 R 1 1 12 immoralSelf immoralOther mismatch n n 1 0.5257 
12-May-2018_16:41:03 Exp 7310 21 2 R 1 1 13 moralOther moralOther match m m 1 0.5318 
12-May-2018_16:41:05 Exp 7310 21 2 R 1 1 14 moralOther immoralSelf mismatch n n 1 0.5359 
12-May-2018_16:41:07 Exp 7310 21 2 R 1 1 15 immoralSelf immoralSelf match m m 1 0.6120 
12-May-2018_16:41:09 Exp 7310 21 2 R 1 1 16 moralSelf moralSelf match m m 1 0.6403 
12-May-2018_16:41:12 Exp 7310 21 2 R 1 1 17 moralSelf moralSelf match m m 1 0.7903 
12-May-2018_16:41:14 Exp 7310 21 2 R 1 1 18 moralOther immoralOther mismatch n n 1 0.6545 
12-May-2018_16:41:16 Exp 7310 21 2 R 1 1 19 moralSelf moralSelf match m m 1 0.4666 
12-May-2018_16:41:18 Exp 7310 21 2 R 1 1 20 moralOther moralOther match m m 1 0.4847 
12-May-2018_16:41:20 Exp 7310 21 2 R 1 1 21 immoralOther immoralOther match m m 1 0.6108 
12-May-2018_16:41:22 Exp 7310 21 2 R 1 1 22 moralSelf immoralSelf mismatch n m 0 0.4629 
12-May-2018_16:41:25 Exp 7310 21 2 R 1 1 23 immoralOther moralSelf mismatch n n 1 1.0170 
12-May-2018_16:41:27 Exp 7310 21 2 R 1 1 24 immoralSelf immoralOther mismatch n n 1 0.6771 
12-May-2018_16:41:29 Exp 7310 21 2 R 1 2 1 moralSelf immoralOther mismatch n n 1 0.6273 
12-May-2018_16:41:31 Exp 7310 21 2 R 1 2 2 immoralSelf moralSelf mismatch n n 1 0.6274 
12-May-2018_16:41:33 Exp 7310 21 2 R 1 2 3 moralOther moralOther match m m 1 0.4760 
12-May-2018_16:41:35 Exp 7310 21 2 R 1 2 4 immoralSelf immoralSelf match m m 1 0.6117 
12-May-2018_16:41:37 Exp 7310 21 2 R 1 2 5 immoralOther moralOther mismatch n n 1 0.5997 
12-May-2018_16:41:40 Exp 7310 21 2 R 1 2 6 moralOther moralOther match m m 1 0.6619 
12-May-2018_16:41:42 Exp 7310 21 2 R 1 2 7 immoralOther immoralOther match m m 1 0.6160 
12-May-2018_16:41:44 Exp 7310 21 2 R 1 2 8 moralSelf immoralSelf mismatch n n 1 0.7641 
12-May-2018_16:41:46 Exp 7310 21 2 R 1 2 9 moralSelf immoralSelf mismatch n n 1 0.7223 
12-May-2018_16:41:49 Exp 7310 21 2 R 1 2 10 immoralOther moralOther mismatch n n 1 0.8561 
12-May-2018_16:41:51 Exp 7310 21 2 R 1 2 11 immoralOther immoralOther match m m 1 0.6605 
12-May-2018_16:41:53 Exp 7310 21 2 R 1 2 12 immoralSelf immoralSelf match m m 1 0.8547 
12-May-2018_16:41:55 Exp 7310 21 2 R 1 2 13 moralSelf moralSelf match m m 1 0.6348 
12-May-2018_16:41:58 Exp 7310 21 2 R 1 2 14 moralOther moralOther match m m 1 0.7149 
12-May-2018_16:42:00 Exp 7310 21 2 R 1 2 15 immoralSelf moralOther mismatch n n 1 0.6750 
12-May-2018_16:42:02 Exp 7310 21 2 R 1 2 16 immoralOther moralSelf mismatch n n 1 0.8591 
12-May-2018_16:42:04 Exp 7310 21 2 R 1 2 17 moralSelf moralSelf match m m 1 0.6453 
12-May-2018_16:42:07 Exp 7310 21 2 R 1 2 18 moralOther immoralOther mismatch n n 1 0.6676 
12-May-2018_16:42:09 Exp 7310 21 2 R 1 2 19 moralSelf moralSelf match m m 1 0.5396 
12-May-2018_16:42:11 Exp 7310 21 2 R 1 2 20 immoralOther immoralOther match m m 1 0.5737 
12-May-2018_16:42:13 Exp 7310 21 2 R 1 2 21 immoralSelf immoralSelf match m m 1 0.5218 
12-May-2018_16:42:15 Exp 7310 21 2 R 1 2 22 moralOther immoralSelf mismatch n n 1 0.5199 
12-May-2018_16:42:17 Exp 7310 21 2 R 1 2 23 moralOther immoralOther mismatch n n 1 0.5740 
12-May-2018_16:42:19 Exp 7310 21 2 R 1 2 24 immoralSelf moralOther mismatch n n 1 0.6021 
Date Prac Sub Age Sex Hand Block Bin Trial Shape Label Match CorrResp Resp ACC RT
12-May-2018_16:46:27 Exp 7310 21 2 R 1 1 1 immoralOther immoralOther match m m 1 0.5502 
12-May-2018_16:46:29 Exp 7310 21 2 R 1 1 2 immoralSelf moralOther mismatch n n 1 0.5343 
12-May-2018_16:46:31 Exp 7310 21 2 R 1 1 3 immoralOther immoralSelf mismatch n n 1 0.5784 
12-May-2018_16:46:34 Exp 7310 21 2 R 1 1 4 moralSelf moralOther mismatch n n 1 0.6606 
12-May-2018_16:46:36 Exp 7310 21 2 R 1 1 5 moralOther immoralOther mismatch n n 1 0.6946 
12-May-2018_16:46:38 Exp 7310 21 2 R 1 1 6 moralSelf moralSelf match m m 1 0.5789 
12-May-2018_16:46:40 Exp 7310 21 2 R 1 1 7 immoralOther moralSelf mismatch n n 1 0.5249 
12-May-2018_16:46:42 Exp 7310 21 2 R 1 1 8 moralSelf immoralSelf mismatch n n 1 0.6190 
12-May-2018_16:46:44 Exp 7310 21 2 R 1 1 9 moralOther moralOther match m m 1 0.5892 
12-May-2018_16:46:46 Exp 7310 21 2 R 1 1 10 moralSelf moralSelf match m n 0 0.5013 
12-May-2018_16:46:48 Exp 7310 21 2 R 1 1 11 immoralOther immoralOther match m m 1 0.5514 
12-May-2018_16:46:50 Exp 7310 21 2 R 1 1 12 moralSelf immoralSelf mismatch n n 1 0.5595 
12-May-2018_16:46:53 Exp 7310 21 2 R 1 1 13 moralOther moralSelf mismatch n n 1 0.5976 
12-May-2018_16:46:55 Exp 7310 21 2 R 1 1 14 moralOther moralOther match m m 1 0.5718 
12-May-2018_16:46:57 Exp 7310 21 2 R 1 1 15 immoralOther immoralOther match m m 1 0.5839 
12-May-2018_16:46:59 Exp 7310 21 2 R 1 1 16 immoralSelf immoralOther mismatch n n 1 0.4660 
12-May-2018_16:47:01 Exp 7310 21 2 R 1 1 17 immoralOther immoralSelf mismatch n n 1 0.7721 
12-May-2018_16:47:03 Exp 7310 21 2 R 1 1 18 moralSelf moralSelf match m m 1 0.5843 
12-May-2018_16:47:05 Exp 7310 21 2 R 1 1 19 immoralSelf moralOther mismatch n n 1 0.5783 
12-May-2018_16:47:08 Exp 7310 21 2 R 1 1 20 immoralSelf immoralSelf match m m 1 0.6685 
12-May-2018_16:47:10 Exp 7310 21 2 R 1 1 21 immoralSelf immoralSelf match m m 1 0.6206 
12-May-2018_16:47:12 Exp 7310 21 2 R 1 1 22 moralOther moralSelf mismatch n NA -1 1.1430 
12-May-2018_16:47:14 Exp 7310 21 2 R 1 1 23 immoralSelf immoralSelf match m m 1 0.6488 
12-May-2018_16:47:17 Exp 7310 21 2 R 1 1 24 moralOther moralOther match m m 1 0.6050 
12-May-2018_16:47:19 Exp 7310 21 2 R 1 2 1 immoralOther moralSelf mismatch n n 1 0.7311 
12-May-2018_16:47:21 Exp 7310 21 2 R 1 2 2 immoralSelf immoralSelf match m m 1 0.5752 
12-May-2018_16:47:23 Exp 7310 21 2 R 1 2 3 immoralOther immoralSelf mismatch n n 1 0.6833 
12-May-2018_16:47:25 Exp 7310 21 2 R 1 2 4 immoralOther moralOther mismatch n n 1 0.6975 
12-May-2018_16:47:28 Exp 7310 21 2 R 1 2 5 moralOther moralOther match m m 1 0.6997 
12-May-2018_16:47:30 Exp 7310 21 2 R 1 2 6 moralOther immoralSelf mismatch n n 1 0.5418 
12-May-2018_16:47:32 Exp 7310 21 2 R 1 2 7 immoralSelf immoralOther mismatch n n 1 0.6639 
12-May-2018_16:47:34 Exp 7310 21 2 R 1 2 8 moralSelf immoralSelf mismatch n n 1 0.6100 
12-May-2018_16:47:36 Exp 7310 21 2 R 1 2 9 moralSelf moralOther mismatch n n 1 0.5421 
12-May-2018_16:47:38 Exp 7310 21 2 R 1 2 10 immoralOther immoralOther match m m 1 0.5842 
12-May-2018_16:47:40 Exp 7310 21 2 R 1 2 11 moralSelf immoralOther mismatch n n 1 0.6203 
12-May-2018_16:47:43 Exp 7310 21 2 R 1 2 12 immoralOther immoralOther match m m 1 0.5745 
12-May-2018_16:47:45 Exp 7310 21 2 R 1 2 13 moralSelf moralSelf match m m 1 0.7226 
12-May-2018_16:47:47 Exp 7310 21 2 R 1 2 14 immoralSelf moralSelf mismatch n n 1 0.6566 
12-May-2018_16:47:49 Exp 7310 21 2 R 1 2 15 immoralSelf immoralSelf match m m 1 0.6927 
12-May-2018_16:47:51 Exp 7310 21 2 R 1 2 16 moralSelf moralSelf match m m 1 0.4890 
12-May-2018_16:47:53 Exp 7310 21 2 R 1 2 17 moralOther moralOther match m m 1 0.7091 
12-May-2018_16:47:55 Exp 7310 21 2 R 1 2 18 moralSelf moralSelf match m m 1 0.4772 
12-May-2018_16:47:58 Exp 7310 21 2 R 1 2 19 moralOther immoralSelf mismatch n n 1 0.5474 
12-May-2018_16:48:00 Exp 7310 21 2 R 1 2 20 immoralSelf immoralSelf match m m 1 0.5235 
12-May-2018_16:48:02 Exp 7310 21 2 R 1 2 21 immoralOther immoralOther match m m 1 0.7535 
12-May-2018_16:48:04 Exp 7310 21 2 R 1 2 22 moralOther moralOther match m m 1 0.5058 
12-May-2018_16:48:06 Exp 7310 21 2 R 1 2 23 immoralSelf immoralOther mismatch n n 1 0.6278 
12-May-2018_16:48:08 Exp 7310 21 2 R 1 2 24 moralOther immoralSelf mismatch n n 1 0.6679 
