,?..build,computer.platform,date,time,subject,group,sessionid,blockcode,blocknum,trialcode,trialnum,current_condition,condition_index,oldnew,ltm_item,oldnew_resp,oldnew_RT
1,6.2.2,win,9/16/20,17:56:56,03 (pilot),20,1,practice,1,next_trial,7,80,8,0,1,2,7357
2,6.2.2,win,9/16/20,17:56:56,03 (pilot),20,1,practice,1,next_trial,10,85,8,5,42,4,3083
3,6.2.2,win,9/16/20,17:56:56,03 (pilot),20,1,practice,1,next_trial,13,85,8,5,41,1,2483
4,6.2.2,win,9/16/20,17:56:56,03 (pilot),20,1,practice,1,next_trial,16,80,8,0,2,1,2842
5,6.2.2,win,9/16/20,17:56:56,03 (pilot),20,1,main,2,next_trial,7,45,4,5,178,1,2569
6,6.2.2,win,9/16/20,17:56:56,03 (pilot),20,1,main,2,next_trial,10,30,3,0,332,4,3026
7,6.2.2,win,9/16/20,17:56:56,03 (pilot),20,1,main,2,next_trial,13,35,3,5,182,5,3188
8,6.2.2,win,9/16/20,17:56:56,03 (pilot),20,1,main,2,next_trial,16,15,1,5,228,4,2480
9,6.2.2,win,9/16/20,17:56:56,03 (pilot),20,1,main,2,next_trial,19,30,3,0,342,2,2240
10,6.2.2,win,9/16/20,17:56:56,03 (pilot),20,1,main,2,next_trial,22,30,3,0,325,3,2507
11,6.2.2,win,9/16/20,17:56:56,03 (pilot),20,1,main,2,next_trial,25,35,3,5,169,3,4822
12,6.2.2,win,9/16/20,17:56:56,03 (pilot),20,1,main,2,next_trial,28,50,5,0,7,2,2675
13,6.2.2,win,9/16/20,17:56:56,03 (pilot),20,1,main,2,next_trial,31,65,6,5,173,3,2643
14,6.2.2,win,9/16/20,17:56:56,03 (pilot),20,1,main,2,next_trial,34,15,1,5,186,5,3061
15,6.2.2,win,9/16/20,17:56:56,03 (pilot),20,1,main,2,next_trial,37,15,1,5,164,1,3332
16,6.2.2,win,9/16/20,17:56:56,03 (pilot),20,1,main,2,next_trial,40,55,5,5,159,3,3566
17,6.2.2,win,9/16/20,17:56:56,03 (pilot),20,1,main,2,next_trial,43,60,6,0,12,2,2695
18,6.2.2,win,9/16/20,17:56:56,03 (pilot),20,1,main,2,next_trial,46,15,1,5,192,5,2844
19,6.2.2,win,9/16/20,17:56:56,03 (pilot),20,1,main,2,next_trial,49,30,3,0,346,3,2864
20,6.2.2,win,9/16/20,17:56:56,03 (pilot),20,1,main,2,next_trial,52,25,2,5,203,5,3390
21,6.2.2,win,9/16/20,17:56:56,03 (pilot),20,1,main,2,next_trial,55,30,3,0,348,2,6964
22,6.2.2,win,9/16/20,17:56:56,03 (pilot),20,1,main,2,next_trial,58,35,3,5,158,6,6561
23,6.2.2,win,9/16/20,17:56:56,03 (pilot),20,1,main,2,next_trial,61,20,2,0,253,1,2751
24,6.2.2,win,9/16/20,17:56:56,03 (pilot),20,1,main,2,next_trial,64,35,3,5,183,3,2886
25,6.2.2,win,9/16/20,17:56:56,03 (pilot),20,1,main,2,next_trial,67,10,1,0,269,2,2189
26,6.2.2,win,9/16/20,17:56:56,03 (pilot),20,1,main,2,next_trial,70,65,6,5,212,4,3297
27,6.2.2,win,9/16/20,17:56:56,03 (pilot),20,1,main,2,next_trial,73,55,5,5,209,1,3325
28,6.2.2,win,9/16/20,17:56:56,03 (pilot),20,1,main,2,next_trial,76,55,5,5,167,6,4437
29,6.2.2,win,9/16/20,17:56:56,03 (pilot),20,1,main,2,next_trial,79,10,1,0,265,3,2224
30,6.2.2,win,9/16/20,17:56:56,03 (pilot),20,1,main,2,next_trial,82,40,4,0,346,3,4090
31,6.2.2,win,9/16/20,17:56:56,03 (pilot),20,1,main,2,next_trial,85,40,4,0,338,2,3729
32,6.2.2,win,9/16/20,17:56:56,03 (pilot),20,1,main,2,next_trial,88,60,6,0,1,3,2883
33,6.2.2,win,9/16/20,17:56:56,03 (pilot),20,1,main,2,next_trial,91,60,6,0,13,5,3114
34,6.2.2,win,9/16/20,17:56:56,03 (pilot),20,1,main,2,next_trial,94,40,4,0,329,4,2299
35,6.2.2,win,9/16/20,17:56:56,03 (pilot),20,1,main,2,next_trial,97,55,5,5,196,2,3263
36,6.2.2,win,9/16/20,17:56:56,03 (pilot),20,1,main,2,next_trial,100,50,5,0,16,2,2666
37,6.2.2,win,9/16/20,17:56:56,03 (pilot),20,1,main,2,next_trial,103,50,5,0,22,1,2991
38,6.2.2,win,9/16/20,17:56:56,03 (pilot),20,1,main,2,next_trial,106,10,1,0,264,1,2230
39,6.2.2,win,9/16/20,17:56:56,03 (pilot),20,1,main,2,next_trial,109,40,4,0,342,3,2098
40,6.2.2,win,9/16/20,17:56:56,03 (pilot),20,1,main,2,next_trial,112,25,2,5,216,3,3915
41,6.2.2,win,9/16/20,17:56:56,03 (pilot),20,1,main,2,next_trial,115,25,2,5,218,3,10950
42,6.2.2,win,9/16/20,17:56:56,03 (pilot),20,1,main,2,next_trial,118,25,2,5,185,4,3881
43,6.2.2,win,9/16/20,17:56:56,03 (pilot),20,1,main,2,next_trial,121,30,3,0,338,5,2583
44,6.2.2,win,9/16/20,17:56:56,03 (pilot),20,1,main,2,next_trial,124,55,5,5,217,6,3357
45,6.2.2,win,9/16/20,17:56:56,03 (pilot),20,1,main,2,next_trial,127,40,4,0,348,3,2990
46,6.2.2,win,9/16/20,17:56:56,03 (pilot),20,1,main,2,next_trial,130,45,4,5,168,3,2354
47,6.2.2,win,9/16/20,17:56:56,03 (pilot),20,1,main,2,next_trial,133,35,3,5,171,5,3164
48,6.2.2,win,9/16/20,17:56:56,03 (pilot),20,1,main,2,next_trial,136,20,2,0,269,2,2241
49,6.2.2,win,9/16/20,17:56:56,03 (pilot),20,1,main,2,next_trial,139,55,5,5,200,3,2403
50,6.2.2,win,9/16/20,17:56:56,03 (pilot),20,1,main,2,next_trial,142,60,6,0,21,3,1913
51,6.2.2,win,9/16/20,17:56:56,03 (pilot),20,1,main,2,next_trial,145,65,6,5,205,3,5307
52,6.2.2,win,9/16/20,17:56:56,03 (pilot),20,1,main,2,next_trial,148,10,1,0,259,2,2972
53,6.2.2,win,9/16/20,17:56:56,03 (pilot),20,1,main,2,next_trial,151,25,2,5,227,1,2737
54,6.2.2,win,9/16/20,17:56:56,03 (pilot),20,1,main,2,next_trial,154,20,2,0,262,3,5101
55,6.2.2,win,9/16/20,17:56:56,03 (pilot),20,1,main,2,next_trial,157,60,6,0,6,2,2314
56,6.2.2,win,9/16/20,17:56:56,03 (pilot),20,1,main,2,next_trial,160,50,5,0,13,1,2277
57,6.2.2,win,9/16/20,17:56:56,03 (pilot),20,1,main,2,next_trial,163,40,4,0,335,5,2417
58,6.2.2,win,9/16/20,17:56:56,03 (pilot),20,1,main,2,next_trial,166,35,3,5,199,1,2270
59,6.2.2,win,9/16/20,17:56:56,03 (pilot),20,1,main,2,next_trial,169,10,1,0,270,3,2074
60,6.2.2,win,9/16/20,17:56:56,03 (pilot),20,1,main,2,next_trial,172,65,6,5,190,2,2464
61,6.2.2,win,9/16/20,17:56:56,03 (pilot),20,1,main,2,next_trial,175,10,1,0,271,1,3898
62,6.2.2,win,9/16/20,17:56:56,03 (pilot),20,1,main,2,next_trial,178,45,4,5,209,6,2515
63,6.2.2,win,9/16/20,17:56:56,03 (pilot),20,1,main,2,next_trial,181,15,1,5,157,2,2612
64,6.2.2,win,9/16/20,17:56:56,03 (pilot),20,1,main,2,next_trial,184,45,4,5,193,1,2102
65,6.2.2,win,9/16/20,17:56:56,03 (pilot),20,1,main,2,next_trial,187,50,5,0,15,3,1884
66,6.2.2,win,9/16/20,17:56:56,03 (pilot),20,1,main,2,next_trial,190,65,6,5,157,1,2734
67,6.2.2,win,9/16/20,17:56:56,03 (pilot),20,1,main,2,next_trial,193,20,2,0,268,1,2187
68,6.2.2,win,9/16/20,17:56:56,03 (pilot),20,1,main,2,next_trial,196,20,2,0,264,4,2334
69,6.2.2,win,9/16/20,17:56:56,03 (pilot),20,1,main,2,next_trial,199,25,2,5,208,5,3066
70,6.2.2,win,9/16/20,17:56:56,03 (pilot),20,1,main,2,next_trial,202,50,5,0,23,6,2988
71,6.2.2,win,9/16/20,17:56:56,03 (pilot),20,1,main,2,next_trial,205,60,6,0,20,2,3455
72,6.2.2,win,9/16/20,17:56:56,03 (pilot),20,1,main,2,next_trial,208,65,6,5,187,3,2212
73,6.2.2,win,9/16/20,17:56:56,03 (pilot),20,1,main,2,next_trial,211,45,4,5,172,3,2190
74,6.2.2,win,9/16/20,17:56:56,03 (pilot),20,1,main,2,next_trial,214,45,4,5,181,4,1207
75,6.2.2,win,9/16/20,17:56:56,03 (pilot),20,1,main,2,next_trial,217,20,2,0,271,3,1118
76,6.2.2,win,9/16/20,17:56:56,03 (pilot),20,1,main,2,next_trial,220,15,1,5,220,2,1234
77,6.2.2,win,9/16/20,17:56:56,03 (pilot),20,1,main,2,next_trial,228,50,5,0,2,3,1099
78,6.2.2,win,9/16/20,17:56:56,03 (pilot),20,1,main,2,next_trial,231,20,2,0,275,2,912
79,6.2.2,win,9/16/20,17:56:56,03 (pilot),20,1,main,2,next_trial,234,50,5,0,17,1,900
80,6.2.2,win,9/16/20,17:56:56,03 (pilot),20,1,main,2,next_trial,237,55,5,5,214,5,1346
81,6.2.2,win,9/16/20,17:56:56,03 (pilot),20,1,main,2,next_trial,240,30,3,0,331,3,1921
82,6.2.2,win,9/16/20,17:56:56,03 (pilot),20,1,main,2,next_trial,243,35,3,5,215,2,1751
83,6.2.2,win,9/16/20,17:56:56,03 (pilot),20,1,main,2,next_trial,246,55,5,5,194,1,932
84,6.2.2,win,9/16/20,17:56:56,03 (pilot),20,1,main,2,next_trial,249,40,4,0,344,2,3201
85,6.2.2,win,9/16/20,17:56:56,03 (pilot),20,1,main,2,next_trial,252,20,2,0,272,3,1084
86,6.2.2,win,9/16/20,17:56:56,03 (pilot),20,1,main,2,next_trial,255,35,3,5,161,4,865
87,6.2.2,win,9/16/20,17:56:56,03 (pilot),20,1,main,2,next_trial,258,10,1,0,258,3,1657
88,6.2.2,win,9/16/20,17:56:56,03 (pilot),20,1,main,2,next_trial,261,55,5,5,224,2,2241
89,6.2.2,win,9/16/20,17:56:56,03 (pilot),20,1,main,2,next_trial,264,25,2,5,213,1,1187
90,6.2.2,win,9/16/20,17:56:56,03 (pilot),20,1,main,2,next_trial,267,50,5,0,8,1,1292
91,6.2.2,win,9/16/20,17:56:56,03 (pilot),20,1,main,2,next_trial,270,60,6,0,24,2,1249
92,6.2.2,win,9/16/20,17:56:56,03 (pilot),20,1,main,2,next_trial,273,35,3,5,190,1,2412
93,6.2.2,win,9/16/20,17:56:56,03 (pilot),20,1,main,2,next_trial,276,65,6,5,175,4,1609
94,6.2.2,win,9/16/20,17:56:56,03 (pilot),20,1,main,2,next_trial,279,50,5,0,19,4,1718
95,6.2.2,win,9/16/20,17:56:56,03 (pilot),20,1,main,2,next_trial,282,65,6,5,189,1,2913
96,6.2.2,win,9/16/20,17:56:56,03 (pilot),20,1,main,2,next_trial,285,20,2,0,270,3,4218
97,6.2.2,win,9/16/20,17:56:56,03 (pilot),20,1,main,2,next_trial,288,60,6,0,8,2,1185
98,6.2.2,win,9/16/20,17:56:56,03 (pilot),20,1,main,2,next_trial,291,45,4,5,194,4,1193
99,6.2.2,win,9/16/20,17:56:56,03 (pilot),20,1,main,2,next_trial,294,40,4,0,327,2,1838
100,6.2.2,win,9/16/20,17:56:56,03 (pilot),20,1,main,2,next_trial,297,45,4,5,228,2,2586
101,6.2.2,win,9/16/20,17:56:56,03 (pilot),20,1,main,2,next_trial,300,10,1,0,267,1,1912
102,6.2.2,win,9/16/20,17:56:56,03 (pilot),20,1,main,2,next_trial,303,30,3,0,335,3,2296
103,6.2.2,win,9/16/20,17:56:56,03 (pilot),20,1,main,2,next_trial,306,60,6,0,10,4,2374
104,6.2.2,win,9/16/20,17:56:56,03 (pilot),20,1,main,2,next_trial,309,15,1,5,181,1,2700
105,6.2.2,win,9/16/20,17:56:56,03 (pilot),20,1,main,2,next_trial,312,25,2,5,158,5,3038
106,6.2.2,win,9/16/20,17:56:56,03 (pilot),20,1,main,2,next_trial,315,20,2,0,273,4,2147
107,6.2.2,win,9/16/20,17:56:56,03 (pilot),20,1,main,2,next_trial,318,45,4,5,199,3,2414
108,6.2.2,win,9/16/20,17:56:56,03 (pilot),20,1,main,2,next_trial,321,45,4,5,188,1,3026
109,6.2.2,win,9/16/20,17:56:56,03 (pilot),20,1,main,2,next_trial,324,45,4,5,192,3,4182
110,6.2.2,win,9/16/20,17:56:56,03 (pilot),20,1,main,2,next_trial,327,40,4,0,336,1,2536
111,6.2.2,win,9/16/20,17:56:56,03 (pilot),20,1,main,2,next_trial,330,15,1,5,170,3,1729
112,6.2.2,win,9/16/20,17:56:56,03 (pilot),20,1,main,2,next_trial,333,55,5,5,206,2,1899
113,6.2.2,win,9/16/20,17:56:56,03 (pilot),20,1,main,2,next_trial,336,20,2,0,265,4,2568
114,6.2.2,win,9/16/20,17:56:56,03 (pilot),20,1,main,2,next_trial,339,15,1,5,160,5,3615
115,6.2.2,win,9/16/20,17:56:56,03 (pilot),20,1,main,2,next_trial,342,60,6,0,9,1,2198
116,6.2.2,win,9/16/20,17:56:56,03 (pilot),20,1,main,2,next_trial,345,50,5,0,5,1,2130
117,6.2.2,win,9/16/20,17:56:56,03 (pilot),20,1,main,2,next_trial,348,30,3,0,327,6,1681
118,6.2.2,win,9/16/20,17:56:56,03 (pilot),20,1,main,2,next_trial,351,35,3,5,188,1,2167
119,6.2.2,win,9/16/20,17:56:56,03 (pilot),20,1,main,2,next_trial,354,60,6,0,7,1,1701
120,6.2.2,win,9/16/20,17:56:56,03 (pilot),20,1,main,2,next_trial,357,10,1,0,273,1,2248
121,6.2.2,win,9/16/20,17:56:56,03 (pilot),20,1,main,2,next_trial,360,30,3,0,333,1,2331
122,6.2.2,win,9/16/20,17:56:56,03 (pilot),20,1,main,2,next_trial,363,20,2,0,258,3,2639
123,6.2.2,win,9/16/20,17:56:56,03 (pilot),20,1,main,2,next_trial,366,40,4,0,337,4,1575
124,6.2.2,win,9/16/20,17:56:56,03 (pilot),20,1,main,2,next_trial,369,25,2,5,217,3,1419
125,6.2.2,win,9/16/20,17:56:56,03 (pilot),20,1,main,2,next_trial,372,10,1,0,253,3,1427
126,6.2.2,win,9/16/20,17:56:56,03 (pilot),20,1,main,2,next_trial,375,40,4,0,343,4,1139
127,6.2.2,win,9/16/20,17:56:56,03 (pilot),20,1,main,2,next_trial,378,55,5,5,193,3,2591
128,6.2.2,win,9/16/20,17:56:56,03 (pilot),20,1,main,2,next_trial,381,25,2,5,225,1,1936
129,6.2.2,win,9/16/20,17:56:56,03 (pilot),20,1,main,2,next_trial,384,60,6,0,2,3,2003
130,6.2.2,win,9/16/20,17:56:56,03 (pilot),20,1,main,2,next_trial,387,15,1,5,216,4,1368
131,6.2.2,win,9/16/20,17:56:56,03 (pilot),20,1,main,2,next_trial,390,30,3,0,336,3,1886
132,6.2.2,win,9/16/20,17:56:56,03 (pilot),20,1,main,2,next_trial,393,35,3,5,205,5,2329
133,6.2.2,win,9/16/20,17:56:56,03 (pilot),20,1,main,2,next_trial,396,50,5,0,10,1,2035
134,6.2.2,win,9/16/20,17:56:56,03 (pilot),20,1,main,2,next_trial,399,25,2,5,196,1,3228
135,6.2.2,win,9/16/20,17:56:56,03 (pilot),20,1,main,2,next_trial,402,15,1,5,172,3,4289
136,6.2.2,win,9/16/20,17:56:56,03 (pilot),20,1,main,2,next_trial,405,65,6,5,191,1,2744
137,6.2.2,win,9/16/20,17:56:56,03 (pilot),20,1,main,2,next_trial,408,65,6,5,201,3,2162
138,6.2.2,win,9/16/20,17:56:56,03 (pilot),20,1,main,2,next_trial,411,55,5,5,187,1,6194
139,6.2.2,win,9/16/20,17:56:56,03 (pilot),20,1,main,2,next_trial,414,15,1,5,185,3,2469
140,6.2.2,win,9/16/20,17:56:56,03 (pilot),20,1,main,2,next_trial,417,45,4,5,214,1,2580
141,6.2.2,win,9/16/20,17:56:56,03 (pilot),20,1,main,2,next_trial,420,30,3,0,326,4,2116
142,6.2.2,win,9/16/20,17:56:56,03 (pilot),20,1,main,2,next_trial,423,65,6,5,184,6,2757
143,6.2.2,win,9/16/20,17:56:56,03 (pilot),20,1,main,2,next_trial,426,65,6,5,200,1,2292
144,6.2.2,win,9/16/20,17:56:56,03 (pilot),20,1,main,2,next_trial,429,35,3,5,212,3,2012
145,6.2.2,win,9/16/20,17:56:56,03 (pilot),20,1,main,2,next_trial,432,25,2,5,159,3,1802
146,6.2.2,win,9/16/20,17:56:56,03 (pilot),20,1,main,2,next_trial,435,10,1,0,260,2,1886
147,6.2.2,win,9/16/20,17:56:56,03 (pilot),20,1,main,2,next_trial,438,40,4,0,340,1,1296
148,6.2.2,win,9/16/20,17:56:56,03 (pilot),20,1,main,2,next_trial,441,10,1,0,257,3,1911
149,6.2.2,win,9/16/20,17:56:56,03 (pilot),20,1,main,2,next_trial,449,45,4,5,170,1,1188
150,6.2.2,win,9/16/20,17:56:56,03 (pilot),20,1,main,2,next_trial,452,10,1,0,261,3,1563
151,6.2.2,win,9/16/20,17:56:56,03 (pilot),20,1,main,2,next_trial,455,25,2,5,207,2,1894
152,6.2.2,win,9/16/20,17:56:56,03 (pilot),20,1,main,2,next_trial,458,30,3,0,329,4,1357
153,6.2.2,win,9/16/20,17:56:56,03 (pilot),20,1,main,2,next_trial,461,15,1,5,177,3,1992
154,6.2.2,win,9/16/20,17:56:56,03 (pilot),20,1,main,2,next_trial,464,60,6,0,11,2,2847
155,6.2.2,win,9/16/20,17:56:56,03 (pilot),20,1,main,2,next_trial,467,15,1,5,204,1,1936
156,6.2.2,win,9/16/20,17:56:56,03 (pilot),20,1,main,2,next_trial,470,55,5,5,221,3,1747
157,6.2.2,win,9/16/20,17:56:56,03 (pilot),20,1,main,2,next_trial,473,10,1,0,274,4,2044
158,6.2.2,win,9/16/20,17:56:56,03 (pilot),20,1,main,2,next_trial,476,15,1,5,218,3,1364
159,6.2.2,win,9/16/20,17:56:56,03 (pilot),20,1,main,2,next_trial,479,60,6,0,15,3,2814
160,6.2.2,win,9/16/20,17:56:56,03 (pilot),20,1,main,2,next_trial,482,35,3,5,189,3,3085
161,6.2.2,win,9/16/20,17:56:56,03 (pilot),20,1,main,2,next_trial,485,65,6,5,164,3,1761
162,6.2.2,win,9/16/20,17:56:56,03 (pilot),20,1,main,2,next_trial,488,60,6,0,5,2,1070
163,6.2.2,win,9/16/20,17:56:56,03 (pilot),20,1,main,2,next_trial,491,45,4,5,215,6,2633
164,6.2.2,win,9/16/20,17:56:56,03 (pilot),20,1,main,2,next_trial,494,35,3,5,191,3,3265
165,6.2.2,win,9/16/20,17:56:56,03 (pilot),20,1,main,2,next_trial,497,25,2,5,169,3,6442
166,6.2.2,win,9/16/20,17:56:56,03 (pilot),20,1,main,2,next_trial,500,20,2,0,257,1,4868
167,6.2.2,win,9/16/20,17:56:56,03 (pilot),20,1,main,2,next_trial,503,55,5,5,176,1,7803
168,6.2.2,win,9/16/20,17:56:56,03 (pilot),20,1,main,2,next_trial,506,30,3,0,337,4,5876
169,6.2.2,win,9/16/20,17:56:56,03 (pilot),20,1,main,2,next_trial,509,10,1,0,262,5,2757
170,6.2.2,win,9/16/20,17:56:56,03 (pilot),20,1,main,2,next_trial,512,10,1,0,256,3,5647
171,6.2.2,win,9/16/20,17:56:56,03 (pilot),20,1,main,2,next_trial,515,60,6,0,18,1,2099
172,6.2.2,win,9/16/20,17:56:56,03 (pilot),20,1,main,2,next_trial,518,65,6,5,221,3,3362
173,6.2.2,win,9/16/20,17:56:56,03 (pilot),20,1,main,2,next_trial,521,30,3,0,344,1,2338
174,6.2.2,win,9/16/20,17:56:56,03 (pilot),20,1,main,2,next_trial,524,65,6,5,163,6,3174
175,6.2.2,win,9/16/20,17:56:56,03 (pilot),20,1,main,2,next_trial,527,40,4,0,333,4,1327
176,6.2.2,win,9/16/20,17:56:56,03 (pilot),20,1,main,2,next_trial,530,55,5,5,213,1,1848
177,6.2.2,win,9/16/20,17:56:56,03 (pilot),20,1,main,2,next_trial,533,15,1,5,223,3,2202
178,6.2.2,win,9/16/20,17:56:56,03 (pilot),20,1,main,2,next_trial,536,50,5,0,3,1,2866
179,6.2.2,win,9/16/20,17:56:56,03 (pilot),20,1,main,2,next_trial,539,20,2,0,256,3,1992
180,6.2.2,win,9/16/20,17:56:56,03 (pilot),20,1,main,2,next_trial,542,35,3,5,227,3,1446
181,6.2.2,win,9/16/20,17:56:56,03 (pilot),20,1,main,2,next_trial,545,30,3,0,347,5,2361
182,6.2.2,win,9/16/20,17:56:56,03 (pilot),20,1,main,2,next_trial,548,65,6,5,182,1,2851
183,6.2.2,win,9/16/20,17:56:56,03 (pilot),20,1,main,2,next_trial,551,20,2,0,276,3,3531
184,6.2.2,win,9/16/20,17:56:56,03 (pilot),20,1,main,2,next_trial,554,65,6,5,176,2,2749
185,6.2.2,win,9/16/20,17:56:56,03 (pilot),20,1,main,2,next_trial,557,30,3,0,343,3,5485
186,6.2.2,win,9/16/20,17:56:56,03 (pilot),20,1,main,2,next_trial,560,40,4,0,341,2,2338
187,6.2.2,win,9/16/20,17:56:56,03 (pilot),20,1,main,2,next_trial,563,55,5,5,184,1,2622
188,6.2.2,win,9/16/20,17:56:56,03 (pilot),20,1,main,2,next_trial,566,10,1,0,268,1,2618
189,6.2.2,win,9/16/20,17:56:56,03 (pilot),20,1,main,2,next_trial,569,25,2,5,224,4,1583
190,6.2.2,win,9/16/20,17:56:56,03 (pilot),20,1,main,2,next_trial,572,40,4,0,326,5,1573
191,6.2.2,win,9/16/20,17:56:56,03 (pilot),20,1,main,2,next_trial,575,35,3,5,208,1,2547
192,6.2.2,win,9/16/20,17:56:56,03 (pilot),20,1,main,2,next_trial,578,60,6,0,17,3,1880
193,6.2.2,win,9/16/20,17:56:56,03 (pilot),20,1,main,2,next_trial,581,55,5,5,195,4,3004
194,6.2.2,win,9/16/20,17:56:56,03 (pilot),20,1,main,2,next_trial,584,55,5,5,175,5,2062
195,6.2.2,win,9/16/20,17:56:56,03 (pilot),20,1,main,2,next_trial,587,40,4,0,331,6,3425
196,6.2.2,win,9/16/20,17:56:56,03 (pilot),20,1,main,2,next_trial,590,25,2,5,183,4,2796
197,6.2.2,win,9/16/20,17:56:56,03 (pilot),20,1,main,2,next_trial,593,65,6,5,166,3,2730
198,6.2.2,win,9/16/20,17:56:56,03 (pilot),20,1,main,2,next_trial,596,45,4,5,165,2,2689
199,6.2.2,win,9/16/20,17:56:56,03 (pilot),20,1,main,2,next_trial,599,60,6,0,14,4,4032
200,6.2.2,win,9/16/20,17:56:56,03 (pilot),20,1,main,2,next_trial,602,35,3,5,207,6,4052
201,6.2.2,win,9/16/20,17:56:56,03 (pilot),20,1,main,2,next_trial,605,40,4,0,328,4,2116
202,6.2.2,win,9/16/20,17:56:56,03 (pilot),20,1,main,2,next_trial,608,30,3,0,341,2,1329
203,6.2.2,win,9/16/20,17:56:56,03 (pilot),20,1,main,2,next_trial,611,15,1,5,178,1,1104
204,6.2.2,win,9/16/20,17:56:56,03 (pilot),20,1,main,2,next_trial,614,45,4,5,162,3,1606
205,6.2.2,win,9/16/20,17:56:56,03 (pilot),20,1,main,2,next_trial,617,50,5,0,14,4,1295
206,6.2.2,win,9/16/20,17:56:56,03 (pilot),20,1,main,2,next_trial,620,25,2,5,167,5,1207
207,6.2.2,win,9/16/20,17:56:56,03 (pilot),20,1,main,2,next_trial,623,20,2,0,259,6,1556
208,6.2.2,win,9/16/20,17:56:56,03 (pilot),20,1,main,2,next_trial,626,35,3,5,166,1,2131
209,6.2.2,win,9/16/20,17:56:56,03 (pilot),20,1,main,2,next_trial,629,20,2,0,267,3,1708
210,6.2.2,win,9/16/20,17:56:56,03 (pilot),20,1,main,2,next_trial,632,25,2,5,186,2,1829
211,6.2.2,win,9/16/20,17:56:56,03 (pilot),20,1,main,2,next_trial,635,10,1,0,266,1,1787
212,6.2.2,win,9/16/20,17:56:56,03 (pilot),20,1,main,2,next_trial,638,50,5,0,12,3,2161
213,6.2.2,win,9/16/20,17:56:56,03 (pilot),20,1,main,2,next_trial,641,15,1,5,222,1,2089
214,6.2.2,win,9/16/20,17:56:56,03 (pilot),20,1,main,2,next_trial,644,20,2,0,260,2,2653
215,6.2.2,win,9/16/20,17:56:56,03 (pilot),20,1,main,2,next_trial,647,50,5,0,20,1,2136
216,6.2.2,win,9/16/20,17:56:56,03 (pilot),20,1,main,2,next_trial,650,40,4,0,347,3,1876
217,6.2.2,win,9/16/20,17:56:56,03 (pilot),20,1,main,2,next_trial,653,45,4,5,211,4,2756
218,6.2.2,win,9/16/20,17:56:56,03 (pilot),20,1,main,2,next_trial,656,50,5,0,1,3,2985
219,6.2.2,win,9/16/20,17:56:56,03 (pilot),20,1,main,2,next_trial,659,45,4,5,204,4,1397
220,6.2.2,win,9/16/20,17:56:56,03 (pilot),20,1,main,2,next_trial,662,50,5,0,4,3,1466
221,6.2.2,win,9/16/20,17:56:56,03 (pilot),20,1,main,2,next_trial,670,10,1,0,276,3,2115
222,6.2.2,win,9/16/20,17:56:56,03 (pilot),20,1,main,2,next_trial,673,30,3,0,339,3,1955
223,6.2.2,win,9/16/20,17:56:56,03 (pilot),20,1,main,2,next_trial,676,30,3,0,334,1,2687
224,6.2.2,win,9/16/20,17:56:56,03 (pilot),20,1,main,2,next_trial,679,45,4,5,177,1,2803
225,6.2.2,win,9/16/20,17:56:56,03 (pilot),20,1,main,2,next_trial,682,55,5,5,179,4,1447
226,6.2.2,win,9/16/20,17:56:56,03 (pilot),20,1,main,2,next_trial,685,45,4,5,161,5,1433
227,6.2.2,win,9/16/20,17:56:56,03 (pilot),20,1,main,2,next_trial,688,10,1,0,255,5,2124
228,6.2.2,win,9/16/20,17:56:56,03 (pilot),20,1,main,2,next_trial,691,60,6,0,3,3,1802
229,6.2.2,win,9/16/20,17:56:56,03 (pilot),20,1,main,2,next_trial,694,25,2,5,197,2,1600
230,6.2.2,win,9/16/20,17:56:56,03 (pilot),20,1,main,2,next_trial,697,50,5,0,9,1,1735
231,6.2.2,win,9/16/20,17:56:56,03 (pilot),20,1,main,2,next_trial,700,25,2,5,219,5,2142
232,6.2.2,win,9/16/20,17:56:56,03 (pilot),20,1,main,2,next_trial,703,30,3,0,328,4,2205
233,6.2.2,win,9/16/20,17:56:56,03 (pilot),20,1,main,2,next_trial,706,45,4,5,198,3,1185
234,6.2.2,win,9/16/20,17:56:56,03 (pilot),20,1,main,2,next_trial,709,25,2,5,160,2,1333
235,6.2.2,win,9/16/20,17:56:56,03 (pilot),20,1,main,2,next_trial,712,40,4,0,325,3,1659
236,6.2.2,win,9/16/20,17:56:56,03 (pilot),20,1,main,2,next_trial,715,40,4,0,332,3,4728
237,6.2.2,win,9/16/20,17:56:56,03 (pilot),20,1,main,2,next_trial,718,65,6,5,202,1,2072
238,6.2.2,win,9/16/20,17:56:56,03 (pilot),20,1,main,2,next_trial,721,50,5,0,11,3,4068
239,6.2.2,win,9/16/20,17:56:56,03 (pilot),20,1,main,2,next_trial,724,40,4,0,334,4,1995
240,6.2.2,win,9/16/20,17:56:56,03 (pilot),20,1,main,2,next_trial,727,10,1,0,275,2,3059
241,6.2.2,win,9/16/20,17:56:56,03 (pilot),20,1,main,2,next_trial,730,15,1,5,173,1,1983
242,6.2.2,win,9/16/20,17:56:56,03 (pilot),20,1,main,2,next_trial,733,60,6,0,16,4,1704
243,6.2.2,win,9/16/20,17:56:56,03 (pilot),20,1,main,2,next_trial,736,65,6,5,171,3,1820
244,6.2.2,win,9/16/20,17:56:56,03 (pilot),20,1,main,2,next_trial,739,45,4,5,223,2,2539
245,6.2.2,win,9/16/20,17:56:56,03 (pilot),20,1,main,2,next_trial,742,35,3,5,174,6,2652
246,6.2.2,win,9/16/20,17:56:56,03 (pilot),20,1,main,2,next_trial,745,15,1,5,201,6,2507
247,6.2.2,win,9/16/20,17:56:56,03 (pilot),20,1,main,2,next_trial,748,15,1,5,203,3,2013
248,6.2.2,win,9/16/20,17:56:56,03 (pilot),20,1,main,2,next_trial,751,25,2,5,226,2,4740
249,6.2.2,win,9/16/20,17:56:56,03 (pilot),20,1,main,2,next_trial,754,55,5,5,168,1,1878
250,6.2.2,win,9/16/20,17:56:56,03 (pilot),20,1,main,2,next_trial,757,65,6,5,206,2,1505
251,6.2.2,win,9/16/20,17:56:56,03 (pilot),20,1,main,2,next_trial,760,50,5,0,18,3,1772
252,6.2.2,win,9/16/20,17:56:56,03 (pilot),20,1,main,2,next_trial,763,35,3,5,211,2,1898
253,6.2.2,win,9/16/20,17:56:56,03 (pilot),20,1,main,2,next_trial,766,20,2,0,255,4,2011
254,6.2.2,win,9/16/20,17:56:56,03 (pilot),20,1,main,2,next_trial,769,35,3,5,225,4,1847
255,6.2.2,win,9/16/20,17:56:56,03 (pilot),20,1,main,2,next_trial,772,60,6,0,22,2,2116
256,6.2.2,win,9/16/20,17:56:56,03 (pilot),20,1,main,2,next_trial,775,55,5,5,162,3,3421
257,6.2.2,win,9/16/20,17:56:56,03 (pilot),20,1,main,2,next_trial,778,55,5,5,226,4,2301
258,6.2.2,win,9/16/20,17:56:56,03 (pilot),20,1,main,2,next_trial,781,15,1,5,202,2,1876
259,6.2.2,win,9/16/20,17:56:56,03 (pilot),20,1,main,2,next_trial,784,20,2,0,261,2,4154
260,6.2.2,win,9/16/20,17:56:56,03 (pilot),20,1,main,2,next_trial,787,45,4,5,179,5,2083
261,6.2.2,win,9/16/20,17:56:56,03 (pilot),20,1,main,2,next_trial,790,60,6,0,19,3,7210
262,6.2.2,win,9/16/20,17:56:56,03 (pilot),20,1,main,2,next_trial,793,15,1,5,210,2,1906
263,6.2.2,win,9/16/20,17:56:56,03 (pilot),20,1,main,2,next_trial,796,35,3,5,165,4,1570
264,6.2.2,win,9/16/20,17:56:56,03 (pilot),20,1,main,2,next_trial,799,55,5,5,180,3,1964
265,6.2.2,win,9/16/20,17:56:56,03 (pilot),20,1,main,2,next_trial,802,25,2,5,222,3,1569
266,6.2.2,win,9/16/20,17:56:56,03 (pilot),20,1,main,2,next_trial,805,65,6,5,220,3,1670
267,6.2.2,win,9/16/20,17:56:56,03 (pilot),20,1,main,2,next_trial,808,45,4,5,210,1,2209
268,6.2.2,win,9/16/20,17:56:56,03 (pilot),20,1,main,2,next_trial,811,10,1,0,272,2,1936
269,6.2.2,win,9/16/20,17:56:56,03 (pilot),20,1,main,2,next_trial,814,30,3,0,330,3,1589
270,6.2.2,win,9/16/20,17:56:56,03 (pilot),20,1,main,2,next_trial,817,40,4,0,339,4,1543
271,6.2.2,win,9/16/20,17:56:56,03 (pilot),20,1,main,2,next_trial,820,50,5,0,6,3,1987
272,6.2.2,win,9/16/20,17:56:56,03 (pilot),20,1,main,2,next_trial,823,65,6,5,195,5,1215
273,6.2.2,win,9/16/20,17:56:56,03 (pilot),20,1,main,2,next_trial,826,40,4,0,330,2,1943
274,6.2.2,win,9/16/20,17:56:56,03 (pilot),20,1,main,2,next_trial,829,20,2,0,274,1,2256
275,6.2.2,win,9/16/20,17:56:56,03 (pilot),20,1,main,2,next_trial,832,60,6,0,4,2,3319
276,6.2.2,win,9/16/20,17:56:56,03 (pilot),20,1,main,2,next_trial,835,30,3,0,345,3,2480
277,6.2.2,win,9/16/20,17:56:56,03 (pilot),20,1,main,2,next_trial,838,35,3,5,219,4,1105
278,6.2.2,win,9/16/20,17:56:56,03 (pilot),20,1,main,2,next_trial,841,65,6,5,180,5,1540
279,6.2.2,win,9/16/20,17:56:56,03 (pilot),20,1,main,2,next_trial,844,25,2,5,174,2,2733
280,6.2.2,win,9/16/20,17:56:56,03 (pilot),20,1,main,2,next_trial,847,55,5,5,197,1,2094
281,6.2.2,win,9/16/20,17:56:56,03 (pilot),20,1,main,2,next_trial,850,50,5,0,21,3,2535
282,6.2.2,win,9/16/20,17:56:56,03 (pilot),20,1,main,2,next_trial,853,20,2,0,254,2,3572
283,6.2.2,win,9/16/20,17:56:56,03 (pilot),20,1,main,2,next_trial,856,40,4,0,345,1,1877
284,6.2.2,win,9/16/20,17:56:56,03 (pilot),20,1,main,2,next_trial,859,60,6,0,23,1,4380
285,6.2.2,win,9/16/20,17:56:56,03 (pilot),20,1,main,2,next_trial,862,15,1,5,198,3,1975
286,6.2.2,win,9/16/20,17:56:56,03 (pilot),20,1,main,2,next_trial,865,10,1,0,254,2,1773
287,6.2.2,win,9/16/20,17:56:56,03 (pilot),20,1,main,2,next_trial,868,30,3,0,340,3,4083
288,6.2.2,win,9/16/20,17:56:56,03 (pilot),20,1,main,2,next_trial,871,35,3,5,163,2,1984
289,6.2.2,win,9/16/20,17:56:56,03 (pilot),20,1,main,2,next_trial,874,20,2,0,266,1,2779
290,6.2.2,win,9/16/20,17:56:56,03 (pilot),20,1,main,2,next_trial,877,10,1,0,263,3,2182
291,6.2.2,win,9/16/20,17:56:56,03 (pilot),20,1,main,2,next_trial,880,20,2,0,263,4,1507
292,6.2.2,win,9/16/20,17:56:56,03 (pilot),20,1,main,2,next_trial,883,50,5,0,24,4,2188
293,6.2.2,mac,9/17/20,12:22:32,03 Pilot,22,1,practice,1,next_trial,7,80,8,0,1,3,5451
294,6.2.2,mac,9/17/20,12:22:32,03 Pilot,22,1,practice,1,next_trial,10,85,8,5,42,4,4273
295,6.2.2,mac,9/17/20,12:22:32,03 Pilot,22,1,practice,1,next_trial,13,80,8,0,2,4,1795
296,6.2.2,mac,9/17/20,12:22:32,03 Pilot,22,1,practice,1,next_trial,16,85,8,5,41,4,4211
297,6.2.2,mac,9/17/20,12:22:32,03 Pilot,22,1,main,2,next_trial,7,15,1,5,237,5,2817
298,6.2.2,mac,9/17/20,12:22:32,03 Pilot,22,1,main,2,next_trial,10,65,6,5,197,3,3188
299,6.2.2,mac,9/17/20,12:22:32,03 Pilot,22,1,main,2,next_trial,13,10,1,0,299,2,2619
300,6.2.2,mac,9/17/20,12:22:32,03 Pilot,22,1,main,2,next_trial,16,40,4,0,359,3,1726
301,6.2.2,mac,9/17/20,12:22:32,03 Pilot,22,1,main,2,next_trial,19,30,3,0,358,5,2040
302,6.2.2,mac,9/17/20,12:22:32,03 Pilot,22,1,main,2,next_trial,22,20,2,0,286,4,2788
303,6.2.2,mac,9/17/20,12:22:32,03 Pilot,22,1,main,2,next_trial,25,50,5,0,45,1,1839
304,6.2.2,mac,9/17/20,12:22:32,03 Pilot,22,1,main,2,next_trial,28,50,5,0,39,5,2647
305,6.2.2,mac,9/17/20,12:22:32,03 Pilot,22,1,main,2,next_trial,31,45,4,5,212,3,3025
306,6.2.2,mac,9/17/20,12:22:32,03 Pilot,22,1,main,2,next_trial,34,10,1,0,292,3,1813
307,6.2.2,mac,9/17/20,12:22:32,03 Pilot,22,1,main,2,next_trial,37,15,1,5,193,5,2620
308,6.2.2,mac,9/17/20,12:22:32,03 Pilot,22,1,main,2,next_trial,40,35,3,5,199,4,2893
309,6.2.2,mac,9/17/20,12:22:32,03 Pilot,22,1,main,2,next_trial,43,60,6,0,26,3,1930
310,6.2.2,mac,9/17/20,12:22:32,03 Pilot,22,1,main,2,next_trial,46,55,5,5,188,3,2110
311,6.2.2,mac,9/17/20,12:22:32,03 Pilot,22,1,main,2,next_trial,49,30,3,0,356,2,2769
312,6.2.2,mac,9/17/20,12:22:32,03 Pilot,22,1,main,2,next_trial,52,35,3,5,208,5,2074
313,6.2.2,mac,9/17/20,12:22:32,03 Pilot,22,1,main,2,next_trial,55,60,6,0,37,3,3018
314,6.2.2,mac,9/17/20,12:22:32,03 Pilot,22,1,main,2,next_trial,58,35,3,5,215,3,3130
315,6.2.2,mac,9/17/20,12:22:32,03 Pilot,22,1,main,2,next_trial,61,40,4,0,370,3,3346
316,6.2.2,mac,9/17/20,12:22:32,03 Pilot,22,1,main,2,next_trial,64,45,4,5,199,4,2948
317,6.2.2,mac,9/17/20,12:22:32,03 Pilot,22,1,main,2,next_trial,67,40,4,0,372,3,5289
318,6.2.2,mac,9/17/20,12:22:32,03 Pilot,22,1,main,2,next_trial,70,10,1,0,289,4,2081
319,6.2.2,mac,9/17/20,12:22:32,03 Pilot,22,1,main,2,next_trial,73,35,3,5,216,4,1745
320,6.2.2,mac,9/17/20,12:22:32,03 Pilot,22,1,main,2,next_trial,76,55,5,5,219,4,2256
321,6.2.2,mac,9/17/20,12:22:32,03 Pilot,22,1,main,2,next_trial,79,10,1,0,283,4,5070
322,6.2.2,mac,9/17/20,12:22:32,03 Pilot,22,1,main,2,next_trial,82,25,2,5,208,3,2293
323,6.2.2,mac,9/17/20,12:22:32,03 Pilot,22,1,main,2,next_trial,85,35,3,5,195,3,3917
324,6.2.2,mac,9/17/20,12:22:32,03 Pilot,22,1,main,2,next_trial,88,15,1,5,220,3,1604
325,6.2.2,mac,9/17/20,12:22:32,03 Pilot,22,1,main,2,next_trial,91,10,1,0,295,3,1963
326,6.2.2,mac,9/17/20,12:22:32,03 Pilot,22,1,main,2,next_trial,94,55,5,5,191,4,2162
327,6.2.2,mac,9/17/20,12:22:32,03 Pilot,22,1,main,2,next_trial,97,15,1,5,200,4,3283
328,6.2.2,mac,9/17/20,12:22:32,03 Pilot,22,1,main,2,next_trial,100,50,5,0,41,3,2674
329,6.2.2,mac,9/17/20,12:22:32,03 Pilot,22,1,main,2,next_trial,103,20,2,0,299,2,2048
330,6.2.2,mac,9/17/20,12:22:32,03 Pilot,22,1,main,2,next_trial,106,10,1,0,290,3,2734
331,6.2.2,mac,9/17/20,12:22:32,03 Pilot,22,1,main,2,next_trial,109,55,5,5,213,4,4161
332,6.2.2,mac,9/17/20,12:22:32,03 Pilot,22,1,main,2,next_trial,112,65,6,5,203,3,3041
333,6.2.2,mac,9/17/20,12:22:32,03 Pilot,22,1,main,2,next_trial,115,20,2,0,285,3,6022
334,6.2.2,mac,9/17/20,12:22:32,03 Pilot,22,1,main,2,next_trial,118,25,2,5,182,4,1676
335,6.2.2,mac,9/17/20,12:22:32,03 Pilot,22,1,main,2,next_trial,121,65,6,5,202,3,2299
336,6.2.2,mac,9/17/20,12:22:32,03 Pilot,22,1,main,2,next_trial,124,40,4,0,368,3,3176
337,6.2.2,mac,9/17/20,12:22:32,03 Pilot,22,1,main,2,next_trial,127,65,6,5,227,3,2392
338,6.2.2,mac,9/17/20,12:22:32,03 Pilot,22,1,main,2,next_trial,130,50,5,0,47,3,1789
339,6.2.2,mac,9/17/20,12:22:32,03 Pilot,22,1,main,2,next_trial,133,65,6,5,218,4,2082
340,6.2.2,mac,9/17/20,12:22:32,03 Pilot,22,1,main,2,next_trial,136,30,3,0,369,2,2049
341,6.2.2,mac,9/17/20,12:22:32,03 Pilot,22,1,main,2,next_trial,139,60,6,0,45,4,2577
342,6.2.2,mac,9/17/20,12:22:32,03 Pilot,22,1,main,2,next_trial,142,30,3,0,360,4,1947
343,6.2.2,mac,9/17/20,12:22:32,03 Pilot,22,1,main,2,next_trial,145,20,2,0,296,2,5504
344,6.2.2,mac,9/17/20,12:22:32,03 Pilot,22,1,main,2,next_trial,148,55,5,5,251,3,3058
345,6.2.2,mac,9/17/20,12:22:32,03 Pilot,22,1,main,2,next_trial,151,50,5,0,38,1,1890
346,6.2.2,mac,9/17/20,12:22:32,03 Pilot,22,1,main,2,next_trial,154,30,3,0,370,5,2777
347,6.2.2,mac,9/17/20,12:22:32,03 Pilot,22,1,main,2,next_trial,157,30,3,0,354,2,3214
348,6.2.2,mac,9/17/20,12:22:32,03 Pilot,22,1,main,2,next_trial,160,40,4,0,356,3,5062
349,6.2.2,mac,9/17/20,12:22:32,03 Pilot,22,1,main,2,next_trial,163,25,2,5,200,4,2487
350,6.2.2,mac,9/17/20,12:22:32,03 Pilot,22,1,main,2,next_trial,166,20,2,0,300,4,5342
351,6.2.2,mac,9/17/20,12:22:32,03 Pilot,22,1,main,2,next_trial,169,40,4,0,350,5,2150
352,6.2.2,mac,9/17/20,12:22:32,03 Pilot,22,1,main,2,next_trial,172,35,3,5,246,3,5806
353,6.2.2,mac,9/17/20,12:22:32,03 Pilot,22,1,main,2,next_trial,175,45,4,5,188,3,3090
354,6.2.2,mac,9/17/20,12:22:32,03 Pilot,22,1,main,2,next_trial,178,45,4,5,250,3,1968
355,6.2.2,mac,9/17/20,12:22:32,03 Pilot,22,1,main,2,next_trial,181,20,2,0,283,4,2260
356,6.2.2,mac,9/17/20,12:22:32,03 Pilot,22,1,main,2,next_trial,184,45,4,5,244,3,3429
357,6.2.2,mac,9/17/20,12:22:32,03 Pilot,22,1,main,2,next_trial,187,25,2,5,213,4,5975
358,6.2.2,mac,9/17/20,12:22:32,03 Pilot,22,1,main,2,next_trial,190,25,2,5,206,4,1962
359,6.2.2,mac,9/17/20,12:22:32,03 Pilot,22,1,main,2,next_trial,193,60,6,0,31,3,1385
360,6.2.2,mac,9/17/20,12:22:32,03 Pilot,22,1,main,2,next_trial,196,15,1,5,242,4,2023
361,6.2.2,mac,9/17/20,12:22:32,03 Pilot,22,1,main,2,next_trial,199,45,4,5,190,2,1830
362,6.2.2,mac,9/17/20,12:22:32,03 Pilot,22,1,main,2,next_trial,202,50,5,0,29,3,2991
363,6.2.2,mac,9/17/20,12:22:32,03 Pilot,22,1,main,2,next_trial,205,25,2,5,185,3,2926
364,6.2.2,mac,9/17/20,12:22:32,03 Pilot,22,1,main,2,next_trial,208,60,6,0,48,3,1124
365,6.2.2,mac,9/17/20,12:22:32,03 Pilot,22,1,main,2,next_trial,211,15,1,5,207,3,1115
366,6.2.2,mac,9/17/20,12:22:32,03 Pilot,22,1,main,2,next_trial,214,60,6,0,35,4,2419
367,6.2.2,mac,9/17/20,12:22:32,03 Pilot,22,1,main,2,next_trial,217,65,6,5,191,3,2601
368,6.2.2,mac,9/17/20,12:22:32,03 Pilot,22,1,main,2,next_trial,220,55,5,5,248,3,2175
369,6.2.2,mac,9/17/20,12:22:32,03 Pilot,22,1,main,2,next_trial,228,30,3,0,372,5,2188
370,6.2.2,mac,9/17/20,12:22:32,03 Pilot,22,1,main,2,next_trial,231,55,5,5,252,4,2575
371,6.2.2,mac,9/17/20,12:22:32,03 Pilot,22,1,main,2,next_trial,234,35,3,5,211,4,1649
372,6.2.2,mac,9/17/20,12:22:32,03 Pilot,22,1,main,2,next_trial,237,60,6,0,41,3,1185
373,6.2.2,mac,9/17/20,12:22:32,03 Pilot,22,1,main,2,next_trial,240,10,1,0,297,4,3200
374,6.2.2,mac,9/17/20,12:22:32,03 Pilot,22,1,main,2,next_trial,243,20,2,0,289,4,2016
375,6.2.2,mac,9/17/20,12:22:32,03 Pilot,22,1,main,2,next_trial,246,45,4,5,196,3,2261
376,6.2.2,mac,9/17/20,12:22:32,03 Pilot,22,1,main,2,next_trial,249,40,4,0,363,3,1489
377,6.2.2,mac,9/17/20,12:22:32,03 Pilot,22,1,main,2,next_trial,252,10,1,0,277,3,2242
378,6.2.2,mac,9/17/20,12:22:32,03 Pilot,22,1,main,2,next_trial,255,15,1,5,182,4,3329
379,6.2.2,mac,9/17/20,12:22:32,03 Pilot,22,1,main,2,next_trial,258,45,4,5,193,3,3094
380,6.2.2,mac,9/17/20,12:22:32,03 Pilot,22,1,main,2,next_trial,261,50,5,0,48,5,3903
381,6.2.2,mac,9/17/20,12:22:32,03 Pilot,22,1,main,2,next_trial,264,15,1,5,238,4,3934
382,6.2.2,mac,9/17/20,12:22:32,03 Pilot,22,1,main,2,next_trial,267,10,1,0,296,3,2092
383,6.2.2,mac,9/17/20,12:22:32,03 Pilot,22,1,main,2,next_trial,270,25,2,5,221,4,2262
384,6.2.2,mac,9/17/20,12:22:32,03 Pilot,22,1,main,2,next_trial,273,45,4,5,224,3,3344
385,6.2.2,mac,9/17/20,12:22:32,03 Pilot,22,1,main,2,next_trial,276,65,6,5,246,3,1341
386,6.2.2,mac,9/17/20,12:22:32,03 Pilot,22,1,main,2,next_trial,279,20,2,0,291,3,1375
387,6.2.2,mac,9/17/20,12:22:32,03 Pilot,22,1,main,2,next_trial,282,65,6,5,211,3,1362
388,6.2.2,mac,9/17/20,12:22:32,03 Pilot,22,1,main,2,next_trial,285,50,5,0,30,4,1927
389,6.2.2,mac,9/17/20,12:22:32,03 Pilot,22,1,main,2,next_trial,288,10,1,0,287,4,3712
390,6.2.2,mac,9/17/20,12:22:32,03 Pilot,22,1,main,2,next_trial,291,20,2,0,293,4,3295
391,6.2.2,mac,9/17/20,12:22:32,03 Pilot,22,1,main,2,next_trial,294,35,3,5,228,5,4037
392,6.2.2,mac,9/17/20,12:22:32,03 Pilot,22,1,main,2,next_trial,297,40,4,0,352,3,1893
393,6.2.2,mac,9/17/20,12:22:32,03 Pilot,22,1,main,2,next_trial,300,30,3,0,349,4,3461
394,6.2.2,mac,9/17/20,12:22:32,03 Pilot,22,1,main,2,next_trial,303,60,6,0,39,3,1415
395,6.2.2,mac,9/17/20,12:22:32,03 Pilot,22,1,main,2,next_trial,306,40,4,0,355,3,1306
396,6.2.2,mac,9/17/20,12:22:32,03 Pilot,22,1,main,2,next_trial,309,50,5,0,40,5,2661
397,6.2.2,mac,9/17/20,12:22:32,03 Pilot,22,1,main,2,next_trial,312,65,6,5,231,5,3376
398,6.2.2,mac,9/17/20,12:22:32,03 Pilot,22,1,main,2,next_trial,315,55,5,5,205,5,1998
399,6.2.2,mac,9/17/20,12:22:32,03 Pilot,22,1,main,2,next_trial,318,35,3,5,202,3,2306
400,6.2.2,mac,9/17/20,12:22:32,03 Pilot,22,1,main,2,next_trial,321,35,3,5,232,4,7999
401,6.2.2,mac,9/17/20,12:22:32,03 Pilot,22,1,main,2,next_trial,324,15,1,5,233,4,4280
402,6.2.2,mac,9/17/20,12:22:32,03 Pilot,22,1,main,2,next_trial,327,20,2,0,288,3,2531
403,6.2.2,mac,9/17/20,12:22:32,03 Pilot,22,1,main,2,next_trial,330,45,4,5,234,3,1742
404,6.2.2,mac,9/17/20,12:22:32,03 Pilot,22,1,main,2,next_trial,333,50,5,0,27,4,5225
405,6.2.2,mac,9/17/20,12:22:32,03 Pilot,22,1,main,2,next_trial,336,60,6,0,25,4,2025
406,6.2.2,mac,9/17/20,12:22:32,03 Pilot,22,1,main,2,next_trial,339,45,4,5,194,4,1709
407,6.2.2,mac,9/17/20,12:22:32,03 Pilot,22,1,main,2,next_trial,342,45,4,5,238,3,1377
408,6.2.2,mac,9/17/20,12:22:32,03 Pilot,22,1,main,2,next_trial,345,15,1,5,181,4,1883
409,6.2.2,mac,9/17/20,12:22:32,03 Pilot,22,1,main,2,next_trial,348,55,5,5,214,4,1226
410,6.2.2,mac,9/17/20,12:22:32,03 Pilot,22,1,main,2,next_trial,351,20,2,0,280,4,5121
411,6.2.2,mac,9/17/20,12:22:32,03 Pilot,22,1,main,2,next_trial,354,55,5,5,189,4,1852
412,6.2.2,mac,9/17/20,12:22:32,03 Pilot,22,1,main,2,next_trial,357,25,2,5,247,3,1853
413,6.2.2,mac,9/17/20,12:22:32,03 Pilot,22,1,main,2,next_trial,360,20,2,0,278,3,1192
414,6.2.2,mac,9/17/20,12:22:32,03 Pilot,22,1,main,2,next_trial,363,30,3,0,361,5,3729
415,6.2.2,mac,9/17/20,12:22:32,03 Pilot,22,1,main,2,next_trial,366,25,2,5,192,4,6828
416,6.2.2,mac,9/17/20,12:22:32,03 Pilot,22,1,main,2,next_trial,369,65,6,5,186,3,2477
417,6.2.2,mac,9/17/20,12:22:32,03 Pilot,22,1,main,2,next_trial,372,10,1,0,294,4,4224
418,6.2.2,mac,9/17/20,12:22:32,03 Pilot,22,1,main,2,next_trial,375,30,3,0,355,3,1450
419,6.2.2,mac,9/17/20,12:22:32,03 Pilot,22,1,main,2,next_trial,378,50,5,0,42,3,2811
420,6.2.2,mac,9/17/20,12:22:32,03 Pilot,22,1,main,2,next_trial,381,55,5,5,230,3,1260
421,6.2.2,mac,9/17/20,12:22:32,03 Pilot,22,1,main,2,next_trial,384,25,2,5,220,3,1287
422,6.2.2,mac,9/17/20,12:22:32,03 Pilot,22,1,main,2,next_trial,387,40,4,0,367,3,1253
423,6.2.2,mac,9/17/20,12:22:32,03 Pilot,22,1,main,2,next_trial,390,65,6,5,187,3,1671
424,6.2.2,mac,9/17/20,12:22:32,03 Pilot,22,1,main,2,next_trial,393,35,3,5,201,3,1326
425,6.2.2,mac,9/17/20,12:22:32,03 Pilot,22,1,main,2,next_trial,396,15,1,5,218,4,7447
426,6.2.2,mac,9/17/20,12:22:32,03 Pilot,22,1,main,2,next_trial,399,25,2,5,251,4,6357
427,6.2.2,mac,9/17/20,12:22:32,03 Pilot,22,1,main,2,next_trial,402,65,6,5,184,3,6547
428,6.2.2,mac,9/17/20,12:22:32,03 Pilot,22,1,main,2,next_trial,405,10,1,0,279,3,1271
429,6.2.2,mac,9/17/20,12:22:32,03 Pilot,22,1,main,2,next_trial,408,60,6,0,43,3,1340
430,6.2.2,mac,9/17/20,12:22:32,03 Pilot,22,1,main,2,next_trial,411,30,3,0,351,3,1018
431,6.2.2,mac,9/17/20,12:22:32,03 Pilot,22,1,main,2,next_trial,414,35,3,5,223,4,1996
432,6.2.2,mac,9/17/20,12:22:32,03 Pilot,22,1,main,2,next_trial,417,40,4,0,365,3,1208
433,6.2.2,mac,9/17/20,12:22:32,03 Pilot,22,1,main,2,next_trial,420,55,5,5,183,4,6130
434,6.2.2,mac,9/17/20,12:22:32,03 Pilot,22,1,main,2,next_trial,423,15,1,5,209,4,2482
435,6.2.2,mac,9/17/20,12:22:32,03 Pilot,22,1,main,2,next_trial,426,25,2,5,198,3,9808
436,6.2.2,mac,9/17/20,12:22:32,03 Pilot,22,1,main,2,next_trial,429,60,6,0,40,3,2142
437,6.2.2,mac,9/17/20,12:22:32,03 Pilot,22,1,main,2,next_trial,432,40,4,0,371,3,2019
438,6.2.2,mac,9/17/20,12:22:32,03 Pilot,22,1,main,2,next_trial,435,60,6,0,46,3,1125
439,6.2.2,mac,9/17/20,12:22:32,03 Pilot,22,1,main,2,next_trial,438,30,3,0,353,4,2796
440,6.2.2,mac,9/17/20,12:22:32,03 Pilot,22,1,main,2,next_trial,441,50,5,0,33,4,1693
441,6.2.2,mac,9/17/20,12:22:32,03 Pilot,22,1,main,2,next_trial,449,50,5,0,44,3,1877
442,6.2.2,mac,9/17/20,12:22:32,03 Pilot,22,1,main,2,next_trial,452,20,2,0,287,3,1526
443,6.2.2,mac,9/17/20,12:22:32,03 Pilot,22,1,main,2,next_trial,455,55,5,5,236,3,1272
444,6.2.2,mac,9/17/20,12:22:32,03 Pilot,22,1,main,2,next_trial,458,40,4,0,357,3,1046
445,6.2.2,mac,9/17/20,12:22:32,03 Pilot,22,1,main,2,next_trial,461,25,2,5,219,3,1230
446,6.2.2,mac,9/17/20,12:22:32,03 Pilot,22,1,main,2,next_trial,464,40,4,0,351,3,751
447,6.2.2,mac,9/17/20,12:22:32,03 Pilot,22,1,main,2,next_trial,467,15,1,5,226,4,1775
448,6.2.2,mac,9/17/20,12:22:32,03 Pilot,22,1,main,2,next_trial,470,20,2,0,298,4,1030
449,6.2.2,mac,9/17/20,12:22:32,03 Pilot,22,1,main,2,next_trial,473,60,6,0,36,3,1411
450,6.2.2,mac,9/17/20,12:22:32,03 Pilot,22,1,main,2,next_trial,476,25,2,5,207,3,1378
451,6.2.2,mac,9/17/20,12:22:32,03 Pilot,22,1,main,2,next_trial,479,45,4,5,245,4,2095
452,6.2.2,mac,9/17/20,12:22:32,03 Pilot,22,1,main,2,next_trial,482,10,1,0,300,4,2188
453,6.2.2,mac,9/17/20,12:22:32,03 Pilot,22,1,main,2,next_trial,485,55,5,5,187,4,1738
454,6.2.2,mac,9/17/20,12:22:32,03 Pilot,22,1,main,2,next_trial,488,55,5,5,234,4,1106
455,6.2.2,mac,9/17/20,12:22:32,03 Pilot,22,1,main,2,next_trial,491,60,6,0,47,3,1649
456,6.2.2,mac,9/17/20,12:22:32,03 Pilot,22,1,main,2,next_trial,494,20,2,0,292,3,1306
457,6.2.2,mac,9/17/20,12:22:32,03 Pilot,22,1,main,2,next_trial,497,40,4,0,364,4,4744
458,6.2.2,mac,9/17/20,12:22:32,03 Pilot,22,1,main,2,next_trial,500,65,6,5,240,3,6932
459,6.2.2,mac,9/17/20,12:22:32,03 Pilot,22,1,main,2,next_trial,503,20,2,0,284,4,2836
460,6.2.2,mac,9/17/20,12:22:32,03 Pilot,22,1,main,2,next_trial,506,50,5,0,36,5,8026
461,6.2.2,mac,9/17/20,12:22:32,03 Pilot,22,1,main,2,next_trial,509,60,6,0,33,3,2149
462,6.2.2,mac,9/17/20,12:22:32,03 Pilot,22,1,main,2,next_trial,512,10,1,0,284,3,2561
463,6.2.2,mac,9/17/20,12:22:32,03 Pilot,22,1,main,2,next_trial,515,65,6,5,216,4,2672
464,6.2.2,mac,9/17/20,12:22:32,03 Pilot,22,1,main,2,next_trial,518,30,3,0,365,4,1395
465,6.2.2,mac,9/17/20,12:22:32,03 Pilot,22,1,main,2,next_trial,521,35,3,5,221,4,1112
466,6.2.2,mac,9/17/20,12:22:32,03 Pilot,22,1,main,2,next_trial,524,45,4,5,217,4,3043
467,6.2.2,mac,9/17/20,12:22:32,03 Pilot,22,1,main,2,next_trial,527,50,5,0,43,4,2331
468,6.2.2,mac,9/17/20,12:22:32,03 Pilot,22,1,main,2,next_trial,530,65,6,5,237,4,3722
469,6.2.2,mac,9/17/20,12:22:32,03 Pilot,22,1,main,2,next_trial,533,10,1,0,293,4,1775
470,6.2.2,mac,9/17/20,12:22:32,03 Pilot,22,1,main,2,next_trial,536,45,4,5,195,3,1751
471,6.2.2,mac,9/17/20,12:22:32,03 Pilot,22,1,main,2,next_trial,539,15,1,5,241,5,2878
472,6.2.2,mac,9/17/20,12:22:32,03 Pilot,22,1,main,2,next_trial,542,45,4,5,209,3,2137
473,6.2.2,mac,9/17/20,12:22:32,03 Pilot,22,1,main,2,next_trial,545,25,2,5,230,3,1141
474,6.2.2,mac,9/17/20,12:22:32,03 Pilot,22,1,main,2,next_trial,548,50,5,0,25,3,9978
475,6.2.2,mac,9/17/20,12:22:32,03 Pilot,22,1,main,2,next_trial,551,55,5,5,225,4,1978
476,6.2.2,mac,9/17/20,12:22:32,03 Pilot,22,1,main,2,next_trial,554,50,5,0,31,4,1812
477,6.2.2,mac,9/17/20,12:22:32,03 Pilot,22,1,main,2,next_trial,557,25,2,5,181,4,1677
478,6.2.2,mac,9/17/20,12:22:32,03 Pilot,22,1,main,2,next_trial,560,55,5,5,196,3,1479
479,6.2.2,mac,9/17/20,12:22:32,03 Pilot,22,1,main,2,next_trial,563,15,1,5,185,3,1269
480,6.2.2,mac,9/17/20,12:22:32,03 Pilot,22,1,main,2,next_trial,566,60,6,0,32,3,1147
481,6.2.2,mac,9/17/20,12:22:32,03 Pilot,22,1,main,2,next_trial,569,60,6,0,28,3,1555
482,6.2.2,mac,9/17/20,12:22:32,03 Pilot,22,1,main,2,next_trial,572,30,3,0,366,2,1973
483,6.2.2,mac,9/17/20,12:22:32,03 Pilot,22,1,main,2,next_trial,575,60,6,0,29,2,1496
484,6.2.2,mac,9/17/20,12:22:32,03 Pilot,22,1,main,2,next_trial,578,65,6,5,242,4,1644
485,6.2.2,mac,9/17/20,12:22:32,03 Pilot,22,1,main,2,next_trial,581,30,3,0,350,4,1031
486,6.2.2,mac,9/17/20,12:22:32,03 Pilot,22,1,main,2,next_trial,584,40,4,0,361,4,2114
487,6.2.2,mac,9/17/20,12:22:32,03 Pilot,22,1,main,2,next_trial,587,10,1,0,298,5,1741
488,6.2.2,mac,9/17/20,12:22:32,03 Pilot,22,1,main,2,next_trial,590,35,3,5,250,5,1870
489,6.2.2,mac,9/17/20,12:22:32,03 Pilot,22,1,main,2,next_trial,593,45,4,5,205,4,1666
490,6.2.2,mac,9/17/20,12:22:32,03 Pilot,22,1,main,2,next_trial,596,35,3,5,227,4,2242
491,6.2.2,mac,9/17/20,12:22:32,03 Pilot,22,1,main,2,next_trial,599,50,5,0,34,4,3089
492,6.2.2,mac,9/17/20,12:22:32,03 Pilot,22,1,main,2,next_trial,602,10,1,0,285,3,1485
493,6.2.2,mac,9/17/20,12:22:32,03 Pilot,22,1,main,2,next_trial,605,30,3,0,362,3,1586
494,6.2.2,mac,9/17/20,12:22:32,03 Pilot,22,1,main,2,next_trial,608,20,2,0,279,3,1237
495,6.2.2,mac,9/17/20,12:22:32,03 Pilot,22,1,main,2,next_trial,611,35,3,5,204,3,2137
496,6.2.2,mac,9/17/20,12:22:32,03 Pilot,22,1,main,2,next_trial,614,30,3,0,352,3,1214
497,6.2.2,mac,9/17/20,12:22:32,03 Pilot,22,1,main,2,next_trial,617,55,5,5,210,4,1702
498,6.2.2,mac,9/17/20,12:22:32,03 Pilot,22,1,main,2,next_trial,620,15,1,5,243,4,1170
499,6.2.2,mac,9/17/20,12:22:32,03 Pilot,22,1,main,2,next_trial,623,35,3,5,239,4,1096
500,6.2.2,mac,9/17/20,12:22:32,03 Pilot,22,1,main,2,next_trial,626,40,4,0,349,5,1772
501,6.2.2,mac,9/17/20,12:22:32,03 Pilot,22,1,main,2,next_trial,629,15,1,5,240,3,2396
502,6.2.2,mac,9/17/20,12:22:32,03 Pilot,22,1,main,2,next_trial,632,45,4,5,201,3,1198
503,6.2.2,mac,9/17/20,12:22:32,03 Pilot,22,1,main,2,next_trial,635,10,1,0,282,3,1343
504,6.2.2,mac,9/17/20,12:22:32,03 Pilot,22,1,main,2,next_trial,638,65,6,5,241,4,1669
505,6.2.2,mac,9/17/20,12:22:32,03 Pilot,22,1,main,2,next_trial,641,25,2,5,248,3,1551
506,6.2.2,mac,9/17/20,12:22:32,03 Pilot,22,1,main,2,next_trial,644,15,1,5,194,3,1095
507,6.2.2,mac,9/17/20,12:22:32,03 Pilot,22,1,main,2,next_trial,647,35,3,5,186,3,3603
508,6.2.2,mac,9/17/20,12:22:32,03 Pilot,22,1,main,2,next_trial,650,40,4,0,358,4,1659
509,6.2.2,mac,9/17/20,12:22:32,03 Pilot,22,1,main,2,next_trial,653,25,2,5,225,3,1798
510,6.2.2,mac,9/17/20,12:22:32,03 Pilot,22,1,main,2,next_trial,656,65,6,5,236,3,1734
511,6.2.2,mac,9/17/20,12:22:32,03 Pilot,22,1,main,2,next_trial,659,30,3,0,367,4,2879
512,6.2.2,mac,9/17/20,12:22:32,03 Pilot,22,1,main,2,next_trial,662,20,2,0,277,4,3561
513,6.2.2,mac,9/17/20,12:22:32,03 Pilot,22,1,main,2,next_trial,670,25,2,5,243,2,2759
514,6.2.2,mac,9/17/20,12:22:32,03 Pilot,22,1,main,2,next_trial,673,40,4,0,353,3,1503
515,6.2.2,mac,9/17/20,12:22:32,03 Pilot,22,1,main,2,next_trial,676,25,2,5,214,3,1272
516,6.2.2,mac,9/17/20,12:22:32,03 Pilot,22,1,main,2,next_trial,679,30,3,0,368,5,1557
517,6.2.2,mac,9/17/20,12:22:32,03 Pilot,22,1,main,2,next_trial,682,45,4,5,233,4,1721
518,6.2.2,mac,9/17/20,12:22:32,03 Pilot,22,1,main,2,next_trial,685,15,1,5,244,4,4401
519,6.2.2,mac,9/17/20,12:22:32,03 Pilot,22,1,main,2,next_trial,688,30,3,0,371,4,2127
520,6.2.2,mac,9/17/20,12:22:32,03 Pilot,22,1,main,2,next_trial,691,15,1,5,198,4,6785
521,6.2.2,mac,9/17/20,12:22:32,03 Pilot,22,1,main,2,next_trial,694,65,6,5,210,3,2468
522,6.2.2,mac,9/17/20,12:22:32,03 Pilot,22,1,main,2,next_trial,697,65,6,5,226,3,1999
523,6.2.2,mac,9/17/20,12:22:32,03 Pilot,22,1,main,2,next_trial,700,10,1,0,286,3,3517
524,6.2.2,mac,9/17/20,12:22:32,03 Pilot,22,1,main,2,next_trial,703,30,3,0,359,3,1715
525,6.2.2,mac,9/17/20,12:22:32,03 Pilot,22,1,main,2,next_trial,706,45,4,5,183,3,1958
526,6.2.2,mac,9/17/20,12:22:32,03 Pilot,22,1,main,2,next_trial,709,30,3,0,357,3,1429
527,6.2.2,mac,9/17/20,12:22:32,03 Pilot,22,1,main,2,next_trial,712,35,3,5,247,3,7076
528,6.2.2,mac,9/17/20,12:22:32,03 Pilot,22,1,main,2,next_trial,715,50,5,0,46,4,3182
529,6.2.2,mac,9/17/20,12:22:32,03 Pilot,22,1,main,2,next_trial,718,25,2,5,215,3,1449
530,6.2.2,mac,9/17/20,12:22:32,03 Pilot,22,1,main,2,next_trial,721,25,2,5,252,3,1214
531,6.2.2,mac,9/17/20,12:22:32,03 Pilot,22,1,main,2,next_trial,724,30,3,0,364,4,2023
532,6.2.2,mac,9/17/20,12:22:32,03 Pilot,22,1,main,2,next_trial,727,20,2,0,282,3,1502
533,6.2.2,mac,9/17/20,12:22:32,03 Pilot,22,1,main,2,next_trial,730,60,6,0,44,3,1025
534,6.2.2,mac,9/17/20,12:22:32,03 Pilot,22,1,main,2,next_trial,733,20,2,0,290,3,1237
535,6.2.2,mac,9/17/20,12:22:32,03 Pilot,22,1,main,2,next_trial,736,55,5,5,184,4,2628
536,6.2.2,mac,9/17/20,12:22:32,03 Pilot,22,1,main,2,next_trial,739,20,2,0,294,4,2159
537,6.2.2,mac,9/17/20,12:22:32,03 Pilot,22,1,main,2,next_trial,742,55,5,5,231,4,1616
538,6.2.2,mac,9/17/20,12:22:32,03 Pilot,22,1,main,2,next_trial,745,35,3,5,222,4,1467
539,6.2.2,mac,9/17/20,12:22:32,03 Pilot,22,1,main,2,next_trial,748,40,4,0,362,3,1823
540,6.2.2,mac,9/17/20,12:22:32,03 Pilot,22,1,main,2,next_trial,751,50,5,0,37,4,4282
541,6.2.2,mac,9/17/20,12:22:32,03 Pilot,22,1,main,2,next_trial,754,65,6,5,222,3,1691
542,6.2.2,mac,9/17/20,12:22:32,03 Pilot,22,1,main,2,next_trial,757,40,4,0,360,3,2389
543,6.2.2,mac,9/17/20,12:22:32,03 Pilot,22,1,main,2,next_trial,760,65,6,5,235,3,3988
544,6.2.2,mac,9/17/20,12:22:32,03 Pilot,22,1,main,2,next_trial,763,60,6,0,38,3,1839
545,6.2.2,mac,9/17/20,12:22:32,03 Pilot,22,1,main,2,next_trial,766,10,1,0,288,4,1271
546,6.2.2,mac,9/17/20,12:22:32,03 Pilot,22,1,main,2,next_trial,769,45,4,5,223,3,1943
547,6.2.2,mac,9/17/20,12:22:32,03 Pilot,22,1,main,2,next_trial,772,10,1,0,291,3,1270
548,6.2.2,mac,9/17/20,12:22:32,03 Pilot,22,1,main,2,next_trial,775,20,2,0,295,4,2003
549,6.2.2,mac,9/17/20,12:22:32,03 Pilot,22,1,main,2,next_trial,778,50,5,0,32,4,1743
550,6.2.2,mac,9/17/20,12:22:32,03 Pilot,22,1,main,2,next_trial,781,45,4,5,228,3,1555
551,6.2.2,mac,9/17/20,12:22:32,03 Pilot,22,1,main,2,next_trial,784,60,6,0,34,3,995
552,6.2.2,mac,9/17/20,12:22:32,03 Pilot,22,1,main,2,next_trial,787,60,6,0,30,3,1541
553,6.2.2,mac,9/17/20,12:22:32,03 Pilot,22,1,main,2,next_trial,790,30,3,0,363,5,1894
554,6.2.2,mac,9/17/20,12:22:32,03 Pilot,22,1,main,2,next_trial,793,50,5,0,35,2,4074
555,6.2.2,mac,9/17/20,12:22:32,03 Pilot,22,1,main,2,next_trial,796,55,5,5,249,3,2564
556,6.2.2,mac,9/17/20,12:22:32,03 Pilot,22,1,main,2,next_trial,799,35,3,5,245,4,11483
557,6.2.2,mac,9/17/20,12:22:32,03 Pilot,22,1,main,2,next_trial,802,20,2,0,281,4,5088
558,6.2.2,mac,9/17/20,12:22:32,03 Pilot,22,1,main,2,next_trial,805,55,5,5,235,5,2143
559,6.2.2,mac,9/17/20,12:22:32,03 Pilot,22,1,main,2,next_trial,808,60,6,0,27,4,2476
560,6.2.2,mac,9/17/20,12:22:32,03 Pilot,22,1,main,2,next_trial,811,65,6,5,189,4,1149
561,6.2.2,mac,9/17/20,12:22:32,03 Pilot,22,1,main,2,next_trial,814,45,4,5,232,3,2457
562,6.2.2,mac,9/17/20,12:22:32,03 Pilot,22,1,main,2,next_trial,817,15,1,5,190,5,1450
563,6.2.2,mac,9/17/20,12:22:32,03 Pilot,22,1,main,2,next_trial,820,65,6,5,229,3,1299
564,6.2.2,mac,9/17/20,12:22:32,03 Pilot,22,1,main,2,next_trial,823,25,2,5,249,3,2466
565,6.2.2,mac,9/17/20,12:22:32,03 Pilot,22,1,main,2,next_trial,826,15,1,5,212,3,2550
566,6.2.2,mac,9/17/20,12:22:32,03 Pilot,22,1,main,2,next_trial,829,10,1,0,278,1,2791
567,6.2.2,mac,9/17/20,12:22:32,03 Pilot,22,1,main,2,next_trial,832,35,3,5,217,4,1935
568,6.2.2,mac,9/17/20,12:22:32,03 Pilot,22,1,main,2,next_trial,835,10,1,0,281,4,2369
569,6.2.2,mac,9/17/20,12:22:32,03 Pilot,22,1,main,2,next_trial,838,15,1,5,192,3,1992
570,6.2.2,mac,9/17/20,12:22:32,03 Pilot,22,1,main,2,next_trial,841,55,5,5,206,4,1657
571,6.2.2,mac,9/17/20,12:22:32,03 Pilot,22,1,main,2,next_trial,844,20,2,0,297,2,1613
572,6.2.2,mac,9/17/20,12:22:32,03 Pilot,22,1,main,2,next_trial,847,35,3,5,224,4,2341
573,6.2.2,mac,9/17/20,12:22:32,03 Pilot,22,1,main,2,next_trial,850,55,5,5,197,4,1617
574,6.2.2,mac,9/17/20,12:22:32,03 Pilot,22,1,main,2,next_trial,853,25,2,5,239,3,1148
575,6.2.2,mac,9/17/20,12:22:32,03 Pilot,22,1,main,2,next_trial,856,45,4,5,204,3,1556
576,6.2.2,mac,9/17/20,12:22:32,03 Pilot,22,1,main,2,next_trial,859,50,5,0,26,3,2851
577,6.2.2,mac,9/17/20,12:22:32,03 Pilot,22,1,main,2,next_trial,862,15,1,5,229,3,3053
578,6.2.2,mac,9/17/20,12:22:32,03 Pilot,22,1,main,2,next_trial,865,40,4,0,354,3,1752
579,6.2.2,mac,9/17/20,12:22:32,03 Pilot,22,1,main,2,next_trial,868,50,5,0,28,3,1257
580,6.2.2,mac,9/17/20,12:22:32,03 Pilot,22,1,main,2,next_trial,871,40,4,0,369,3,2081
581,6.2.2,mac,9/17/20,12:22:32,03 Pilot,22,1,main,2,next_trial,874,35,3,5,203,4,2609
582,6.2.2,mac,9/17/20,12:22:32,03 Pilot,22,1,main,2,next_trial,877,60,6,0,42,3,3484
583,6.2.2,mac,9/17/20,12:22:32,03 Pilot,22,1,main,2,next_trial,880,40,4,0,366,3,1454
584,6.2.2,mac,9/17/20,12:22:32,03 Pilot,22,1,main,2,next_trial,883,10,1,0,280,4,6220
585,6.2.2,win,9/17/20,13:52:01,05 pilot,24,1,practice,1,next_trial,7,85,8,5,41,6,2735
586,6.2.2,win,9/17/20,13:52:01,05 pilot,24,1,practice,1,next_trial,10,80,8,0,1,6,2101
587,6.2.2,win,9/17/20,13:52:01,05 pilot,24,1,practice,1,next_trial,13,85,8,5,42,5,2799
588,6.2.2,win,9/17/20,13:52:01,05 pilot,24,1,practice,1,next_trial,16,80,8,0,2,6,2466
589,6.2.2,win,9/17/20,13:52:01,05 pilot,24,1,main,2,next_trial,7,10,1,0,313,6,2644
590,6.2.2,win,9/17/20,13:52:01,05 pilot,24,1,main,2,next_trial,10,50,5,0,51,2,3520
591,6.2.2,win,9/17/20,13:52:01,05 pilot,24,1,main,2,next_trial,13,25,2,5,223,2,1954
592,6.2.2,win,9/17/20,13:52:01,05 pilot,24,1,main,2,next_trial,16,50,5,0,58,6,1900
593,6.2.2,win,9/17/20,13:52:01,05 pilot,24,1,main,2,next_trial,19,20,2,0,307,5,1847
594,6.2.2,win,9/17/20,13:52:01,05 pilot,24,1,main,2,next_trial,22,45,4,5,250,5,3594
595,6.2.2,win,9/17/20,13:52:01,05 pilot,24,1,main,2,next_trial,25,50,5,0,64,6,1564
596,6.2.2,win,9/17/20,13:52:01,05 pilot,24,1,main,2,next_trial,28,15,1,5,205,6,1598
597,6.2.2,win,9/17/20,13:52:01,05 pilot,24,1,main,2,next_trial,31,45,4,5,208,3,2196
598,6.2.2,win,9/17/20,13:52:01,05 pilot,24,1,main,2,next_trial,34,20,2,0,306,1,1598
599,6.2.2,win,9/17/20,13:52:01,05 pilot,24,1,main,2,next_trial,37,35,3,5,262,5,1838
600,6.2.2,win,9/17/20,13:52:01,05 pilot,24,1,main,2,next_trial,40,10,1,0,312,4,2967
601,6.2.2,win,9/17/20,13:52:01,05 pilot,24,1,main,2,next_trial,43,50,5,0,62,3,2036
602,6.2.2,win,9/17/20,13:52:01,05 pilot,24,1,main,2,next_trial,46,20,2,0,320,3,1974
603,6.2.2,win,9/17/20,13:52:01,05 pilot,24,1,main,2,next_trial,49,30,3,0,375,5,1867
604,6.2.2,win,9/17/20,13:52:01,05 pilot,24,1,main,2,next_trial,52,65,6,5,235,6,1657
605,6.2.2,win,9/17/20,13:52:01,05 pilot,24,1,main,2,next_trial,55,35,3,5,259,6,1821
606,6.2.2,win,9/17/20,13:52:01,05 pilot,24,1,main,2,next_trial,58,25,2,5,274,5,1829
607,6.2.2,win,9/17/20,13:52:01,05 pilot,24,1,main,2,next_trial,61,45,4,5,219,4,2691
608,6.2.2,win,9/17/20,13:52:01,05 pilot,24,1,main,2,next_trial,64,35,3,5,256,6,1601
609,6.2.2,win,9/17/20,13:52:01,05 pilot,24,1,main,2,next_trial,67,10,1,0,317,5,2638
610,6.2.2,win,9/17/20,13:52:01,05 pilot,24,1,main,2,next_trial,70,25,2,5,218,5,3313
611,6.2.2,win,9/17/20,13:52:01,05 pilot,24,1,main,2,next_trial,73,30,3,0,378,4,2111
612,6.2.2,win,9/17/20,13:52:01,05 pilot,24,1,main,2,next_trial,76,10,1,0,323,3,1483
613,6.2.2,win,9/17/20,13:52:01,05 pilot,24,1,main,2,next_trial,79,15,1,5,236,5,2707
614,6.2.2,win,9/17/20,13:52:01,05 pilot,24,1,main,2,next_trial,82,25,2,5,255,4,1469
615,6.2.2,win,9/17/20,13:52:01,05 pilot,24,1,main,2,next_trial,85,40,4,0,379,4,1486
616,6.2.2,win,9/17/20,13:52:01,05 pilot,24,1,main,2,next_trial,88,45,4,5,254,2,2187
617,6.2.2,win,9/17/20,13:52:01,05 pilot,24,1,main,2,next_trial,91,40,4,0,396,3,1508
618,6.2.2,win,9/17/20,13:52:01,05 pilot,24,1,main,2,next_trial,94,60,6,0,49,4,3373
619,6.2.2,win,9/17/20,13:52:01,05 pilot,24,1,main,2,next_trial,97,40,4,0,385,3,2254
620,6.2.2,win,9/17/20,13:52:01,05 pilot,24,1,main,2,next_trial,100,55,5,5,254,5,3797
621,6.2.2,win,9/17/20,13:52:01,05 pilot,24,1,main,2,next_trial,103,35,3,5,210,5,2883
622,6.2.2,win,9/17/20,13:52:01,05 pilot,24,1,main,2,next_trial,106,65,6,5,245,5,3789
623,6.2.2,win,9/17/20,13:52:01,05 pilot,24,1,main,2,next_trial,109,20,2,0,312,5,1987
624,6.2.2,win,9/17/20,13:52:01,05 pilot,24,1,main,2,next_trial,112,55,5,5,244,5,2271
625,6.2.2,win,9/17/20,13:52:01,05 pilot,24,1,main,2,next_trial,115,45,4,5,222,3,1572
626,6.2.2,win,9/17/20,13:52:01,05 pilot,24,1,main,2,next_trial,118,15,1,5,274,3,1940
627,6.2.2,win,9/17/20,13:52:01,05 pilot,24,1,main,2,next_trial,121,60,6,0,67,4,1663
628,6.2.2,win,9/17/20,13:52:01,05 pilot,24,1,main,2,next_trial,124,10,1,0,307,3,1943
629,6.2.2,win,9/17/20,13:52:01,05 pilot,24,1,main,2,next_trial,127,55,5,5,229,5,3498
630,6.2.2,win,9/17/20,13:52:01,05 pilot,24,1,main,2,next_trial,130,65,6,5,252,3,3318
631,6.2.2,win,9/17/20,13:52:01,05 pilot,24,1,main,2,next_trial,133,30,3,0,373,5,1991
632,6.2.2,win,9/17/20,13:52:01,05 pilot,24,1,main,2,next_trial,136,20,2,0,301,5,2247
633,6.2.2,win,9/17/20,13:52:01,05 pilot,24,1,main,2,next_trial,139,15,1,5,231,6,4281
634,6.2.2,win,9/17/20,13:52:01,05 pilot,24,1,main,2,next_trial,142,20,2,0,314,3,2718
635,6.2.2,win,9/17/20,13:52:01,05 pilot,24,1,main,2,next_trial,145,60,6,0,62,5,3079
636,6.2.2,win,9/17/20,13:52:01,05 pilot,24,1,main,2,next_trial,148,30,3,0,389,5,2107
637,6.2.2,win,9/17/20,13:52:01,05 pilot,24,1,main,2,next_trial,151,35,3,5,249,4,7624
638,6.2.2,win,9/17/20,13:52:01,05 pilot,24,1,main,2,next_trial,154,25,2,5,253,2,2193
639,6.2.2,win,9/17/20,13:52:01,05 pilot,24,1,main,2,next_trial,157,40,4,0,395,3,4480
640,6.2.2,win,9/17/20,13:52:01,05 pilot,24,1,main,2,next_trial,160,55,5,5,237,5,1976
641,6.2.2,win,9/17/20,13:52:01,05 pilot,24,1,main,2,next_trial,163,40,4,0,390,5,1290
642,6.2.2,win,9/17/20,13:52:01,05 pilot,24,1,main,2,next_trial,166,65,6,5,210,5,4940
643,6.2.2,win,9/17/20,13:52:01,05 pilot,24,1,main,2,next_trial,169,60,6,0,53,6,6527
644,6.2.2,win,9/17/20,13:52:01,05 pilot,24,1,main,2,next_trial,172,50,5,0,55,1,1885
645,6.2.2,win,9/17/20,13:52:01,05 pilot,24,1,main,2,next_trial,175,55,5,5,240,4,2025
646,6.2.2,win,9/17/20,13:52:01,05 pilot,24,1,main,2,next_trial,178,25,2,5,215,3,3020
647,6.2.2,win,9/17/20,13:52:01,05 pilot,24,1,main,2,next_trial,181,30,3,0,374,2,3895
648,6.2.2,win,9/17/20,13:52:01,05 pilot,24,1,main,2,next_trial,184,50,5,0,59,2,2513
649,6.2.2,win,9/17/20,13:52:01,05 pilot,24,1,main,2,next_trial,187,60,6,0,51,3,4479
650,6.2.2,win,9/17/20,13:52:01,05 pilot,24,1,main,2,next_trial,190,65,6,5,261,5,2712
651,6.2.2,win,9/17/20,13:52:01,05 pilot,24,1,main,2,next_trial,193,10,1,0,316,5,2069
652,6.2.2,win,9/17/20,13:52:01,05 pilot,24,1,main,2,next_trial,196,15,1,5,260,5,3128
653,6.2.2,win,9/17/20,13:52:01,05 pilot,24,1,main,2,next_trial,199,55,5,5,264,3,1982
654,6.2.2,win,9/17/20,13:52:01,05 pilot,24,1,main,2,next_trial,202,45,4,5,276,5,7365
655,6.2.2,win,9/17/20,13:52:01,05 pilot,24,1,main,2,next_trial,205,15,1,5,232,6,2020
656,6.2.2,win,9/17/20,13:52:01,05 pilot,24,1,main,2,next_trial,208,40,4,0,382,4,4598
657,6.2.2,win,9/17/20,13:52:01,05 pilot,24,1,main,2,next_trial,211,30,3,0,394,5,3799
658,6.2.2,win,9/17/20,13:52:01,05 pilot,24,1,main,2,next_trial,214,65,6,5,226,4,3733
659,6.2.2,win,9/17/20,13:52:01,05 pilot,24,1,main,2,next_trial,217,35,3,5,222,3,2509
660,6.2.2,win,9/17/20,13:52:01,05 pilot,24,1,main,2,next_trial,220,60,6,0,54,4,1979
661,6.2.2,win,9/17/20,13:52:01,05 pilot,24,1,main,2,next_trial,228,60,6,0,65,3,2801
662,6.2.2,win,9/17/20,13:52:01,05 pilot,24,1,main,2,next_trial,231,25,2,5,206,5,4725
663,6.2.2,win,9/17/20,13:52:01,05 pilot,24,1,main,2,next_trial,234,40,4,0,393,5,7107
664,6.2.2,win,9/17/20,13:52:01,05 pilot,24,1,main,2,next_trial,237,65,6,5,238,6,2949
665,6.2.2,win,9/17/20,13:52:01,05 pilot,24,1,main,2,next_trial,240,25,2,5,269,3,1940
666,6.2.2,win,9/17/20,13:52:01,05 pilot,24,1,main,2,next_trial,243,25,2,5,257,2,2278
667,6.2.2,win,9/17/20,13:52:01,05 pilot,24,1,main,2,next_trial,246,35,3,5,261,3,2239
668,6.2.2,win,9/17/20,13:52:01,05 pilot,24,1,main,2,next_trial,249,10,1,0,306,1,1710
669,6.2.2,win,9/17/20,13:52:01,05 pilot,24,1,main,2,next_trial,252,35,3,5,268,4,3732
670,6.2.2,win,9/17/20,13:52:01,05 pilot,24,1,main,2,next_trial,255,20,2,0,311,5,1781
671,6.2.2,win,9/17/20,13:52:01,05 pilot,24,1,main,2,next_trial,258,25,2,5,229,6,1974
672,6.2.2,win,9/17/20,13:52:01,05 pilot,24,1,main,2,next_trial,261,25,2,5,227,3,2003
673,6.2.2,win,9/17/20,13:52:01,05 pilot,24,1,main,2,next_trial,264,20,2,0,318,4,2357
674,6.2.2,win,9/17/20,13:52:01,05 pilot,24,1,main,2,next_trial,267,45,4,5,259,5,1851
675,6.2.2,win,9/17/20,13:52:01,05 pilot,24,1,main,2,next_trial,270,55,5,5,250,4,2067
676,6.2.2,win,9/17/20,13:52:01,05 pilot,24,1,main,2,next_trial,273,30,3,0,377,2,2380
677,6.2.2,win,9/17/20,13:52:01,05 pilot,24,1,main,2,next_trial,276,10,1,0,309,1,2349
678,6.2.2,win,9/17/20,13:52:01,05 pilot,24,1,main,2,next_trial,279,15,1,5,213,5,1543
679,6.2.2,win,9/17/20,13:52:01,05 pilot,24,1,main,2,next_trial,282,45,4,5,231,6,2142
680,6.2.2,win,9/17/20,13:52:01,05 pilot,24,1,main,2,next_trial,285,10,1,0,301,1,1870
681,6.2.2,win,9/17/20,13:52:01,05 pilot,24,1,main,2,next_trial,288,30,3,0,380,3,2088
682,6.2.2,win,9/17/20,13:52:01,05 pilot,24,1,main,2,next_trial,291,65,6,5,241,5,1977
683,6.2.2,win,9/17/20,13:52:01,05 pilot,24,1,main,2,next_trial,294,35,3,5,273,3,2288
684,6.2.2,win,9/17/20,13:52:01,05 pilot,24,1,main,2,next_trial,297,60,6,0,52,5,2151
685,6.2.2,win,9/17/20,13:52:01,05 pilot,24,1,main,2,next_trial,300,35,3,5,228,2,2143
686,6.2.2,win,9/17/20,13:52:01,05 pilot,24,1,main,2,next_trial,303,60,6,0,69,4,3963
687,6.2.2,win,9/17/20,13:52:01,05 pilot,24,1,main,2,next_trial,306,65,6,5,214,5,2560
688,6.2.2,win,9/17/20,13:52:01,05 pilot,24,1,main,2,next_trial,309,65,6,5,211,6,11593
689,6.2.2,win,9/17/20,13:52:01,05 pilot,24,1,main,2,next_trial,312,20,2,0,323,4,2206
690,6.2.2,win,9/17/20,13:52:01,05 pilot,24,1,main,2,next_trial,315,45,4,5,248,5,2034
691,6.2.2,win,9/17/20,13:52:01,05 pilot,24,1,main,2,next_trial,318,50,5,0,57,6,2697
692,6.2.2,win,9/17/20,13:52:01,05 pilot,24,1,main,2,next_trial,321,45,4,5,242,3,1518
693,6.2.2,win,9/17/20,13:52:01,05 pilot,24,1,main,2,next_trial,324,10,1,0,314,2,1456
694,6.2.2,win,9/17/20,13:52:01,05 pilot,24,1,main,2,next_trial,327,45,4,5,237,5,1397
695,6.2.2,win,9/17/20,13:52:01,05 pilot,24,1,main,2,next_trial,330,15,1,5,248,1,1474
696,6.2.2,win,9/17/20,13:52:01,05 pilot,24,1,main,2,next_trial,333,50,5,0,52,6,1576
697,6.2.2,win,9/17/20,13:52:01,05 pilot,24,1,main,2,next_trial,336,50,5,0,65,2,1629
698,6.2.2,win,9/17/20,13:52:01,05 pilot,24,1,main,2,next_trial,339,30,3,0,376,6,2030
699,6.2.2,win,9/17/20,13:52:01,05 pilot,24,1,main,2,next_trial,342,60,6,0,68,4,2554
700,6.2.2,win,9/17/20,13:52:01,05 pilot,24,1,main,2,next_trial,345,20,2,0,309,5,2020
701,6.2.2,win,9/17/20,13:52:01,05 pilot,24,1,main,2,next_trial,348,15,1,5,253,5,3509
702,6.2.2,win,9/17/20,13:52:01,05 pilot,24,1,main,2,next_trial,351,30,3,0,396,4,2452
703,6.2.2,win,9/17/20,13:52:01,05 pilot,24,1,main,2,next_trial,354,30,3,0,385,1,2088
704,6.2.2,win,9/17/20,13:52:01,05 pilot,24,1,main,2,next_trial,357,65,6,5,270,5,1677
705,6.2.2,win,9/17/20,13:52:01,05 pilot,24,1,main,2,next_trial,360,15,1,5,233,4,2356
706,6.2.2,win,9/17/20,13:52:01,05 pilot,24,1,main,2,next_trial,363,20,2,0,302,5,1722
707,6.2.2,win,9/17/20,13:52:01,05 pilot,24,1,main,2,next_trial,366,55,5,5,227,3,2032
708,6.2.2,win,9/17/20,13:52:01,05 pilot,24,1,main,2,next_trial,369,55,5,5,208,3,2840
709,6.2.2,win,9/17/20,13:52:01,05 pilot,24,1,main,2,next_trial,372,40,4,0,375,1,1925
710,6.2.2,win,9/17/20,13:52:01,05 pilot,24,1,main,2,next_trial,375,40,4,0,381,5,1801
711,6.2.2,win,9/17/20,13:52:01,05 pilot,24,1,main,2,next_trial,378,40,4,0,376,4,1473
712,6.2.2,win,9/17/20,13:52:01,05 pilot,24,1,main,2,next_trial,381,10,1,0,319,2,1804
713,6.2.2,win,9/17/20,13:52:01,05 pilot,24,1,main,2,next_trial,384,25,2,5,266,3,2295
714,6.2.2,win,9/17/20,13:52:01,05 pilot,24,1,main,2,next_trial,387,30,3,0,387,3,1631
715,6.2.2,win,9/17/20,13:52:01,05 pilot,24,1,main,2,next_trial,390,60,6,0,72,5,3707
716,6.2.2,win,9/17/20,13:52:01,05 pilot,24,1,main,2,next_trial,393,15,1,5,214,4,1855
717,6.2.2,win,9/17/20,13:52:01,05 pilot,24,1,main,2,next_trial,396,55,5,5,247,5,2848
718,6.2.2,win,9/17/20,13:52:01,05 pilot,24,1,main,2,next_trial,399,65,6,5,260,5,1891
719,6.2.2,win,9/17/20,13:52:01,05 pilot,24,1,main,2,next_trial,402,40,4,0,389,5,2643
720,6.2.2,win,9/17/20,13:52:01,05 pilot,24,1,main,2,next_trial,405,35,3,5,223,5,1903
721,6.2.2,win,9/17/20,13:52:01,05 pilot,24,1,main,2,next_trial,408,40,4,0,384,3,1588
722,6.2.2,win,9/17/20,13:52:01,05 pilot,24,1,main,2,next_trial,411,45,4,5,236,3,2549
723,6.2.2,win,9/17/20,13:52:01,05 pilot,24,1,main,2,next_trial,414,50,5,0,71,2,1661
724,6.2.2,win,9/17/20,13:52:01,05 pilot,24,1,main,2,next_trial,417,10,1,0,318,3,2465
725,6.2.2,win,9/17/20,13:52:01,05 pilot,24,1,main,2,next_trial,420,15,1,5,246,1,2242
726,6.2.2,win,9/17/20,13:52:01,05 pilot,24,1,main,2,next_trial,423,20,2,0,321,4,3293
727,6.2.2,win,9/17/20,13:52:01,05 pilot,24,1,main,2,next_trial,426,60,6,0,70,5,3692
728,6.2.2,win,9/17/20,13:52:01,05 pilot,24,1,main,2,next_trial,429,55,5,5,276,3,7846
729,6.2.2,win,9/17/20,13:52:01,05 pilot,24,1,main,2,next_trial,432,50,5,0,50,5,1696
730,6.2.2,win,9/17/20,13:52:01,05 pilot,24,1,main,2,next_trial,435,35,3,5,212,3,1975
731,6.2.2,win,9/17/20,13:52:01,05 pilot,24,1,main,2,next_trial,438,55,5,5,220,5,1903
732,6.2.2,win,9/17/20,13:52:01,05 pilot,24,1,main,2,next_trial,441,50,5,0,56,3,2960
733,6.2.2,win,9/17/20,13:52:01,05 pilot,24,1,main,2,next_trial,449,25,2,5,230,5,2892
734,6.2.2,win,9/17/20,13:52:01,05 pilot,24,1,main,2,next_trial,452,65,6,5,209,3,2371
735,6.2.2,win,9/17/20,13:52:01,05 pilot,24,1,main,2,next_trial,455,20,2,0,305,3,1787
736,6.2.2,win,9/17/20,13:52:01,05 pilot,24,1,main,2,next_trial,458,35,3,5,217,6,1645
737,6.2.2,win,9/17/20,13:52:01,05 pilot,24,1,main,2,next_trial,461,55,5,5,255,5,1477
738,6.2.2,win,9/17/20,13:52:01,05 pilot,24,1,main,2,next_trial,464,15,1,5,234,4,1478
739,6.2.2,win,9/17/20,13:52:01,05 pilot,24,1,main,2,next_trial,467,30,3,0,388,5,3168
740,6.2.2,win,9/17/20,13:52:01,05 pilot,24,1,main,2,next_trial,470,40,4,0,373,5,2138
741,6.2.2,win,9/17/20,13:52:01,05 pilot,24,1,main,2,next_trial,473,45,4,5,216,4,1714
742,6.2.2,win,9/17/20,13:52:01,05 pilot,24,1,main,2,next_trial,476,55,5,5,266,6,1860
743,6.2.2,win,9/17/20,13:52:01,05 pilot,24,1,main,2,next_trial,479,20,2,0,316,3,3121
744,6.2.2,win,9/17/20,13:52:01,05 pilot,24,1,main,2,next_trial,482,60,6,0,50,4,1972
745,6.2.2,win,9/17/20,13:52:01,05 pilot,24,1,main,2,next_trial,485,10,1,0,320,4,3684
746,6.2.2,win,9/17/20,13:52:01,05 pilot,24,1,main,2,next_trial,488,45,4,5,264,5,2894
747,6.2.2,win,9/17/20,13:52:01,05 pilot,24,1,main,2,next_trial,491,30,3,0,392,5,2456
748,6.2.2,win,9/17/20,13:52:01,05 pilot,24,1,main,2,next_trial,494,65,6,5,262,2,3508
749,6.2.2,win,9/17/20,13:52:01,05 pilot,24,1,main,2,next_trial,497,20,2,0,319,6,1857
750,6.2.2,win,9/17/20,13:52:01,05 pilot,24,1,main,2,next_trial,500,35,3,5,215,5,2567
751,6.2.2,win,9/17/20,13:52:01,05 pilot,24,1,main,2,next_trial,503,50,5,0,66,6,2600
752,6.2.2,win,9/17/20,13:52:01,05 pilot,24,1,main,2,next_trial,506,30,3,0,391,3,1671
753,6.2.2,win,9/17/20,13:52:01,05 pilot,24,1,main,2,next_trial,509,60,6,0,59,4,2887
754,6.2.2,win,9/17/20,13:52:01,05 pilot,24,1,main,2,next_trial,512,25,2,5,220,3,2294
755,6.2.2,win,9/17/20,13:52:01,05 pilot,24,1,main,2,next_trial,515,30,3,0,393,5,2075
756,6.2.2,win,9/17/20,13:52:01,05 pilot,24,1,main,2,next_trial,518,25,2,5,275,3,5034
757,6.2.2,win,9/17/20,13:52:01,05 pilot,24,1,main,2,next_trial,521,35,3,5,224,5,1722
758,6.2.2,win,9/17/20,13:52:01,05 pilot,24,1,main,2,next_trial,524,20,2,0,324,3,2376
759,6.2.2,win,9/17/20,13:52:01,05 pilot,24,1,main,2,next_trial,527,20,2,0,322,5,2905
760,6.2.2,win,9/17/20,13:52:01,05 pilot,24,1,main,2,next_trial,530,10,1,0,310,5,2669
761,6.2.2,win,9/17/20,13:52:01,05 pilot,24,1,main,2,next_trial,533,45,4,5,267,4,1698
762,6.2.2,win,9/17/20,13:52:01,05 pilot,24,1,main,2,next_trial,536,20,2,0,313,5,1798
763,6.2.2,win,9/17/20,13:52:01,05 pilot,24,1,main,2,next_trial,539,15,1,5,209,2,2290
764,6.2.2,win,9/17/20,13:52:01,05 pilot,24,1,main,2,next_trial,542,10,1,0,305,5,2394
765,6.2.2,win,9/17/20,13:52:01,05 pilot,24,1,main,2,next_trial,545,30,3,0,381,4,1642
766,6.2.2,win,9/17/20,13:52:01,05 pilot,24,1,main,2,next_trial,548,25,2,5,273,3,2044
767,6.2.2,win,9/17/20,13:52:01,05 pilot,24,1,main,2,next_trial,551,25,2,5,249,5,5183
768,6.2.2,win,9/17/20,13:52:01,05 pilot,24,1,main,2,next_trial,554,35,3,5,243,6,2028
769,6.2.2,win,9/17/20,13:52:01,05 pilot,24,1,main,2,next_trial,557,60,6,0,56,4,1970
770,6.2.2,win,9/17/20,13:52:01,05 pilot,24,1,main,2,next_trial,560,65,6,5,225,5,5069
771,6.2.2,win,9/17/20,13:52:01,05 pilot,24,1,main,2,next_trial,563,55,5,5,252,4,1999
772,6.2.2,win,9/17/20,13:52:01,05 pilot,24,1,main,2,next_trial,566,10,1,0,321,5,1734
773,6.2.2,win,9/17/20,13:52:01,05 pilot,24,1,main,2,next_trial,569,40,4,0,380,5,1639
774,6.2.2,win,9/17/20,13:52:01,05 pilot,24,1,main,2,next_trial,572,45,4,5,224,4,1713
775,6.2.2,win,9/17/20,13:52:01,05 pilot,24,1,main,2,next_trial,575,50,5,0,67,4,3113
776,6.2.2,win,9/17/20,13:52:01,05 pilot,24,1,main,2,next_trial,578,50,5,0,69,5,1678
777,6.2.2,win,9/17/20,13:52:01,05 pilot,24,1,main,2,next_trial,581,15,1,5,270,5,1930
778,6.2.2,win,9/17/20,13:52:01,05 pilot,24,1,main,2,next_trial,584,40,4,0,374,5,1707
779,6.2.2,win,9/17/20,13:52:01,05 pilot,24,1,main,2,next_trial,587,50,5,0,53,6,2221
780,6.2.2,win,9/17/20,13:52:01,05 pilot,24,1,main,2,next_trial,590,55,5,5,211,6,1784
781,6.2.2,win,9/17/20,13:52:01,05 pilot,24,1,main,2,next_trial,593,35,3,5,221,6,1583
782,6.2.2,win,9/17/20,13:52:01,05 pilot,24,1,main,2,next_trial,596,65,6,5,232,5,2021
783,6.2.2,win,9/17/20,13:52:01,05 pilot,24,1,main,2,next_trial,599,60,6,0,71,5,2128
784,6.2.2,win,9/17/20,13:52:01,05 pilot,24,1,main,2,next_trial,602,40,4,0,394,4,3896
785,6.2.2,win,9/17/20,13:52:01,05 pilot,24,1,main,2,next_trial,605,50,5,0,61,2,2002
786,6.2.2,win,9/17/20,13:52:01,05 pilot,24,1,main,2,next_trial,608,15,1,5,257,5,1644
787,6.2.2,win,9/17/20,13:52:01,05 pilot,24,1,main,2,next_trial,611,15,1,5,245,4,1952
788,6.2.2,win,9/17/20,13:52:01,05 pilot,24,1,main,2,next_trial,614,60,6,0,64,3,3455
789,6.2.2,win,9/17/20,13:52:01,05 pilot,24,1,main,2,next_trial,617,40,4,0,386,3,1571
790,6.2.2,win,9/17/20,13:52:01,05 pilot,24,1,main,2,next_trial,620,50,5,0,54,4,1754
791,6.2.2,win,9/17/20,13:52:01,05 pilot,24,1,main,2,next_trial,623,65,6,5,268,4,3260
792,6.2.2,win,9/17/20,13:52:01,05 pilot,24,1,main,2,next_trial,626,10,1,0,308,5,3052
793,6.2.2,win,9/17/20,13:52:01,05 pilot,24,1,main,2,next_trial,629,25,2,5,228,4,1618
794,6.2.2,win,9/17/20,13:52:01,05 pilot,24,1,main,2,next_trial,632,10,1,0,324,6,2193
795,6.2.2,win,9/17/20,13:52:01,05 pilot,24,1,main,2,next_trial,635,45,4,5,244,4,2263
796,6.2.2,win,9/17/20,13:52:01,05 pilot,24,1,main,2,next_trial,638,55,5,5,207,3,1767
797,6.2.2,win,9/17/20,13:52:01,05 pilot,24,1,main,2,next_trial,641,35,3,5,216,4,3538
798,6.2.2,win,9/17/20,13:52:01,05 pilot,24,1,main,2,next_trial,644,45,4,5,243,5,2960
799,6.2.2,win,9/17/20,13:52:01,05 pilot,24,1,main,2,next_trial,647,65,6,5,247,4,1862
800,6.2.2,win,9/17/20,13:52:01,05 pilot,24,1,main,2,next_trial,650,55,5,5,238,5,4117
801,6.2.2,win,9/17/20,13:52:01,05 pilot,24,1,main,2,next_trial,653,15,1,5,239,5,6996
802,6.2.2,win,9/17/20,13:52:01,05 pilot,24,1,main,2,next_trial,656,40,4,0,378,4,1507
803,6.2.2,win,9/17/20,13:52:01,05 pilot,24,1,main,2,next_trial,659,30,3,0,386,5,1711
804,6.2.2,win,9/17/20,13:52:01,05 pilot,24,1,main,2,next_trial,662,60,6,0,66,4,2538
805,6.2.2,win,9/17/20,13:52:01,05 pilot,24,1,main,2,next_trial,670,15,1,5,218,4,4256
806,6.2.2,win,9/17/20,13:52:01,05 pilot,24,1,main,2,next_trial,673,15,1,5,271,5,1421
807,6.2.2,win,9/17/20,13:52:01,05 pilot,24,1,main,2,next_trial,676,10,1,0,302,2,2576
808,6.2.2,win,9/17/20,13:52:01,05 pilot,24,1,main,2,next_trial,679,65,6,5,258,3,1699
809,6.2.2,win,9/17/20,13:52:01,05 pilot,24,1,main,2,next_trial,682,10,1,0,303,4,2235
810,6.2.2,win,9/17/20,13:52:01,05 pilot,24,1,main,2,next_trial,685,25,2,5,212,3,2164
811,6.2.2,win,9/17/20,13:52:01,05 pilot,24,1,main,2,next_trial,688,60,6,0,60,5,1930
812,6.2.2,win,9/17/20,13:52:01,05 pilot,24,1,main,2,next_trial,691,40,4,0,387,5,2300
813,6.2.2,win,9/17/20,13:52:01,05 pilot,24,1,main,2,next_trial,694,10,1,0,304,3,1729
814,6.2.2,win,9/17/20,13:52:01,05 pilot,24,1,main,2,next_trial,697,60,6,0,63,4,2049
815,6.2.2,win,9/17/20,13:52:01,05 pilot,24,1,main,2,next_trial,700,65,6,5,271,5,2448
816,6.2.2,win,9/17/20,13:52:01,05 pilot,24,1,main,2,next_trial,703,55,5,5,242,4,1398
817,6.2.2,win,9/17/20,13:52:01,05 pilot,24,1,main,2,next_trial,706,15,1,5,258,2,2292
818,6.2.2,win,9/17/20,13:52:01,05 pilot,24,1,main,2,next_trial,709,40,4,0,388,4,1878
819,6.2.2,win,9/17/20,13:52:01,05 pilot,24,1,main,2,next_trial,712,30,3,0,390,4,2504
820,6.2.2,win,9/17/20,13:52:01,05 pilot,24,1,main,2,next_trial,715,20,2,0,315,3,2108
821,6.2.2,win,9/17/20,13:52:01,05 pilot,24,1,main,2,next_trial,718,20,2,0,308,3,2276
822,6.2.2,win,9/17/20,13:52:01,05 pilot,24,1,main,2,next_trial,721,25,2,5,256,3,2974
823,6.2.2,win,9/17/20,13:52:01,05 pilot,24,1,main,2,next_trial,724,30,3,0,384,2,4727
824,6.2.2,win,9/17/20,13:52:01,05 pilot,24,1,main,2,next_trial,727,65,6,5,240,5,3801
825,6.2.2,win,9/17/20,13:52:01,05 pilot,24,1,main,2,next_trial,730,40,4,0,377,5,1652
826,6.2.2,win,9/17/20,13:52:01,05 pilot,24,1,main,2,next_trial,733,30,3,0,379,6,2256
827,6.2.2,win,9/17/20,13:52:01,05 pilot,24,1,main,2,next_trial,736,20,2,0,304,4,2754
828,6.2.2,win,9/17/20,13:52:01,05 pilot,24,1,main,2,next_trial,739,45,4,5,239,4,1187
829,6.2.2,win,9/17/20,13:52:01,05 pilot,24,1,main,2,next_trial,742,55,5,5,269,3,1846
830,6.2.2,win,9/17/20,13:52:01,05 pilot,24,1,main,2,next_trial,745,50,5,0,72,5,2686
831,6.2.2,win,9/17/20,13:52:01,05 pilot,24,1,main,2,next_trial,748,60,6,0,55,3,1930
832,6.2.2,win,9/17/20,13:52:01,05 pilot,24,1,main,2,next_trial,751,40,4,0,391,4,2507
833,6.2.2,win,9/17/20,13:52:01,05 pilot,24,1,main,2,next_trial,754,45,4,5,246,4,1421
834,6.2.2,win,9/17/20,13:52:01,05 pilot,24,1,main,2,next_trial,757,35,3,5,235,6,2351
835,6.2.2,win,9/17/20,13:52:01,05 pilot,24,1,main,2,next_trial,760,50,5,0,68,3,3917
836,6.2.2,win,9/17/20,13:52:01,05 pilot,24,1,main,2,next_trial,763,60,6,0,58,5,1755
837,6.2.2,win,9/17/20,13:52:01,05 pilot,24,1,main,2,next_trial,766,55,5,5,230,5,1941
838,6.2.2,win,9/17/20,13:52:01,05 pilot,24,1,main,2,next_trial,769,15,1,5,267,2,3128
839,6.2.2,win,9/17/20,13:52:01,05 pilot,24,1,main,2,next_trial,772,45,4,5,217,5,3824
840,6.2.2,win,9/17/20,13:52:01,05 pilot,24,1,main,2,next_trial,775,65,6,5,221,4,2512
841,6.2.2,win,9/17/20,13:52:01,05 pilot,24,1,main,2,next_trial,778,35,3,5,241,3,6461
842,6.2.2,win,9/17/20,13:52:01,05 pilot,24,1,main,2,next_trial,781,45,4,5,207,4,2107
843,6.2.2,win,9/17/20,13:52:01,05 pilot,24,1,main,2,next_trial,784,65,6,5,265,3,1796
844,6.2.2,win,9/17/20,13:52:01,05 pilot,24,1,main,2,next_trial,787,25,2,5,263,4,1802
845,6.2.2,win,9/17/20,13:52:01,05 pilot,24,1,main,2,next_trial,790,65,6,5,272,5,1390
846,6.2.2,win,9/17/20,13:52:01,05 pilot,24,1,main,2,next_trial,793,20,2,0,317,2,2313
847,6.2.2,win,9/17/20,13:52:01,05 pilot,24,1,main,2,next_trial,796,55,5,5,219,3,1610
848,6.2.2,win,9/17/20,13:52:01,05 pilot,24,1,main,2,next_trial,799,35,3,5,226,5,1809
849,6.2.2,win,9/17/20,13:52:01,05 pilot,24,1,main,2,next_trial,802,40,4,0,392,5,3080
850,6.2.2,win,9/17/20,13:52:01,05 pilot,24,1,main,2,next_trial,805,10,1,0,311,2,2860
851,6.2.2,win,9/17/20,13:52:01,05 pilot,24,1,main,2,next_trial,808,25,2,5,251,4,1522
852,6.2.2,win,9/17/20,13:52:01,05 pilot,24,1,main,2,next_trial,811,55,5,5,263,4,1613
853,6.2.2,win,9/17/20,13:52:01,05 pilot,24,1,main,2,next_trial,814,35,3,5,272,3,5505
854,6.2.2,win,9/17/20,13:52:01,05 pilot,24,1,main,2,next_trial,817,25,2,5,234,5,1393
855,6.2.2,win,9/17/20,13:52:01,05 pilot,24,1,main,2,next_trial,820,30,3,0,383,3,1665
856,6.2.2,win,9/17/20,13:52:01,05 pilot,24,1,main,2,next_trial,823,25,2,5,213,4,1607
857,6.2.2,win,9/17/20,13:52:01,05 pilot,24,1,main,2,next_trial,826,40,4,0,383,5,3585
858,6.2.2,win,9/17/20,13:52:01,05 pilot,24,1,main,2,next_trial,829,35,3,5,206,3,2856
859,6.2.2,win,9/17/20,13:52:01,05 pilot,24,1,main,2,next_trial,832,50,5,0,60,6,1807
860,6.2.2,win,9/17/20,13:52:01,05 pilot,24,1,main,2,next_trial,835,55,5,5,225,5,2424
861,6.2.2,win,9/17/20,13:52:01,05 pilot,24,1,main,2,next_trial,838,20,2,0,303,4,1322
862,6.2.2,win,9/17/20,13:52:01,05 pilot,24,1,main,2,next_trial,841,35,3,5,275,4,1668
863,6.2.2,win,9/17/20,13:52:01,05 pilot,24,1,main,2,next_trial,844,60,6,0,61,2,2157
864,6.2.2,win,9/17/20,13:52:01,05 pilot,24,1,main,2,next_trial,847,45,4,5,205,6,2016
865,6.2.2,win,9/17/20,13:52:01,05 pilot,24,1,main,2,next_trial,850,20,2,0,310,4,2029
866,6.2.2,win,9/17/20,13:52:01,05 pilot,24,1,main,2,next_trial,853,10,1,0,315,5,1797
867,6.2.2,win,9/17/20,13:52:01,05 pilot,24,1,main,2,next_trial,856,15,1,5,251,3,1815
868,6.2.2,win,9/17/20,13:52:01,05 pilot,24,1,main,2,next_trial,859,30,3,0,395,4,2018
869,6.2.2,win,9/17/20,13:52:01,05 pilot,24,1,main,2,next_trial,862,50,5,0,70,3,3303
870,6.2.2,win,9/17/20,13:52:01,05 pilot,24,1,main,2,next_trial,865,10,1,0,322,6,1852
871,6.2.2,win,9/17/20,13:52:01,05 pilot,24,1,main,2,next_trial,868,15,1,5,265,5,4626
872,6.2.2,win,9/17/20,13:52:01,05 pilot,24,1,main,2,next_trial,871,60,6,0,57,5,4482
873,6.2.2,win,9/17/20,13:52:01,05 pilot,24,1,main,2,next_trial,874,50,5,0,63,3,1824
874,6.2.2,win,9/17/20,13:52:01,05 pilot,24,1,main,2,next_trial,877,45,4,5,233,4,3844
875,6.2.2,win,9/17/20,13:52:01,05 pilot,24,1,main,2,next_trial,880,50,5,0,49,4,2395
876,6.2.2,win,9/17/20,13:52:01,05 pilot,24,1,main,2,next_trial,883,30,3,0,382,4,2419
877,6.2.2,mac,9/18/20,13:09:51,06 Pilot,27,1,practice,1,next_trial,7,80,8,0,2,1,1638
878,6.2.2,mac,9/18/20,13:09:51,06 Pilot,27,1,practice,1,next_trial,10,85,8,5,42,6,4604
879,6.2.2,mac,9/18/20,13:09:51,06 Pilot,27,1,practice,1,next_trial,13,85,8,5,41,2,6144
880,6.2.2,mac,9/18/20,13:09:51,06 Pilot,27,1,practice,1,next_trial,16,80,8,0,1,1,3537
881,6.2.2,mac,9/18/20,13:09:51,06 Pilot,27,1,main,2,next_trial,7,35,3,5,259,6,3027
882,6.2.2,mac,9/18/20,13:09:51,06 Pilot,27,1,main,2,next_trial,10,30,3,0,418,3,4394
883,6.2.2,mac,9/18/20,13:09:51,06 Pilot,27,1,main,2,next_trial,13,30,3,0,410,6,5303
884,6.2.2,mac,9/18/20,13:09:51,06 Pilot,27,1,main,2,next_trial,16,25,2,5,310,3,7131
885,6.2.2,mac,9/18/20,13:09:51,06 Pilot,27,1,main,2,next_trial,19,45,4,5,289,5,4020
886,6.2.2,mac,9/18/20,13:09:51,06 Pilot,27,1,main,2,next_trial,22,15,1,5,246,3,5997
887,6.2.2,mac,9/18/20,13:09:51,06 Pilot,27,1,main,2,next_trial,25,10,1,0,343,6,1624
888,6.2.2,mac,9/18/20,13:09:51,06 Pilot,27,1,main,2,next_trial,28,15,1,5,261,6,2590
889,6.2.2,mac,9/18/20,13:09:51,06 Pilot,27,1,main,2,next_trial,31,15,1,5,297,5,5640
890,6.2.2,mac,9/18/20,13:09:51,06 Pilot,27,1,main,2,next_trial,34,30,3,0,430,6,2209
891,6.2.2,mac,9/18/20,13:09:51,06 Pilot,27,1,main,2,next_trial,37,40,4,0,410,6,6071
892,6.2.2,mac,9/18/20,13:09:51,06 Pilot,27,1,main,2,next_trial,40,50,5,0,85,6,1861
893,6.2.2,mac,9/18/20,13:09:51,06 Pilot,27,1,main,2,next_trial,43,65,6,5,258,2,5769
894,6.2.2,mac,9/18/20,13:09:51,06 Pilot,27,1,main,2,next_trial,46,60,6,0,95,3,4933
895,6.2.2,mac,9/18/20,13:09:51,06 Pilot,27,1,main,2,next_trial,49,50,5,0,99,6,2289
896,6.2.2,mac,9/18/20,13:09:51,06 Pilot,27,1,main,2,next_trial,52,65,6,5,281,6,1623
897,6.2.2,mac,9/18/20,13:09:51,06 Pilot,27,1,main,2,next_trial,55,35,3,5,252,6,1933
898,6.2.2,mac,9/18/20,13:09:51,06 Pilot,27,1,main,2,next_trial,58,10,1,0,347,6,2993
899,6.2.2,mac,9/18/20,13:09:51,06 Pilot,27,1,main,2,next_trial,61,60,6,0,103,1,6536
900,6.2.2,mac,9/18/20,13:09:51,06 Pilot,27,1,main,2,next_trial,64,35,3,5,291,6,5150
901,6.2.2,mac,9/18/20,13:09:51,06 Pilot,27,1,main,2,next_trial,67,20,2,0,357,4,5087
902,6.2.2,mac,9/18/20,13:09:51,06 Pilot,27,1,main,2,next_trial,70,55,5,5,278,6,2235
903,6.2.2,mac,9/18/20,13:09:51,06 Pilot,27,1,main,2,next_trial,73,15,1,5,244,6,1787
904,6.2.2,mac,9/18/20,13:09:51,06 Pilot,27,1,main,2,next_trial,76,25,2,5,244,2,4539
905,6.2.2,mac,9/18/20,13:09:51,06 Pilot,27,1,main,2,next_trial,79,45,4,5,288,2,4722
906,6.2.2,mac,9/18/20,13:09:51,06 Pilot,27,1,main,2,next_trial,82,50,5,0,107,3,2456
907,6.2.2,mac,9/18/20,13:09:51,06 Pilot,27,1,main,2,next_trial,85,65,6,5,263,3,3942
908,6.2.2,mac,9/18/20,13:09:51,06 Pilot,27,1,main,2,next_trial,88,45,4,5,294,4,5489
909,6.2.2,mac,9/18/20,13:09:51,06 Pilot,27,1,main,2,next_trial,91,60,6,0,90,5,2431
910,6.2.2,mac,9/18/20,13:09:51,06 Pilot,27,1,main,2,next_trial,94,55,5,5,295,5,3204
911,6.2.2,mac,9/18/20,13:09:51,06 Pilot,27,1,main,2,next_trial,97,25,2,5,301,3,4326
912,6.2.2,mac,9/18/20,13:09:51,06 Pilot,27,1,main,2,next_trial,100,40,4,0,422,4,6754
913,6.2.2,mac,9/18/20,13:09:51,06 Pilot,27,1,main,2,next_trial,103,35,3,5,289,5,7653
914,6.2.2,mac,9/18/20,13:09:51,06 Pilot,27,1,main,2,next_trial,106,45,4,5,245,4,4077
915,6.2.2,mac,9/18/20,13:09:51,06 Pilot,27,1,main,2,next_trial,109,30,3,0,429,5,2586
916,6.2.2,mac,9/18/20,13:09:51,06 Pilot,27,1,main,2,next_trial,112,55,5,5,266,6,1994
917,6.2.2,mac,9/18/20,13:09:51,06 Pilot,27,1,main,2,next_trial,115,35,3,5,290,6,3923
918,6.2.2,mac,9/18/20,13:09:51,06 Pilot,27,1,main,2,next_trial,118,10,1,0,360,2,3501
919,6.2.2,mac,9/18/20,13:09:51,06 Pilot,27,1,main,2,next_trial,121,20,2,0,352,6,5660
920,6.2.2,mac,9/18/20,13:09:51,06 Pilot,27,1,main,2,next_trial,124,65,6,5,279,6,1660
921,6.2.2,mac,9/18/20,13:09:51,06 Pilot,27,1,main,2,next_trial,127,50,5,0,104,3,5227
922,6.2.2,mac,9/18/20,13:09:51,06 Pilot,27,1,main,2,next_trial,130,55,5,5,254,6,6611
923,6.2.2,mac,9/18/20,13:09:51,06 Pilot,27,1,main,2,next_trial,133,55,5,5,300,5,9139
924,6.2.2,mac,9/18/20,13:09:51,06 Pilot,27,1,main,2,next_trial,136,40,4,0,419,6,9240
925,6.2.2,mac,9/18/20,13:09:51,06 Pilot,27,1,main,2,next_trial,139,25,2,5,243,2,7028
926,6.2.2,mac,9/18/20,13:09:51,06 Pilot,27,1,main,2,next_trial,142,50,5,0,105,5,11601
927,6.2.2,mac,9/18/20,13:09:51,06 Pilot,27,1,main,2,next_trial,145,30,3,0,422,6,10903
928,6.2.2,mac,9/18/20,13:09:51,06 Pilot,27,1,main,2,next_trial,148,15,1,5,292,6,2658
929,6.2.2,mac,9/18/20,13:09:51,06 Pilot,27,1,main,2,next_trial,151,20,2,0,355,5,4203
930,6.2.2,mac,9/18/20,13:09:51,06 Pilot,27,1,main,2,next_trial,154,60,6,0,87,5,5955
931,6.2.2,mac,9/18/20,13:09:51,06 Pilot,27,1,main,2,next_trial,157,35,3,5,303,6,2801
932,6.2.2,mac,9/18/20,13:09:51,06 Pilot,27,1,main,2,next_trial,160,20,2,0,346,6,6302
933,6.2.2,mac,9/18/20,13:09:51,06 Pilot,27,1,main,2,next_trial,163,45,4,5,271,4,12048
934,6.2.2,mac,9/18/20,13:09:51,06 Pilot,27,1,main,2,next_trial,166,45,4,5,304,5,5961
935,6.2.2,mac,9/18/20,13:09:51,06 Pilot,27,1,main,2,next_trial,169,65,6,5,284,5,5999
936,6.2.2,mac,9/18/20,13:09:51,06 Pilot,27,1,main,2,next_trial,172,20,2,0,356,3,7929
937,6.2.2,mac,9/18/20,13:09:51,06 Pilot,27,1,main,2,next_trial,175,50,5,0,103,2,4091
938,6.2.2,mac,9/18/20,13:09:51,06 Pilot,27,1,main,2,next_trial,178,25,2,5,248,1,2034
939,6.2.2,mac,9/18/20,13:09:51,06 Pilot,27,1,main,2,next_trial,181,30,3,0,421,6,3623
940,6.2.2,mac,9/18/20,13:09:51,06 Pilot,27,1,main,2,next_trial,184,40,4,0,431,4,4804
941,6.2.2,mac,9/18/20,13:09:51,06 Pilot,27,1,main,2,next_trial,187,55,5,5,245,2,2855
942,6.2.2,mac,9/18/20,13:09:51,06 Pilot,27,1,main,2,next_trial,190,10,1,0,348,6,2555
943,6.2.2,mac,9/18/20,13:09:51,06 Pilot,27,1,main,2,next_trial,193,20,2,0,343,3,8588
944,6.2.2,mac,9/18/20,13:09:51,06 Pilot,27,1,main,2,next_trial,196,25,2,5,242,4,7004
945,6.2.2,mac,9/18/20,13:09:51,06 Pilot,27,1,main,2,next_trial,199,60,6,0,108,1,2613
946,6.2.2,mac,9/18/20,13:09:51,06 Pilot,27,1,main,2,next_trial,202,15,1,5,258,5,2400
947,6.2.2,mac,9/18/20,13:09:51,06 Pilot,27,1,main,2,next_trial,205,40,4,0,415,2,2007
948,6.2.2,mac,9/18/20,13:09:51,06 Pilot,27,1,main,2,next_trial,208,40,4,0,421,5,4078
949,6.2.2,mac,9/18/20,13:09:51,06 Pilot,27,1,main,2,next_trial,211,10,1,0,350,6,1773
950,6.2.2,mac,9/18/20,13:09:51,06 Pilot,27,1,main,2,next_trial,214,65,6,5,275,6,5209
951,6.2.2,mac,9/18/20,13:09:51,06 Pilot,27,1,main,2,next_trial,217,10,1,0,340,6,3848
952,6.2.2,mac,9/18/20,13:09:51,06 Pilot,27,1,main,2,next_trial,220,60,6,0,88,2,5389
953,6.2.2,mac,9/18/20,13:09:51,06 Pilot,27,1,main,2,next_trial,228,35,3,5,287,2,2940
954,6.2.2,mac,9/18/20,13:09:51,06 Pilot,27,1,main,2,next_trial,231,20,2,0,349,4,5296
955,6.2.2,mac,9/18/20,13:09:51,06 Pilot,27,1,main,2,next_trial,234,20,2,0,360,4,2840
956,6.2.2,mac,9/18/20,13:09:51,06 Pilot,27,1,main,2,next_trial,237,10,1,0,337,6,1850
957,6.2.2,mac,9/18/20,13:09:51,06 Pilot,27,1,main,2,next_trial,240,30,3,0,425,1,2081
958,6.2.2,mac,9/18/20,13:09:51,06 Pilot,27,1,main,2,next_trial,243,55,5,5,302,2,4958
959,6.2.2,mac,9/18/20,13:09:51,06 Pilot,27,1,main,2,next_trial,246,50,5,0,101,6,2104
960,6.2.2,mac,9/18/20,13:09:51,06 Pilot,27,1,main,2,next_trial,249,30,3,0,417,1,2882
961,6.2.2,mac,9/18/20,13:09:51,06 Pilot,27,1,main,2,next_trial,252,10,1,0,353,2,3242
962,6.2.2,mac,9/18/20,13:09:51,06 Pilot,27,1,main,2,next_trial,255,20,2,0,344,1,2844
963,6.2.2,mac,9/18/20,13:09:51,06 Pilot,27,1,main,2,next_trial,258,25,2,5,305,1,1653
964,6.2.2,mac,9/18/20,13:09:51,06 Pilot,27,1,main,2,next_trial,261,45,4,5,298,3,6156
965,6.2.2,mac,9/18/20,13:09:51,06 Pilot,27,1,main,2,next_trial,264,60,6,0,97,4,6707
966,6.2.2,mac,9/18/20,13:09:51,06 Pilot,27,1,main,2,next_trial,267,60,6,0,106,5,3347
967,6.2.2,mac,9/18/20,13:09:51,06 Pilot,27,1,main,2,next_trial,270,25,2,5,247,5,3857
968,6.2.2,mac,9/18/20,13:09:51,06 Pilot,27,1,main,2,next_trial,273,45,4,5,251,3,2605
969,6.2.2,mac,9/18/20,13:09:51,06 Pilot,27,1,main,2,next_trial,276,60,6,0,93,5,2170
970,6.2.2,mac,9/18/20,13:09:51,06 Pilot,27,1,main,2,next_trial,279,45,4,5,256,3,1641
971,6.2.2,mac,9/18/20,13:09:51,06 Pilot,27,1,main,2,next_trial,282,10,1,0,356,6,2141
972,6.2.2,mac,9/18/20,13:09:51,06 Pilot,27,1,main,2,next_trial,285,65,6,5,246,2,4116
973,6.2.2,mac,9/18/20,13:09:51,06 Pilot,27,1,main,2,next_trial,288,35,3,5,299,6,1812
974,6.2.2,mac,9/18/20,13:09:51,06 Pilot,27,1,main,2,next_trial,291,65,6,5,292,1,1698
975,6.2.2,mac,9/18/20,13:09:51,06 Pilot,27,1,main,2,next_trial,294,30,3,0,420,5,5046
976,6.2.2,mac,9/18/20,13:09:51,06 Pilot,27,1,main,2,next_trial,297,30,3,0,411,1,2532
977,6.2.2,mac,9/18/20,13:09:51,06 Pilot,27,1,main,2,next_trial,300,15,1,5,243,3,4399
978,6.2.2,mac,9/18/20,13:09:51,06 Pilot,27,1,main,2,next_trial,303,15,1,5,310,3,4924
979,6.2.2,mac,9/18/20,13:09:51,06 Pilot,27,1,main,2,next_trial,306,40,4,0,412,2,13516
980,6.2.2,mac,9/18/20,13:09:51,06 Pilot,27,1,main,2,next_trial,309,50,5,0,87,1,6188
981,6.2.2,mac,9/18/20,13:09:51,06 Pilot,27,1,main,2,next_trial,312,60,6,0,98,3,5205
982,6.2.2,mac,9/18/20,13:09:51,06 Pilot,27,1,main,2,next_trial,315,55,5,5,312,6,2537
983,6.2.2,mac,9/18/20,13:09:51,06 Pilot,27,1,main,2,next_trial,318,35,3,5,274,6,5808
984,6.2.2,mac,9/18/20,13:09:51,06 Pilot,27,1,main,2,next_trial,321,45,4,5,300,2,2051
985,6.2.2,mac,9/18/20,13:09:51,06 Pilot,27,1,main,2,next_trial,324,20,2,0,338,4,4764
986,6.2.2,mac,9/18/20,13:09:51,06 Pilot,27,1,main,2,next_trial,327,15,1,5,288,2,2758
987,6.2.2,mac,9/18/20,13:09:51,06 Pilot,27,1,main,2,next_trial,330,55,5,5,276,6,10062
988,6.2.2,mac,9/18/20,13:09:51,06 Pilot,27,1,main,2,next_trial,333,35,3,5,304,3,4013
989,6.2.2,mac,9/18/20,13:09:51,06 Pilot,27,1,main,2,next_trial,336,15,1,5,293,4,9391
990,6.2.2,mac,9/18/20,13:09:51,06 Pilot,27,1,main,2,next_trial,339,35,3,5,282,6,5069
991,6.2.2,mac,9/18/20,13:09:51,06 Pilot,27,1,main,2,next_trial,342,10,1,0,346,4,10010
992,6.2.2,mac,9/18/20,13:09:51,06 Pilot,27,1,main,2,next_trial,345,10,1,0,351,1,2031
993,6.2.2,mac,9/18/20,13:09:51,06 Pilot,27,1,main,2,next_trial,348,25,2,5,241,4,3921
994,6.2.2,mac,9/18/20,13:09:51,06 Pilot,27,1,main,2,next_trial,351,30,3,0,427,6,1854
995,6.2.2,mac,9/18/20,13:09:51,06 Pilot,27,1,main,2,next_trial,354,65,6,5,307,6,2341
996,6.2.2,mac,9/18/20,13:09:51,06 Pilot,27,1,main,2,next_trial,357,40,4,0,426,5,2629
997,6.2.2,mac,9/18/20,13:09:51,06 Pilot,27,1,main,2,next_trial,360,50,5,0,95,6,2350
998,6.2.2,mac,9/18/20,13:09:51,06 Pilot,27,1,main,2,next_trial,363,60,6,0,86,3,2830
999,6.2.2,mac,9/18/20,13:09:51,06 Pilot,27,1,main,2,next_trial,366,55,5,5,272,1,2744
1000,6.2.2,mac,9/18/20,13:09:51,06 Pilot,27,1,main,2,next_trial,369,25,2,5,306,3,6414
1001,6.2.2,mac,9/18/20,13:09:51,06 Pilot,27,1,main,2,next_trial,372,30,3,0,409,6,2043
1002,6.2.2,mac,9/18/20,13:09:51,06 Pilot,27,1,main,2,next_trial,375,20,2,0,345,3,7655
1003,6.2.2,mac,9/18/20,13:09:51,06 Pilot,27,1,main,2,next_trial,378,15,1,5,262,2,3162
1004,6.2.2,mac,9/18/20,13:09:51,06 Pilot,27,1,main,2,next_trial,381,65,6,5,273,1,2098
1005,6.2.2,mac,9/18/20,13:09:51,06 Pilot,27,1,main,2,next_trial,384,50,5,0,98,1,2480
1006,6.2.2,mac,9/18/20,13:09:51,06 Pilot,27,1,main,2,next_trial,387,25,2,5,252,2,3137
1007,6.2.2,mac,9/18/20,13:09:51,06 Pilot,27,1,main,2,next_trial,390,55,5,5,256,6,1837
1008,6.2.2,mac,9/18/20,13:09:51,06 Pilot,27,1,main,2,next_trial,393,45,4,5,249,3,5950
1009,6.2.2,mac,9/18/20,13:09:51,06 Pilot,27,1,main,2,next_trial,396,55,5,5,281,3,2937
1010,6.2.2,mac,9/18/20,13:09:51,06 Pilot,27,1,main,2,next_trial,399,10,1,0,339,6,1709
1011,6.2.2,mac,9/18/20,13:09:51,06 Pilot,27,1,main,2,next_trial,402,20,2,0,339,4,3363
1012,6.2.2,mac,9/18/20,13:09:51,06 Pilot,27,1,main,2,next_trial,405,45,4,5,302,2,13674
1013,6.2.2,mac,9/18/20,13:09:51,06 Pilot,27,1,main,2,next_trial,408,40,4,0,424,3,4585
1014,6.2.2,mac,9/18/20,13:09:51,06 Pilot,27,1,main,2,next_trial,411,15,1,5,265,5,4153
1015,6.2.2,mac,9/18/20,13:09:51,06 Pilot,27,1,main,2,next_trial,414,40,4,0,425,2,6144
1016,6.2.2,mac,9/18/20,13:09:51,06 Pilot,27,1,main,2,next_trial,417,65,6,5,257,3,2109
1017,6.2.2,mac,9/18/20,13:09:51,06 Pilot,27,1,main,2,next_trial,420,25,2,5,270,2,2747
1018,6.2.2,mac,9/18/20,13:09:51,06 Pilot,27,1,main,2,next_trial,423,40,4,0,417,4,6035
1019,6.2.2,mac,9/18/20,13:09:51,06 Pilot,27,1,main,2,next_trial,426,65,6,5,299,4,2403
1020,6.2.2,mac,9/18/20,13:09:51,06 Pilot,27,1,main,2,next_trial,429,50,5,0,93,6,3109
1021,6.2.2,mac,9/18/20,13:09:51,06 Pilot,27,1,main,2,next_trial,432,60,6,0,91,1,2643
1022,6.2.2,mac,9/18/20,13:09:51,06 Pilot,27,1,main,2,next_trial,435,50,5,0,92,6,1739
1023,6.2.2,mac,9/18/20,13:09:51,06 Pilot,27,1,main,2,next_trial,438,40,4,0,427,5,2794
1024,6.2.2,mac,9/18/20,13:09:51,06 Pilot,27,1,main,2,next_trial,441,35,3,5,251,5,3343
1025,6.2.2,mac,9/18/20,13:09:51,06 Pilot,27,1,main,2,next_trial,449,60,6,0,101,2,4389
1026,6.2.2,mac,9/18/20,13:09:51,06 Pilot,27,1,main,2,next_trial,452,35,3,5,294,1,3906
1027,6.2.2,mac,9/18/20,13:09:51,06 Pilot,27,1,main,2,next_trial,455,40,4,0,423,3,2065
1028,6.2.2,mac,9/18/20,13:09:51,06 Pilot,27,1,main,2,next_trial,458,50,5,0,86,6,1789
1029,6.2.2,mac,9/18/20,13:09:51,06 Pilot,27,1,main,2,next_trial,461,30,3,0,424,6,2464
1030,6.2.2,mac,9/18/20,13:09:51,06 Pilot,27,1,main,2,next_trial,464,20,2,0,342,3,4618
1031,6.2.2,mac,9/18/20,13:09:51,06 Pilot,27,1,main,2,next_trial,467,25,2,5,265,6,1673
1032,6.2.2,mac,9/18/20,13:09:51,06 Pilot,27,1,main,2,next_trial,470,30,3,0,432,1,2666
1033,6.2.2,mac,9/18/20,13:09:51,06 Pilot,27,1,main,2,next_trial,473,50,5,0,102,6,2042
1034,6.2.2,mac,9/18/20,13:09:51,06 Pilot,27,1,main,2,next_trial,476,10,1,0,349,4,2824
1035,6.2.2,mac,9/18/20,13:09:51,06 Pilot,27,1,main,2,next_trial,479,20,2,0,340,1,3627
1036,6.2.2,mac,9/18/20,13:09:51,06 Pilot,27,1,main,2,next_trial,482,20,2,0,350,1,2884
1037,6.2.2,mac,9/18/20,13:09:51,06 Pilot,27,1,main,2,next_trial,485,10,1,0,345,3,4738
1038,6.2.2,mac,9/18/20,13:09:51,06 Pilot,27,1,main,2,next_trial,488,45,4,5,250,4,2430
1039,6.2.2,mac,9/18/20,13:09:51,06 Pilot,27,1,main,2,next_trial,491,15,1,5,309,6,5714
1040,6.2.2,mac,9/18/20,13:09:51,06 Pilot,27,1,main,2,next_trial,494,20,2,0,351,2,12663
1041,6.2.2,mac,9/18/20,13:09:51,06 Pilot,27,1,main,2,next_trial,497,30,3,0,423,6,1771
1042,6.2.2,mac,9/18/20,13:09:51,06 Pilot,27,1,main,2,next_trial,500,55,5,5,268,3,3018
1043,6.2.2,mac,9/18/20,13:09:51,06 Pilot,27,1,main,2,next_trial,503,30,3,0,413,1,7396
1044,6.2.2,mac,9/18/20,13:09:51,06 Pilot,27,1,main,2,next_trial,506,10,1,0,357,1,5779
1045,6.2.2,mac,9/18/20,13:09:51,06 Pilot,27,1,main,2,next_trial,509,40,4,0,429,3,3669
1046,6.2.2,mac,9/18/20,13:09:51,06 Pilot,27,1,main,2,next_trial,512,10,1,0,354,6,2203
1047,6.2.2,mac,9/18/20,13:09:51,06 Pilot,27,1,main,2,next_trial,515,40,4,0,432,3,15471
1048,6.2.2,mac,9/18/20,13:09:51,06 Pilot,27,1,main,2,next_trial,518,25,2,5,276,2,3407
1049,6.2.2,mac,9/18/20,13:09:51,06 Pilot,27,1,main,2,next_trial,521,25,2,5,260,5,2194
1050,6.2.2,mac,9/18/20,13:09:51,06 Pilot,27,1,main,2,next_trial,524,10,1,0,359,3,3368
1051,6.2.2,mac,9/18/20,13:09:51,06 Pilot,27,1,main,2,next_trial,527,65,6,5,293,3,3210
1052,6.2.2,mac,9/18/20,13:09:51,06 Pilot,27,1,main,2,next_trial,530,25,2,5,295,4,5606
1053,6.2.2,mac,9/18/20,13:09:51,06 Pilot,27,1,main,2,next_trial,533,40,4,0,413,1,1879
1054,6.2.2,mac,9/18/20,13:09:51,06 Pilot,27,1,main,2,next_trial,536,15,1,5,286,6,1766
1055,6.2.2,mac,9/18/20,13:09:51,06 Pilot,27,1,main,2,next_trial,539,40,4,0,409,6,3406
1056,6.2.2,mac,9/18/20,13:09:51,06 Pilot,27,1,main,2,next_trial,542,60,6,0,92,2,7596
1057,6.2.2,mac,9/18/20,13:09:51,06 Pilot,27,1,main,2,next_trial,545,35,3,5,253,1,2188
1058,6.2.2,mac,9/18/20,13:09:51,06 Pilot,27,1,main,2,next_trial,548,65,6,5,266,1,2596
1059,6.2.2,mac,9/18/20,13:09:51,06 Pilot,27,1,main,2,next_trial,551,30,3,0,412,6,1640
1060,6.2.2,mac,9/18/20,13:09:51,06 Pilot,27,1,main,2,next_trial,554,35,3,5,306,6,2442
1061,6.2.2,mac,9/18/20,13:09:51,06 Pilot,27,1,main,2,next_trial,557,10,1,0,342,5,4145
1062,6.2.2,mac,9/18/20,13:09:51,06 Pilot,27,1,main,2,next_trial,560,60,6,0,102,3,2315
1063,6.2.2,mac,9/18/20,13:09:51,06 Pilot,27,1,main,2,next_trial,563,65,6,5,309,2,1912
1064,6.2.2,mac,9/18/20,13:09:51,06 Pilot,27,1,main,2,next_trial,566,55,5,5,280,5,2916
1065,6.2.2,mac,9/18/20,13:09:51,06 Pilot,27,1,main,2,next_trial,569,55,5,5,249,2,2390
1066,6.2.2,mac,9/18/20,13:09:51,06 Pilot,27,1,main,2,next_trial,572,25,2,5,286,3,2217
1067,6.2.2,mac,9/18/20,13:09:51,06 Pilot,27,1,main,2,next_trial,575,20,2,0,347,3,1368
1068,6.2.2,mac,9/18/20,13:09:51,06 Pilot,27,1,main,2,next_trial,578,20,2,0,341,6,1692
1069,6.2.2,mac,9/18/20,13:09:51,06 Pilot,27,1,main,2,next_trial,581,35,3,5,263,5,2719
1070,6.2.2,mac,9/18/20,13:09:51,06 Pilot,27,1,main,2,next_trial,584,60,6,0,99,3,5278
1071,6.2.2,mac,9/18/20,13:09:51,06 Pilot,27,1,main,2,next_trial,587,45,4,5,264,2,2503
1072,6.2.2,mac,9/18/20,13:09:51,06 Pilot,27,1,main,2,next_trial,590,15,1,5,279,6,1867
1073,6.2.2,mac,9/18/20,13:09:51,06 Pilot,27,1,main,2,next_trial,593,60,6,0,107,1,2398
1074,6.2.2,mac,9/18/20,13:09:51,06 Pilot,27,1,main,2,next_trial,596,15,1,5,305,3,2205
1075,6.2.2,mac,9/18/20,13:09:51,06 Pilot,27,1,main,2,next_trial,599,45,4,5,267,2,2244
1076,6.2.2,mac,9/18/20,13:09:51,06 Pilot,27,1,main,2,next_trial,602,65,6,5,261,2,1446
1077,6.2.2,mac,9/18/20,13:09:51,06 Pilot,27,1,main,2,next_trial,605,35,3,5,277,2,1558
1078,6.2.2,mac,9/18/20,13:09:51,06 Pilot,27,1,main,2,next_trial,608,50,5,0,108,2,7964
1079,6.2.2,mac,9/18/20,13:09:51,06 Pilot,27,1,main,2,next_trial,611,45,4,5,311,1,3420
1080,6.2.2,mac,9/18/20,13:09:51,06 Pilot,27,1,main,2,next_trial,614,30,3,0,416,4,5931
1081,6.2.2,mac,9/18/20,13:09:51,06 Pilot,27,1,main,2,next_trial,617,60,6,0,89,6,2265
1082,6.2.2,mac,9/18/20,13:09:51,06 Pilot,27,1,main,2,next_trial,620,15,1,5,248,6,1815
1083,6.2.2,mac,9/18/20,13:09:51,06 Pilot,27,1,main,2,next_trial,623,35,3,5,273,4,5571
1084,6.2.2,mac,9/18/20,13:09:51,06 Pilot,27,1,main,2,next_trial,626,50,5,0,94,4,5950
1085,6.2.2,mac,9/18/20,13:09:51,06 Pilot,27,1,main,2,next_trial,629,55,5,5,257,6,5186
1086,6.2.2,mac,9/18/20,13:09:51,06 Pilot,27,1,main,2,next_trial,632,55,5,5,271,3,3451
1087,6.2.2,mac,9/18/20,13:09:51,06 Pilot,27,1,main,2,next_trial,635,45,4,5,274,2,1966
1088,6.2.2,mac,9/18/20,13:09:51,06 Pilot,27,1,main,2,next_trial,638,45,4,5,291,2,3409
1089,6.2.2,mac,9/18/20,13:09:51,06 Pilot,27,1,main,2,next_trial,641,50,5,0,96,6,4058
1090,6.2.2,mac,9/18/20,13:09:51,06 Pilot,27,1,main,2,next_trial,644,40,4,0,414,6,3829
1091,6.2.2,mac,9/18/20,13:09:51,06 Pilot,27,1,main,2,next_trial,647,65,6,5,290,1,1970
1092,6.2.2,mac,9/18/20,13:09:51,06 Pilot,27,1,main,2,next_trial,650,55,5,5,267,6,2346
1093,6.2.2,mac,9/18/20,13:09:51,06 Pilot,27,1,main,2,next_trial,653,50,5,0,100,2,1705
1094,6.2.2,mac,9/18/20,13:09:51,06 Pilot,27,1,main,2,next_trial,656,15,1,5,269,3,5240
1095,6.2.2,mac,9/18/20,13:09:51,06 Pilot,27,1,main,2,next_trial,659,65,6,5,272,2,2670
1096,6.2.2,mac,9/18/20,13:09:51,06 Pilot,27,1,main,2,next_trial,662,25,2,5,280,5,3520
1097,6.2.2,mac,9/18/20,13:09:51,06 Pilot,27,1,main,2,next_trial,670,60,6,0,100,3,3585
1098,6.2.2,mac,9/18/20,13:09:51,06 Pilot,27,1,main,2,next_trial,673,60,6,0,105,3,1882
1099,6.2.2,mac,9/18/20,13:09:51,06 Pilot,27,1,main,2,next_trial,676,35,3,5,241,6,2817
1100,6.2.2,mac,9/18/20,13:09:51,06 Pilot,27,1,main,2,next_trial,679,15,1,5,264,5,5060
1101,6.2.2,mac,9/18/20,13:09:51,06 Pilot,27,1,main,2,next_trial,682,35,3,5,260,2,2243
1102,6.2.2,mac,9/18/20,13:09:51,06 Pilot,27,1,main,2,next_trial,685,25,2,5,253,1,1687
1103,6.2.2,mac,9/18/20,13:09:51,06 Pilot,27,1,main,2,next_trial,688,10,1,0,344,1,2497
1104,6.2.2,mac,9/18/20,13:09:51,06 Pilot,27,1,main,2,next_trial,691,55,5,5,301,6,2120
1105,6.2.2,mac,9/18/20,13:09:51,06 Pilot,27,1,main,2,next_trial,694,50,5,0,97,1,1447
1106,6.2.2,mac,9/18/20,13:09:51,06 Pilot,27,1,main,2,next_trial,697,10,1,0,352,1,1913
1107,6.2.2,mac,9/18/20,13:09:51,06 Pilot,27,1,main,2,next_trial,700,15,1,5,296,5,2521
1108,6.2.2,mac,9/18/20,13:09:51,06 Pilot,27,1,main,2,next_trial,703,35,3,5,255,6,2280
1109,6.2.2,mac,9/18/20,13:09:51,06 Pilot,27,1,main,2,next_trial,706,10,1,0,355,4,2593
1110,6.2.2,mac,9/18/20,13:09:51,06 Pilot,27,1,main,2,next_trial,709,15,1,5,250,2,1925
1111,6.2.2,mac,9/18/20,13:09:51,06 Pilot,27,1,main,2,next_trial,712,60,6,0,96,4,3697
1112,6.2.2,mac,9/18/20,13:09:51,06 Pilot,27,1,main,2,next_trial,715,25,2,5,259,4,2998
1113,6.2.2,mac,9/18/20,13:09:51,06 Pilot,27,1,main,2,next_trial,718,30,3,0,426,1,4245
1114,6.2.2,mac,9/18/20,13:09:51,06 Pilot,27,1,main,2,next_trial,721,30,3,0,415,2,2030
1115,6.2.2,mac,9/18/20,13:09:51,06 Pilot,27,1,main,2,next_trial,724,35,3,5,247,1,1597
1116,6.2.2,mac,9/18/20,13:09:51,06 Pilot,27,1,main,2,next_trial,727,20,2,0,358,3,4687
1117,6.2.2,mac,9/18/20,13:09:51,06 Pilot,27,1,main,2,next_trial,730,30,3,0,419,5,3819
1118,6.2.2,mac,9/18/20,13:09:51,06 Pilot,27,1,main,2,next_trial,733,45,4,5,277,5,2766
1119,6.2.2,mac,9/18/20,13:09:51,06 Pilot,27,1,main,2,next_trial,736,10,1,0,358,1,2183
1120,6.2.2,mac,9/18/20,13:09:51,06 Pilot,27,1,main,2,next_trial,739,50,5,0,88,4,2676
1121,6.2.2,mac,9/18/20,13:09:51,06 Pilot,27,1,main,2,next_trial,742,60,6,0,94,4,4549
1122,6.2.2,mac,9/18/20,13:09:51,06 Pilot,27,1,main,2,next_trial,745,50,5,0,91,1,2152
1123,6.2.2,mac,9/18/20,13:09:51,06 Pilot,27,1,main,2,next_trial,748,20,2,0,337,1,2275
1124,6.2.2,mac,9/18/20,13:09:51,06 Pilot,27,1,main,2,next_trial,751,50,5,0,106,6,2386
1125,6.2.2,mac,9/18/20,13:09:51,06 Pilot,27,1,main,2,next_trial,754,40,4,0,416,6,2134
1126,6.2.2,mac,9/18/20,13:09:51,06 Pilot,27,1,main,2,next_trial,757,20,2,0,359,3,4874
1127,6.2.2,mac,9/18/20,13:09:51,06 Pilot,27,1,main,2,next_trial,760,10,1,0,338,1,3144
1128,6.2.2,mac,9/18/20,13:09:51,06 Pilot,27,1,main,2,next_trial,763,30,3,0,414,6,2329
1129,6.2.2,mac,9/18/20,13:09:51,06 Pilot,27,1,main,2,next_trial,766,20,2,0,353,4,3031
1130,6.2.2,mac,9/18/20,13:09:51,06 Pilot,27,1,main,2,next_trial,769,35,3,5,285,3,3543
1131,6.2.2,mac,9/18/20,13:09:51,06 Pilot,27,1,main,2,next_trial,772,45,4,5,255,3,1728
1132,6.2.2,mac,9/18/20,13:09:51,06 Pilot,27,1,main,2,next_trial,775,30,3,0,431,5,2708
1133,6.2.2,mac,9/18/20,13:09:51,06 Pilot,27,1,main,2,next_trial,778,65,6,5,254,3,2372
1134,6.2.2,mac,9/18/20,13:09:51,06 Pilot,27,1,main,2,next_trial,781,65,6,5,285,3,2515
1135,6.2.2,mac,9/18/20,13:09:51,06 Pilot,27,1,main,2,next_trial,784,25,2,5,262,2,2452
1136,6.2.2,mac,9/18/20,13:09:51,06 Pilot,27,1,main,2,next_trial,787,55,5,5,311,6,2994
1137,6.2.2,mac,9/18/20,13:09:51,06 Pilot,27,1,main,2,next_trial,790,40,4,0,428,1,5066
1138,6.2.2,mac,9/18/20,13:09:51,06 Pilot,27,1,main,2,next_trial,793,45,4,5,283,4,2338
1139,6.2.2,mac,9/18/20,13:09:51,06 Pilot,27,1,main,2,next_trial,796,40,4,0,411,4,1934
1140,6.2.2,mac,9/18/20,13:09:51,06 Pilot,27,1,main,2,next_trial,799,20,2,0,348,2,2471
1141,6.2.2,mac,9/18/20,13:09:51,06 Pilot,27,1,main,2,next_trial,802,35,3,5,283,6,1873
1142,6.2.2,mac,9/18/20,13:09:51,06 Pilot,27,1,main,2,next_trial,805,25,2,5,287,3,6787
1143,6.2.2,mac,9/18/20,13:09:51,06 Pilot,27,1,main,2,next_trial,808,25,2,5,296,4,4522
1144,6.2.2,mac,9/18/20,13:09:51,06 Pilot,27,1,main,2,next_trial,811,55,5,5,298,6,1924
1145,6.2.2,mac,9/18/20,13:09:51,06 Pilot,27,1,main,2,next_trial,814,15,1,5,308,5,3027
1146,6.2.2,mac,9/18/20,13:09:51,06 Pilot,27,1,main,2,next_trial,817,65,6,5,278,2,2220
1147,6.2.2,mac,9/18/20,13:09:51,06 Pilot,27,1,main,2,next_trial,820,45,4,5,303,2,3090
1148,6.2.2,mac,9/18/20,13:09:51,06 Pilot,27,1,main,2,next_trial,823,40,4,0,418,1,2425
1149,6.2.2,mac,9/18/20,13:09:51,06 Pilot,27,1,main,2,next_trial,826,55,5,5,284,4,2211
1150,6.2.2,mac,9/18/20,13:09:51,06 Pilot,27,1,main,2,next_trial,829,20,2,0,354,2,3399
1151,6.2.2,mac,9/18/20,13:09:51,06 Pilot,27,1,main,2,next_trial,832,50,5,0,89,6,2127
1152,6.2.2,mac,9/18/20,13:09:51,06 Pilot,27,1,main,2,next_trial,835,45,4,5,312,3,1982
1153,6.2.2,mac,9/18/20,13:09:51,06 Pilot,27,1,main,2,next_trial,838,55,5,5,270,6,3235
1154,6.2.2,mac,9/18/20,13:09:51,06 Pilot,27,1,main,2,next_trial,841,10,1,0,341,4,3057
1155,6.2.2,mac,9/18/20,13:09:51,06 Pilot,27,1,main,2,next_trial,844,45,4,5,268,4,1471
1156,6.2.2,mac,9/18/20,13:09:51,06 Pilot,27,1,main,2,next_trial,847,65,6,5,282,2,2551
1157,6.2.2,mac,9/18/20,13:09:51,06 Pilot,27,1,main,2,next_trial,850,40,4,0,420,2,5263
1158,6.2.2,mac,9/18/20,13:09:51,06 Pilot,27,1,main,2,next_trial,853,65,6,5,269,2,2656
1159,6.2.2,mac,9/18/20,13:09:51,06 Pilot,27,1,main,2,next_trial,856,60,6,0,104,4,2313
1160,6.2.2,mac,9/18/20,13:09:51,06 Pilot,27,1,main,2,next_trial,859,40,4,0,430,1,2697
1161,6.2.2,mac,9/18/20,13:09:51,06 Pilot,27,1,main,2,next_trial,862,15,1,5,242,6,2440
1162,6.2.2,mac,9/18/20,13:09:51,06 Pilot,27,1,main,2,next_trial,865,15,1,5,307,6,1637
1163,6.2.2,mac,9/18/20,13:09:51,06 Pilot,27,1,main,2,next_trial,868,25,2,5,308,1,3308
1164,6.2.2,mac,9/18/20,13:09:51,06 Pilot,27,1,main,2,next_trial,871,50,5,0,90,6,2005
1165,6.2.2,mac,9/18/20,13:09:51,06 Pilot,27,1,main,2,next_trial,874,55,5,5,275,6,1945
1166,6.2.2,mac,9/18/20,13:09:51,06 Pilot,27,1,main,2,next_trial,877,60,6,0,85,3,2155
1167,6.2.2,mac,9/18/20,13:09:51,06 Pilot,27,1,main,2,next_trial,880,65,6,5,297,2,2369
1168,6.2.2,mac,9/18/20,13:09:51,06 Pilot,27,1,main,2,next_trial,883,30,3,0,428,1,2493
1169,6.2.2,win,9/19/20,18:29:22,07 Pilot,32,2,practice,1,next_trial,7,80,8,0,2,5,5720
1170,6.2.2,win,9/19/20,18:29:22,07 Pilot,32,2,practice,1,next_trial,10,85,8,5,42,6,1953
