Date Prac Sub Age Sex Hand Block Bin Trial Shape Label Match CorrResp Resp ACC RT
03-Jun-2018_13:54:00 Exp 7339 18 male R 1 1 1 moralOther moralOther match n m 0 0.9242 
03-Jun-2018_13:54:02 Exp 7339 18 male R 1 1 2 immoralOther immoralOther match n m 0 0.5926 
03-Jun-2018_13:54:04 Exp 7339 18 male R 1 1 3 moralSelf immoralSelf mismatch m n 0 0.5184 
03-Jun-2018_13:54:07 Exp 7339 18 male R 1 1 4 moralOther moralSelf mismatch m m 1 0.8427 
03-Jun-2018_13:54:09 Exp 7339 18 male R 1 1 5 immoralSelf immoralSelf match n n 1 0.6413 
03-Jun-2018_13:54:11 Exp 7339 18 male R 1 1 6 moralOther immoralSelf mismatch m m 1 0.5922 
03-Jun-2018_13:54:13 Exp 7339 18 male R 1 1 7 moralSelf moralSelf match n n 1 0.5817 
03-Jun-2018_13:54:15 Exp 7339 18 male R 1 1 8 immoralSelf moralSelf mismatch m m 1 0.5273 
03-Jun-2018_13:54:17 Exp 7339 18 male R 1 1 9 immoralSelf immoralSelf match n n 1 0.6478 
03-Jun-2018_13:54:19 Exp 7339 18 male R 1 1 10 moralOther moralOther match n m 0 0.6266 
03-Jun-2018_13:54:21 Exp 7339 18 male R 1 1 11 immoralOther immoralOther match n m 0 0.5413 
03-Jun-2018_13:54:23 Exp 7339 18 male R 1 1 12 immoralSelf moralSelf mismatch m n 0 0.5220 
03-Jun-2018_13:54:26 Exp 7339 18 male R 1 1 13 immoralOther immoralSelf mismatch m NA -1 1.1191 
03-Jun-2018_13:54:28 Exp 7339 18 male R 1 1 14 moralSelf moralOther mismatch m n 0 0.4826 
03-Jun-2018_13:54:30 Exp 7339 18 male R 1 1 15 immoralSelf immoralSelf match n m 0 0.9782 
03-Jun-2018_13:54:33 Exp 7339 18 male R 1 1 16 moralSelf moralOther mismatch m NA -1 1.1191 
03-Jun-2018_13:54:35 Exp 7339 18 male R 1 1 17 moralOther moralSelf mismatch m m 1 0.8560 
03-Jun-2018_13:54:37 Exp 7339 18 male R 1 1 18 moralSelf moralSelf match n n 1 0.5112 
03-Jun-2018_13:54:39 Exp 7339 18 male R 1 1 19 immoralOther immoralOther match n m 0 0.6393 
03-Jun-2018_13:54:41 Exp 7339 18 male R 1 1 20 immoralSelf moralSelf mismatch m n 0 0.5579 
03-Jun-2018_13:54:44 Exp 7339 18 male R 1 1 21 immoralOther moralSelf mismatch m m 1 0.8391 
03-Jun-2018_13:54:46 Exp 7339 18 male R 1 1 22 moralOther moralOther match n n 1 0.8617 
03-Jun-2018_13:54:48 Exp 7339 18 male R 1 1 23 immoralOther moralSelf mismatch m m 1 0.8448 
03-Jun-2018_13:54:50 Exp 7339 18 male R 1 1 24 moralSelf moralSelf match n n 1 0.5838 
03-Jun-2018_13:54:53 Exp 7339 18 male R 1 2 1 moralOther immoralOther mismatch m m 1 0.8333 
03-Jun-2018_13:54:55 Exp 7339 18 male R 1 2 2 moralSelf moralSelf match n n 1 0.5199 
03-Jun-2018_13:54:57 Exp 7339 18 male R 1 2 3 moralOther moralOther match n n 1 0.9722 
03-Jun-2018_13:54:59 Exp 7339 18 male R 1 2 4 moralOther moralOther match n n 1 0.5695 
03-Jun-2018_13:55:01 Exp 7339 18 male R 1 2 5 moralSelf moralSelf match n n 1 0.5269 
03-Jun-2018_13:55:03 Exp 7339 18 male R 1 2 6 moralSelf moralOther mismatch m m 1 0.6553 
03-Jun-2018_13:55:05 Exp 7339 18 male R 1 2 7 moralOther moralSelf mismatch m n 0 0.5622 
03-Jun-2018_13:55:08 Exp 7339 18 male R 1 2 8 immoralOther moralOther mismatch m m 1 0.7595 
03-Jun-2018_13:55:10 Exp 7339 18 male R 1 2 9 moralSelf moralOther mismatch m n 0 1.0245 
03-Jun-2018_13:55:12 Exp 7339 18 male R 1 2 10 immoralOther immoralOther match n n 1 0.7230 
03-Jun-2018_13:55:15 Exp 7339 18 male R 1 2 11 immoralSelf moralOther mismatch m m 1 0.8313 
03-Jun-2018_13:55:17 Exp 7339 18 male R 1 2 12 immoralSelf moralOther mismatch m m 1 0.5777 
03-Jun-2018_13:55:19 Exp 7339 18 male R 1 2 13 moralOther immoralOther mismatch m n 0 0.8273 
03-Jun-2018_13:55:21 Exp 7339 18 male R 1 2 14 immoralSelf immoralSelf match n n 1 0.7257 
03-Jun-2018_13:55:24 Exp 7339 18 male R 1 2 15 moralSelf moralSelf match n n 1 0.6581 
03-Jun-2018_13:55:26 Exp 7339 18 male R 1 2 16 immoralSelf immoralSelf match n n 1 0.6091 
03-Jun-2018_13:55:28 Exp 7339 18 male R 1 2 17 immoralOther immoralOther match n m 0 0.8713 
03-Jun-2018_13:55:30 Exp 7339 18 male R 1 2 18 immoralOther immoralOther match n n 1 0.7627 
03-Jun-2018_13:55:32 Exp 7339 18 male R 1 2 19 immoralOther immoralSelf mismatch m m 1 0.6000 
03-Jun-2018_13:55:35 Exp 7339 18 male R 1 2 20 immoralOther moralOther mismatch m m 1 0.7139 
03-Jun-2018_13:55:37 Exp 7339 18 male R 1 2 21 immoralSelf immoralSelf match n n 1 0.6501 
03-Jun-2018_13:55:39 Exp 7339 18 male R 1 2 22 moralOther moralOther match n n 1 0.8610 
03-Jun-2018_13:55:41 Exp 7339 18 male R 1 2 23 moralSelf immoralSelf mismatch m m 1 0.7241 
03-Jun-2018_13:55:44 Exp 7339 18 male R 1 2 24 immoralSelf moralOther mismatch m m 1 0.9204 
03-Jun-2018_13:55:46 Exp 7339 18 male R 1 3 1 immoralSelf moralSelf mismatch m m 1 0.7888 
03-Jun-2018_13:55:48 Exp 7339 18 male R 1 3 2 moralSelf moralSelf match n n 1 0.6425 
03-Jun-2018_13:55:50 Exp 7339 18 male R 1 3 3 immoralOther moralSelf mismatch m m 1 0.6652 
03-Jun-2018_13:55:53 Exp 7339 18 male R 1 3 4 moralOther immoralOther mismatch m n 0 0.8163 
03-Jun-2018_13:55:55 Exp 7339 18 male R 1 3 5 immoralSelf immoralSelf match n n 1 0.9265 
03-Jun-2018_13:55:57 Exp 7339 18 male R 1 3 6 moralOther moralOther match n m 0 0.7912 
03-Jun-2018_13:56:00 Exp 7339 18 male R 1 3 7 immoralOther immoralOther match n n 1 0.7968 
03-Jun-2018_13:56:02 Exp 7339 18 male R 1 3 8 moralSelf moralOther mismatch m m 1 0.9945 
03-Jun-2018_13:56:04 Exp 7339 18 male R 1 3 9 immoralSelf immoralSelf match n n 1 0.6804 
03-Jun-2018_13:56:07 Exp 7339 18 male R 1 3 10 moralSelf moralOther mismatch m m 1 0.9520 
03-Jun-2018_13:56:09 Exp 7339 18 male R 1 3 11 moralSelf moralSelf match n n 1 0.6250 
03-Jun-2018_13:56:11 Exp 7339 18 male R 1 3 12 moralSelf moralSelf match n n 1 0.7234 
03-Jun-2018_13:56:13 Exp 7339 18 male R 1 3 13 moralSelf moralOther mismatch m m 1 0.6640 
03-Jun-2018_13:56:15 Exp 7339 18 male R 1 3 14 immoralOther moralOther mismatch m m 1 0.7669 
03-Jun-2018_13:56:18 Exp 7339 18 male R 1 3 15 immoralOther immoralOther match n n 1 0.7242 
03-Jun-2018_13:56:20 Exp 7339 18 male R 1 3 16 immoralSelf moralOther mismatch m m 1 0.6645 
03-Jun-2018_13:56:22 Exp 7339 18 male R 1 3 17 immoralSelf immoralOther mismatch m m 1 0.8957 
03-Jun-2018_13:56:24 Exp 7339 18 male R 1 3 18 immoralOther moralSelf mismatch m m 1 0.7235 
03-Jun-2018_13:56:27 Exp 7339 18 male R 1 3 19 immoralOther immoralOther match n n 1 1.0638 
03-Jun-2018_13:56:29 Exp 7339 18 male R 1 3 20 moralOther immoralSelf mismatch m m 1 1.0310 
03-Jun-2018_13:56:32 Exp 7339 18 male R 1 3 21 moralOther moralOther match n n 1 0.7055 
03-Jun-2018_13:56:34 Exp 7339 18 male R 1 3 22 moralOther moralOther match n n 1 0.6176 
03-Jun-2018_13:56:36 Exp 7339 18 male R 1 3 23 immoralSelf immoralSelf match n n 1 0.6078 
03-Jun-2018_13:56:38 Exp 7339 18 male R 1 3 24 moralOther immoralSelf mismatch m m 1 0.6816 
03-Jun-2018_13:57:01 Exp 7339 18 male R 1 4 1 moralSelf moralSelf match n n 1 0.5975 
03-Jun-2018_13:57:03 Exp 7339 18 male R 1 4 2 immoralSelf immoralSelf match n n 1 0.5434 
03-Jun-2018_13:57:05 Exp 7339 18 male R 1 4 3 moralOther moralSelf mismatch m m 1 0.6763 
03-Jun-2018_13:57:08 Exp 7339 18 male R 1 4 4 moralSelf immoralOther mismatch m m 1 0.7996 
03-Jun-2018_13:57:10 Exp 7339 18 male R 1 4 5 immoralSelf immoralSelf match n n 1 0.5696 
03-Jun-2018_13:57:12 Exp 7339 18 male R 1 4 6 immoralSelf immoralSelf match n n 1 0.8388 
03-Jun-2018_13:57:14 Exp 7339 18 male R 1 4 7 moralSelf moralSelf match n n 1 0.5654 
03-Jun-2018_13:57:16 Exp 7339 18 male R 1 4 8 immoralSelf immoralOther mismatch m m 1 0.6668 
03-Jun-2018_13:57:18 Exp 7339 18 male R 1 4 9 immoralSelf moralSelf mismatch m n 0 0.4899 
03-Jun-2018_13:57:21 Exp 7339 18 male R 1 4 10 immoralOther moralOther mismatch m m 1 0.7775 
03-Jun-2018_13:57:23 Exp 7339 18 male R 1 4 11 immoralOther immoralOther match n n 1 0.8911 
03-Jun-2018_13:57:25 Exp 7339 18 male R 1 4 12 immoralOther immoralSelf mismatch m m 1 0.8389 
03-Jun-2018_13:57:28 Exp 7339 18 male R 1 4 13 moralOther moralOther match n n 1 0.8856 
03-Jun-2018_13:57:30 Exp 7339 18 male R 1 4 14 moralSelf immoralOther mismatch m m 1 0.6132 
03-Jun-2018_13:57:32 Exp 7339 18 male R 1 4 15 moralOther moralSelf mismatch m NA -1 1.1191 
03-Jun-2018_13:57:35 Exp 7339 18 male R 1 4 16 immoralSelf immoralOther mismatch m m 1 0.6797 
03-Jun-2018_13:57:37 Exp 7339 18 male R 1 4 17 immoralOther immoralOther match n n 1 0.8474 
03-Jun-2018_13:57:39 Exp 7339 18 male R 1 4 18 immoralOther immoralOther match n n 1 0.5223 
03-Jun-2018_13:57:41 Exp 7339 18 male R 1 4 19 moralSelf moralOther mismatch m m 1 0.7746 
03-Jun-2018_13:57:44 Exp 7339 18 male R 1 4 20 moralOther moralOther match n n 1 0.9121 
03-Jun-2018_13:57:46 Exp 7339 18 male R 1 4 21 moralSelf moralSelf match n n 1 0.9281 
03-Jun-2018_13:57:48 Exp 7339 18 male R 1 4 22 immoralOther moralSelf mismatch m m 1 0.8168 
03-Jun-2018_13:57:51 Exp 7339 18 male R 1 4 23 moralOther moralSelf mismatch m m 1 0.8390 
03-Jun-2018_13:57:53 Exp 7339 18 male R 1 4 24 moralOther moralOther match n n 1 0.7417 
03-Jun-2018_13:57:55 Exp 7339 18 male R 1 5 1 immoralSelf immoralOther mismatch m m 1 1.0184 
03-Jun-2018_13:57:58 Exp 7339 18 male R 1 5 2 immoralOther immoralOther match n m 0 0.9126 
03-Jun-2018_13:58:00 Exp 7339 18 male R 1 5 3 immoralSelf immoralSelf match n n 1 0.6487 
03-Jun-2018_13:58:02 Exp 7339 18 male R 1 5 4 moralOther moralOther match n n 1 0.8116 
03-Jun-2018_13:58:05 Exp 7339 18 male R 1 5 5 immoralOther immoralSelf mismatch m m 1 1.0019 
03-Jun-2018_13:58:07 Exp 7339 18 male R 1 5 6 moralOther moralSelf mismatch m m 1 0.7638 
03-Jun-2018_13:58:09 Exp 7339 18 male R 1 5 7 moralSelf moralSelf match n n 1 0.5771 
03-Jun-2018_13:58:11 Exp 7339 18 male R 1 5 8 immoralOther immoralOther match n n 1 0.7707 
03-Jun-2018_13:58:14 Exp 7339 18 male R 1 5 9 moralOther moralOther match n m 0 0.8319 
03-Jun-2018_13:58:16 Exp 7339 18 male R 1 5 10 moralSelf immoralSelf mismatch m m 1 1.0023 
03-Jun-2018_13:58:18 Exp 7339 18 male R 1 5 11 moralSelf moralOther mismatch m m 1 0.8603 
03-Jun-2018_13:58:21 Exp 7339 18 male R 1 5 12 immoralSelf immoralSelf match n n 1 0.7954 
03-Jun-2018_13:58:23 Exp 7339 18 male R 1 5 13 immoralOther immoralSelf mismatch m m 1 1.0731 
03-Jun-2018_13:58:26 Exp 7339 18 male R 1 5 14 immoralOther moralOther mismatch m m 1 0.8604 
03-Jun-2018_13:58:28 Exp 7339 18 male R 1 5 15 moralSelf immoralSelf mismatch m m 1 0.9557 
03-Jun-2018_13:58:30 Exp 7339 18 male R 1 5 16 immoralSelf immoralSelf match n n 1 0.5728 
03-Jun-2018_13:58:32 Exp 7339 18 male R 1 5 17 moralOther moralOther match n n 1 0.6820 
03-Jun-2018_13:58:35 Exp 7339 18 male R 1 5 18 immoralSelf moralOther mismatch m m 1 0.7296 
03-Jun-2018_13:58:37 Exp 7339 18 male R 1 5 19 moralSelf moralSelf match n n 1 0.6342 
03-Jun-2018_13:58:39 Exp 7339 18 male R 1 5 20 immoralOther immoralOther match n n 1 0.8489 
03-Jun-2018_13:58:41 Exp 7339 18 male R 1 5 21 moralOther moralSelf mismatch m m 1 0.7637 
03-Jun-2018_13:58:44 Exp 7339 18 male R 1 5 22 moralOther immoralSelf mismatch m NA -1 1.1191 
03-Jun-2018_13:58:46 Exp 7339 18 male R 1 5 23 moralSelf moralSelf match n n 1 0.5254 
03-Jun-2018_13:58:48 Exp 7339 18 male R 1 5 24 immoralSelf immoralOther mismatch m m 1 0.5937 
03-Jun-2018_13:58:54 Exp 7339 18 male R 2 1 1 moralOther immoralOther mismatch m NA -1 1.1191 
03-Jun-2018_13:58:56 Exp 7339 18 male R 2 1 2 immoralOther moralSelf mismatch m m 1 0.8523 
03-Jun-2018_13:58:58 Exp 7339 18 male R 2 1 3 immoralSelf immoralSelf match n n 1 0.5993 
03-Jun-2018_13:59:00 Exp 7339 18 male R 2 1 4 immoralSelf moralOther mismatch m m 1 0.7531 
03-Jun-2018_13:59:03 Exp 7339 18 male R 2 1 5 moralOther moralOther match n n 1 0.8343 
03-Jun-2018_13:59:05 Exp 7339 18 male R 2 1 6 moralOther immoralSelf mismatch m m 1 0.7849 
03-Jun-2018_13:59:07 Exp 7339 18 male R 2 1 7 immoralSelf immoralSelf match n n 1 0.5864 
03-Jun-2018_13:59:09 Exp 7339 18 male R 2 1 8 moralSelf moralOther mismatch m m 1 0.8722 
03-Jun-2018_13:59:11 Exp 7339 18 male R 2 1 9 moralSelf moralSelf match n n 1 0.4996 
03-Jun-2018_13:59:13 Exp 7339 18 male R 2 1 10 immoralOther immoralSelf mismatch m m 1 0.5435 
03-Jun-2018_13:59:16 Exp 7339 18 male R 2 1 11 immoralSelf moralSelf mismatch m m 1 0.8602 
03-Jun-2018_13:59:18 Exp 7339 18 male R 2 1 12 moralSelf moralSelf match n m 0 0.7394 
03-Jun-2018_13:59:20 Exp 7339 18 male R 2 1 13 immoralOther immoralOther match n n 1 0.6722 
03-Jun-2018_13:59:22 Exp 7339 18 male R 2 1 14 moralSelf moralSelf match n n 1 0.4675 
03-Jun-2018_13:59:24 Exp 7339 18 male R 2 1 15 immoralSelf immoralSelf match n n 1 0.5947 
03-Jun-2018_13:59:26 Exp 7339 18 male R 2 1 16 immoralSelf immoralOther mismatch m m 1 0.6964 
03-Jun-2018_13:59:29 Exp 7339 18 male R 2 1 17 moralOther immoralOther mismatch m m 1 1.0523 
03-Jun-2018_13:59:31 Exp 7339 18 male R 2 1 18 moralSelf moralOther mismatch m m 1 0.7352 
03-Jun-2018_13:59:33 Exp 7339 18 male R 2 1 19 immoralOther moralOther mismatch m m 1 0.6317 
03-Jun-2018_13:59:35 Exp 7339 18 male R 2 1 20 moralOther moralOther match n m 0 0.7141 
03-Jun-2018_13:59:37 Exp 7339 18 male R 2 1 21 moralOther moralOther match n n 1 0.4823 
03-Jun-2018_13:59:40 Exp 7339 18 male R 2 1 22 immoralOther immoralOther match n m 0 0.6820 
03-Jun-2018_13:59:42 Exp 7339 18 male R 2 1 23 immoralOther immoralOther match n n 1 0.4976 
03-Jun-2018_13:59:44 Exp 7339 18 male R 2 1 24 moralSelf immoralOther mismatch m m 1 0.6373 
03-Jun-2018_13:59:46 Exp 7339 18 male R 2 2 1 immoralOther moralOther mismatch m m 1 0.6361 
03-Jun-2018_13:59:48 Exp 7339 18 male R 2 2 2 moralSelf moralOther mismatch m m 1 0.6907 
03-Jun-2018_13:59:50 Exp 7339 18 male R 2 2 3 moralOther moralOther match n m 0 0.8983 
03-Jun-2018_13:59:53 Exp 7339 18 male R 2 2 4 immoralSelf immoralSelf match n n 1 0.8862 
03-Jun-2018_13:59:55 Exp 7339 18 male R 2 2 5 immoralOther immoralOther match n n 1 0.6698 
03-Jun-2018_13:59:57 Exp 7339 18 male R 2 2 6 immoralOther immoralSelf mismatch m m 1 0.7211 
03-Jun-2018_13:59:59 Exp 7339 18 male R 2 2 7 moralSelf immoralOther mismatch m m 1 0.5814 
03-Jun-2018_14:00:02 Exp 7339 18 male R 2 2 8 moralSelf moralSelf match n n 1 0.8549 
03-Jun-2018_14:00:04 Exp 7339 18 male R 2 2 9 immoralSelf immoralSelf match n n 1 0.8659 
03-Jun-2018_14:00:06 Exp 7339 18 male R 2 2 10 immoralOther immoralOther match n n 1 1.0171 
03-Jun-2018_14:00:09 Exp 7339 18 male R 2 2 11 moralOther moralOther match n n 1 0.5833 
03-Jun-2018_14:00:11 Exp 7339 18 male R 2 2 12 moralOther moralOther match n n 1 0.4888 
03-Jun-2018_14:00:13 Exp 7339 18 male R 2 2 13 immoralOther immoralOther match n n 1 0.6964 
03-Jun-2018_14:00:15 Exp 7339 18 male R 2 2 14 immoralOther immoralSelf mismatch m m 1 0.7162 
03-Jun-2018_14:00:17 Exp 7339 18 male R 2 2 15 immoralSelf moralSelf mismatch m n 0 0.6245 
03-Jun-2018_14:00:19 Exp 7339 18 male R 2 2 16 moralSelf moralSelf match n n 1 0.4270 
03-Jun-2018_14:00:21 Exp 7339 18 male R 2 2 17 immoralSelf immoralSelf match n n 1 0.6375 
03-Jun-2018_14:00:23 Exp 7339 18 male R 2 2 18 immoralSelf moralOther mismatch m m 1 0.8841 
03-Jun-2018_14:00:26 Exp 7339 18 male R 2 2 19 moralOther immoralOther mismatch m m 1 0.8117 
03-Jun-2018_14:00:28 Exp 7339 18 male R 2 2 20 moralSelf moralSelf match n n 1 0.6339 
03-Jun-2018_14:00:30 Exp 7339 18 male R 2 2 21 immoralSelf immoralOther mismatch m m 1 0.6327 
03-Jun-2018_14:00:33 Exp 7339 18 male R 2 2 22 moralOther immoralSelf mismatch m m 1 1.0393 
03-Jun-2018_14:00:35 Exp 7339 18 male R 2 2 23 moralOther immoralOther mismatch m m 1 0.8140 
03-Jun-2018_14:00:37 Exp 7339 18 male R 2 2 24 moralSelf immoralSelf mismatch m m 1 0.7482 
03-Jun-2018_14:00:39 Exp 7339 18 male R 2 3 1 moralSelf moralSelf match n n 1 0.5690 
03-Jun-2018_14:00:41 Exp 7339 18 male R 2 3 2 moralSelf moralSelf match n n 1 0.5423 
03-Jun-2018_14:00:44 Exp 7339 18 male R 2 3 3 moralSelf moralOther mismatch m m 1 0.9470 
03-Jun-2018_14:00:46 Exp 7339 18 male R 2 3 4 immoralSelf immoralSelf match n m 0 0.7038 
03-Jun-2018_14:00:48 Exp 7339 18 male R 2 3 5 immoralOther immoralOther match n n 1 0.6960 
03-Jun-2018_14:00:50 Exp 7339 18 male R 2 3 6 immoralOther immoralOther match n n 1 0.8358 
03-Jun-2018_14:00:53 Exp 7339 18 male R 2 3 7 immoralOther moralOther mismatch m m 1 0.8664 
03-Jun-2018_14:00:55 Exp 7339 18 male R 2 3 8 moralOther immoralOther mismatch m NA -1 1.1191 
03-Jun-2018_14:00:58 Exp 7339 18 male R 2 3 9 moralOther immoralOther mismatch m m 1 0.8539 
03-Jun-2018_14:01:00 Exp 7339 18 male R 2 3 10 immoralSelf moralOther mismatch m m 1 0.7769 
03-Jun-2018_14:01:02 Exp 7339 18 male R 2 3 11 immoralSelf immoralSelf match n n 1 0.8024 
03-Jun-2018_14:01:05 Exp 7339 18 male R 2 3 12 moralOther moralOther match n n 1 0.9483 
03-Jun-2018_14:01:07 Exp 7339 18 male R 2 3 13 immoralSelf moralOther mismatch m m 1 0.7131 
03-Jun-2018_14:01:09 Exp 7339 18 male R 2 3 14 moralSelf immoralSelf mismatch m m 1 0.8812 
03-Jun-2018_14:01:12 Exp 7339 18 male R 2 3 15 immoralSelf immoralSelf match n n 1 0.9608 
03-Jun-2018_14:01:14 Exp 7339 18 male R 2 3 16 immoralOther moralSelf mismatch m m 1 0.7858 
03-Jun-2018_14:01:16 Exp 7339 18 male R 2 3 17 immoralOther immoralSelf mismatch m m 1 0.5916 
03-Jun-2018_14:01:18 Exp 7339 18 male R 2 3 18 moralOther immoralSelf mismatch m m 1 0.8213 
03-Jun-2018_14:01:21 Exp 7339 18 male R 2 3 19 moralOther moralOther match n n 1 0.7918 
03-Jun-2018_14:01:23 Exp 7339 18 male R 2 3 20 moralSelf immoralOther mismatch m m 1 0.6615 
03-Jun-2018_14:01:25 Exp 7339 18 male R 2 3 21 moralSelf moralSelf match n m 0 0.8526 
03-Jun-2018_14:01:27 Exp 7339 18 male R 2 3 22 immoralSelf moralSelf mismatch m m 1 0.6317 
03-Jun-2018_14:01:29 Exp 7339 18 male R 2 3 23 immoralOther immoralOther match n n 1 0.6820 
03-Jun-2018_14:01:32 Exp 7339 18 male R 2 3 24 moralOther moralOther match n n 1 0.6896 
03-Jun-2018_14:01:55 Exp 7339 18 male R 2 4 1 immoralOther moralOther mismatch m m 1 0.9023 
03-Jun-2018_14:01:57 Exp 7339 18 male R 2 4 2 moralOther moralSelf mismatch m m 1 0.8341 
03-Jun-2018_14:01:59 Exp 7339 18 male R 2 4 3 immoralOther immoralOther match n n 1 0.7129 
03-Jun-2018_14:02:01 Exp 7339 18 male R 2 4 4 immoralOther immoralOther match n n 1 0.6809 
03-Jun-2018_14:02:04 Exp 7339 18 male R 2 4 5 moralOther immoralSelf mismatch m m 1 0.5925 
03-Jun-2018_14:02:06 Exp 7339 18 male R 2 4 6 immoralSelf immoralSelf match n m 0 0.6542 
03-Jun-2018_14:02:08 Exp 7339 18 male R 2 4 7 moralOther moralOther match n m 0 0.6733 
03-Jun-2018_14:02:10 Exp 7339 18 male R 2 4 8 moralSelf moralSelf match n n 1 0.9165 
03-Jun-2018_14:02:12 Exp 7339 18 male R 2 4 9 immoralSelf immoralSelf match n n 1 0.5850 
03-Jun-2018_14:02:15 Exp 7339 18 male R 2 4 10 moralOther immoralOther mismatch m m 1 0.8344 
03-Jun-2018_14:02:17 Exp 7339 18 male R 2 4 11 immoralSelf moralSelf mismatch m n 0 0.6331 
03-Jun-2018_14:02:19 Exp 7339 18 male R 2 4 12 moralOther moralOther match n n 1 0.8797 
03-Jun-2018_14:02:22 Exp 7339 18 male R 2 4 13 immoralOther immoralOther match n n 1 0.8553 
03-Jun-2018_14:02:24 Exp 7339 18 male R 2 4 14 moralOther moralOther match n n 1 0.5623 
03-Jun-2018_14:02:26 Exp 7339 18 male R 2 4 15 moralSelf immoralSelf mismatch m m 1 0.7516 
03-Jun-2018_14:02:28 Exp 7339 18 male R 2 4 16 moralSelf moralSelf match n n 1 0.5925 
03-Jun-2018_14:02:30 Exp 7339 18 male R 2 4 17 moralSelf moralSelf match n n 1 0.4787 
03-Jun-2018_14:02:32 Exp 7339 18 male R 2 4 18 immoralSelf immoralSelf match n n 1 0.5420 
03-Jun-2018_14:02:34 Exp 7339 18 male R 2 4 19 immoralOther moralOther mismatch m m 1 0.8268 
03-Jun-2018_14:02:36 Exp 7339 18 male R 2 4 20 immoralSelf moralSelf mismatch m n 0 0.5891 
03-Jun-2018_14:02:39 Exp 7339 18 male R 2 4 21 immoralSelf moralOther mismatch m m 1 0.7628 
03-Jun-2018_14:02:41 Exp 7339 18 male R 2 4 22 moralSelf immoralSelf mismatch m m 1 1.0481 
03-Jun-2018_14:02:44 Exp 7339 18 male R 2 4 23 moralSelf immoralOther mismatch m m 1 0.9071 
03-Jun-2018_14:02:46 Exp 7339 18 male R 2 4 24 immoralOther moralOther mismatch m m 1 0.7791 
03-Jun-2018_14:02:48 Exp 7339 18 male R 2 5 1 moralSelf moralOther mismatch m n 0 0.8206 
03-Jun-2018_14:02:50 Exp 7339 18 male R 2 5 2 moralOther moralSelf mismatch m m 1 0.7351 
03-Jun-2018_14:02:53 Exp 7339 18 male R 2 5 3 immoralSelf moralSelf mismatch m m 1 0.7677 
03-Jun-2018_14:02:55 Exp 7339 18 male R 2 5 4 immoralSelf moralOther mismatch m m 1 0.9889 
03-Jun-2018_14:02:57 Exp 7339 18 male R 2 5 5 immoralOther immoralOther match n m 0 0.6667 
03-Jun-2018_14:02:59 Exp 7339 18 male R 2 5 6 immoralOther moralSelf mismatch m m 1 0.6258 
03-Jun-2018_14:03:02 Exp 7339 18 male R 2 5 7 immoralSelf immoralSelf match n n 1 1.0362 
03-Jun-2018_14:03:04 Exp 7339 18 male R 2 5 8 immoralSelf immoralSelf match n m 0 0.6269 
03-Jun-2018_14:03:06 Exp 7339 18 male R 2 5 9 moralSelf moralSelf match n n 1 0.5815 
03-Jun-2018_14:03:09 Exp 7339 18 male R 2 5 10 moralSelf immoralSelf mismatch m m 1 0.9508 
03-Jun-2018_14:03:11 Exp 7339 18 male R 2 5 11 moralOther moralOther match n n 1 0.6639 
03-Jun-2018_14:03:13 Exp 7339 18 male R 2 5 12 immoralOther moralSelf mismatch m m 1 0.7351 
03-Jun-2018_14:03:15 Exp 7339 18 male R 2 5 13 immoralSelf immoralSelf match n n 1 0.8477 
03-Jun-2018_14:03:18 Exp 7339 18 male R 2 5 14 immoralOther immoralOther match n n 1 0.8025 
03-Jun-2018_14:03:20 Exp 7339 18 male R 2 5 15 moralOther moralOther match n n 1 0.7485 
03-Jun-2018_14:03:22 Exp 7339 18 male R 2 5 16 immoralOther immoralOther match n n 1 0.9133 
03-Jun-2018_14:03:24 Exp 7339 18 male R 2 5 17 moralSelf moralSelf match n n 1 0.5934 
03-Jun-2018_14:03:27 Exp 7339 18 male R 2 5 18 immoralSelf moralOther mismatch m m 1 0.8711 
03-Jun-2018_14:03:29 Exp 7339 18 male R 2 5 19 moralSelf immoralOther mismatch m m 1 0.7785 
03-Jun-2018_14:03:31 Exp 7339 18 male R 2 5 20 moralSelf moralSelf match n n 1 0.7080 
03-Jun-2018_14:03:33 Exp 7339 18 male R 2 5 21 moralOther immoralOther mismatch m m 1 0.7481 
03-Jun-2018_14:03:36 Exp 7339 18 male R 2 5 22 immoralOther immoralSelf mismatch m m 1 0.9449 
03-Jun-2018_14:03:38 Exp 7339 18 male R 2 5 23 moralOther immoralSelf mismatch m m 1 0.6217 
03-Jun-2018_14:03:40 Exp 7339 18 male R 2 5 24 moralOther moralOther match n n 1 0.7041 
03-Jun-2018_14:03:45 Exp 7339 18 male R 3 1 1 moralSelf immoralSelf mismatch m m 1 0.6888 
03-Jun-2018_14:03:48 Exp 7339 18 male R 3 1 2 moralSelf moralOther mismatch m n 0 0.9605 
03-Jun-2018_14:03:50 Exp 7339 18 male R 3 1 3 moralSelf moralSelf match n n 1 0.6414 
03-Jun-2018_14:03:52 Exp 7339 18 male R 3 1 4 immoralSelf immoralSelf match n NA -1 1.1191 
03-Jun-2018_14:03:55 Exp 7339 18 male R 3 1 5 immoralOther immoralOther match n n 1 0.7244 
03-Jun-2018_14:03:57 Exp 7339 18 male R 3 1 6 moralOther moralOther match n n 1 0.7368 
03-Jun-2018_14:03:59 Exp 7339 18 male R 3 1 7 moralSelf immoralSelf mismatch m m 1 1.0893 
03-Jun-2018_14:04:02 Exp 7339 18 male R 3 1 8 immoralOther immoralSelf mismatch m m 1 0.7770 
03-Jun-2018_14:04:04 Exp 7339 18 male R 3 1 9 immoralSelf immoralSelf match n n 1 0.7705 
03-Jun-2018_14:04:06 Exp 7339 18 male R 3 1 10 moralOther moralOther match n n 1 0.6317 
03-Jun-2018_14:04:08 Exp 7339 18 male R 3 1 11 immoralSelf immoralSelf match n n 1 0.6502 
03-Jun-2018_14:04:11 Exp 7339 18 male R 3 1 12 immoralSelf immoralOther mismatch m m 1 0.8051 
03-Jun-2018_14:04:13 Exp 7339 18 male R 3 1 13 immoralSelf immoralOther mismatch m m 1 1.0230 
03-Jun-2018_14:04:15 Exp 7339 18 male R 3 1 14 moralSelf moralSelf match n n 1 0.7536 
03-Jun-2018_14:04:18 Exp 7339 18 male R 3 1 15 moralOther moralSelf mismatch m m 1 0.7145 
03-Jun-2018_14:04:20 Exp 7339 18 male R 3 1 16 moralSelf moralSelf match n n 1 0.6907 
03-Jun-2018_14:04:22 Exp 7339 18 male R 3 1 17 immoralOther moralSelf mismatch m m 1 0.6742 
03-Jun-2018_14:04:24 Exp 7339 18 male R 3 1 18 immoralOther immoralOther match n m 0 0.6376 
03-Jun-2018_14:04:26 Exp 7339 18 male R 3 1 19 moralOther immoralOther mismatch m m 1 0.8922 
03-Jun-2018_14:04:28 Exp 7339 18 male R 3 1 20 immoralOther immoralOther match n n 1 0.6001 
03-Jun-2018_14:04:31 Exp 7339 18 male R 3 1 21 immoralOther moralSelf mismatch m m 1 0.7221 
03-Jun-2018_14:04:33 Exp 7339 18 male R 3 1 22 moralOther immoralOther mismatch m m 1 0.6944 
03-Jun-2018_14:04:35 Exp 7339 18 male R 3 1 23 immoralSelf immoralOther mismatch m m 1 0.5143 
03-Jun-2018_14:04:37 Exp 7339 18 male R 3 1 24 moralOther moralOther match n n 1 0.6825 
03-Jun-2018_14:04:39 Exp 7339 18 male R 3 2 1 immoralOther immoralOther match n m 0 0.7060 
03-Jun-2018_14:04:41 Exp 7339 18 male R 3 2 2 immoralOther moralSelf mismatch m m 1 0.5780 
03-Jun-2018_14:04:43 Exp 7339 18 male R 3 2 3 moralSelf moralSelf match n n 1 0.5956 
03-Jun-2018_14:04:46 Exp 7339 18 male R 3 2 4 moralSelf immoralSelf mismatch m m 1 0.7053 
03-Jun-2018_14:04:48 Exp 7339 18 male R 3 2 5 immoralOther moralSelf mismatch m m 1 0.9054 
03-Jun-2018_14:04:50 Exp 7339 18 male R 3 2 6 moralSelf moralSelf match n n 1 0.6335 
03-Jun-2018_14:04:52 Exp 7339 18 male R 3 2 7 immoralSelf moralSelf mismatch m m 1 0.6721 
03-Jun-2018_14:04:55 Exp 7339 18 male R 3 2 8 immoralOther immoralOther match n m 0 0.8355 
03-Jun-2018_14:04:57 Exp 7339 18 male R 3 2 9 immoralSelf immoralSelf match n m 0 0.6822 
03-Jun-2018_14:04:59 Exp 7339 18 male R 3 2 10 moralOther moralOther match n n 1 0.6099 
03-Jun-2018_14:05:01 Exp 7339 18 male R 3 2 11 moralOther immoralSelf mismatch m m 1 0.8240 
03-Jun-2018_14:05:03 Exp 7339 18 male R 3 2 12 immoralSelf immoralOther mismatch m m 1 0.7625 
03-Jun-2018_14:05:06 Exp 7339 18 male R 3 2 13 moralOther moralOther match n m 0 0.7517 
03-Jun-2018_14:05:08 Exp 7339 18 male R 3 2 14 immoralSelf immoralSelf match n n 1 0.7369 
03-Jun-2018_14:05:10 Exp 7339 18 male R 3 2 15 moralOther moralSelf mismatch m m 1 0.6734 
03-Jun-2018_14:05:13 Exp 7339 18 male R 3 2 16 immoralOther immoralOther match n n 1 0.9007 
03-Jun-2018_14:05:15 Exp 7339 18 male R 3 2 17 moralOther moralOther match n n 1 0.6646 
03-Jun-2018_14:05:17 Exp 7339 18 male R 3 2 18 immoralOther immoralSelf mismatch m m 1 0.8557 
03-Jun-2018_14:05:19 Exp 7339 18 male R 3 2 19 immoralSelf immoralSelf match n n 1 0.8186 
03-Jun-2018_14:05:21 Exp 7339 18 male R 3 2 20 moralSelf moralSelf match n n 1 0.5928 
03-Jun-2018_14:05:24 Exp 7339 18 male R 3 2 21 moralSelf immoralSelf mismatch m m 1 0.9346 
03-Jun-2018_14:05:26 Exp 7339 18 male R 3 2 22 moralSelf immoralOther mismatch m m 1 0.8231 
03-Jun-2018_14:05:29 Exp 7339 18 male R 3 2 23 immoralSelf moralOther mismatch m m 1 1.0096 
03-Jun-2018_14:05:31 Exp 7339 18 male R 3 2 24 moralOther immoralOther mismatch m m 1 0.7598 
03-Jun-2018_14:05:33 Exp 7339 18 male R 3 3 1 immoralSelf immoralSelf match n n 1 0.7608 
03-Jun-2018_14:05:35 Exp 7339 18 male R 3 3 2 immoralOther immoralOther match n n 1 0.7138 
03-Jun-2018_14:05:37 Exp 7339 18 male R 3 3 3 moralSelf moralSelf match n n 1 0.6099 
03-Jun-2018_14:05:40 Exp 7339 18 male R 3 3 4 immoralOther immoralOther match n n 1 0.7362 
03-Jun-2018_14:05:42 Exp 7339 18 male R 3 3 5 immoralOther moralSelf mismatch m m 1 0.6487 
03-Jun-2018_14:05:44 Exp 7339 18 male R 3 3 6 moralOther moralOther match n n 1 0.7556 
03-Jun-2018_14:05:46 Exp 7339 18 male R 3 3 7 immoralOther immoralOther match n n 1 0.6606 
03-Jun-2018_14:05:48 Exp 7339 18 male R 3 3 8 immoralSelf immoralSelf match n n 1 0.6358 
03-Jun-2018_14:05:51 Exp 7339 18 male R 3 3 9 moralOther immoralOther mismatch m m 1 0.7145 
03-Jun-2018_14:05:53 Exp 7339 18 male R 3 3 10 moralSelf moralSelf match n n 1 0.6506 
03-Jun-2018_14:05:55 Exp 7339 18 male R 3 3 11 moralOther moralOther match n n 1 0.7895 
03-Jun-2018_14:05:57 Exp 7339 18 male R 3 3 12 immoralSelf moralSelf mismatch m m 1 0.6032 
03-Jun-2018_14:05:59 Exp 7339 18 male R 3 3 13 immoralOther moralOther mismatch m m 1 0.6931 
03-Jun-2018_14:06:02 Exp 7339 18 male R 3 3 14 moralOther moralOther match n n 1 0.8250 
03-Jun-2018_14:06:04 Exp 7339 18 male R 3 3 15 moralOther immoralOther mismatch m m 1 0.6674 
03-Jun-2018_14:06:06 Exp 7339 18 male R 3 3 16 immoralSelf moralSelf mismatch m m 1 0.8666 
03-Jun-2018_14:06:08 Exp 7339 18 male R 3 3 17 moralSelf immoralSelf mismatch m n 0 0.6498 
03-Jun-2018_14:06:10 Exp 7339 18 male R 3 3 18 moralSelf moralSelf match n n 1 0.7007 
03-Jun-2018_14:06:12 Exp 7339 18 male R 3 3 19 immoralOther moralOther mismatch m m 1 0.6165 
03-Jun-2018_14:06:15 Exp 7339 18 male R 3 3 20 moralSelf immoralSelf mismatch m m 1 0.7587 
03-Jun-2018_14:06:17 Exp 7339 18 male R 3 3 21 moralOther immoralOther mismatch m n 0 0.7037 
03-Jun-2018_14:06:19 Exp 7339 18 male R 3 3 22 immoralSelf immoralOther mismatch m m 1 0.7439 
03-Jun-2018_14:06:21 Exp 7339 18 male R 3 3 23 moralSelf immoralSelf mismatch m m 1 0.6686 
03-Jun-2018_14:06:24 Exp 7339 18 male R 3 3 24 immoralSelf immoralSelf match n n 1 0.6800 
03-Jun-2018_14:06:41 Exp 7339 18 male R 3 4 1 immoralSelf moralOther mismatch m m 1 0.7028 
03-Jun-2018_14:06:43 Exp 7339 18 male R 3 4 2 moralSelf moralSelf match n n 1 0.5750 
03-Jun-2018_14:06:45 Exp 7339 18 male R 3 4 3 moralSelf immoralOther mismatch m m 1 0.5764 
03-Jun-2018_14:06:47 Exp 7339 18 male R 3 4 4 immoralOther immoralOther match n n 1 0.7059 
03-Jun-2018_14:06:49 Exp 7339 18 male R 3 4 5 moralSelf immoralOther mismatch m m 1 0.6019 
03-Jun-2018_14:06:52 Exp 7339 18 male R 3 4 6 moralSelf moralSelf match n n 1 0.6360 
03-Jun-2018_14:06:54 Exp 7339 18 male R 3 4 7 immoralOther immoralOther match n n 1 0.6426 
03-Jun-2018_14:06:56 Exp 7339 18 male R 3 4 8 moralOther moralSelf mismatch m m 1 0.6973 
03-Jun-2018_14:06:58 Exp 7339 18 male R 3 4 9 moralOther immoralSelf mismatch m m 1 0.6131 
03-Jun-2018_14:07:00 Exp 7339 18 male R 3 4 10 immoralOther immoralSelf mismatch m m 1 0.8914 
03-Jun-2018_14:07:03 Exp 7339 18 male R 3 4 11 immoralSelf moralOther mismatch m m 1 0.6632 
03-Jun-2018_14:07:05 Exp 7339 18 male R 3 4 12 immoralOther immoralOther match n n 1 0.6624 
03-Jun-2018_14:07:07 Exp 7339 18 male R 3 4 13 moralOther immoralSelf mismatch m m 1 0.8295 
03-Jun-2018_14:07:09 Exp 7339 18 male R 3 4 14 moralSelf moralSelf match n n 1 0.6799 
03-Jun-2018_14:07:12 Exp 7339 18 male R 3 4 15 moralOther moralOther match n n 1 0.8636 
03-Jun-2018_14:07:14 Exp 7339 18 male R 3 4 16 moralOther moralOther match n n 1 0.5267 
03-Jun-2018_14:07:16 Exp 7339 18 male R 3 4 17 immoralSelf moralOther mismatch m m 1 0.5593 
03-Jun-2018_14:07:18 Exp 7339 18 male R 3 4 18 immoralSelf immoralSelf match n n 1 0.6962 
03-Jun-2018_14:07:20 Exp 7339 18 male R 3 4 19 immoralSelf immoralSelf match n n 1 0.6042 
03-Jun-2018_14:07:22 Exp 7339 18 male R 3 4 20 moralOther moralOther match n n 1 0.6380 
03-Jun-2018_14:07:24 Exp 7339 18 male R 3 4 21 immoralOther moralSelf mismatch m m 1 0.6607 
03-Jun-2018_14:07:26 Exp 7339 18 male R 3 4 22 immoralOther moralSelf mismatch m m 1 0.6119 
03-Jun-2018_14:07:28 Exp 7339 18 male R 3 4 23 immoralSelf immoralSelf match n n 1 0.6422 
03-Jun-2018_14:07:31 Exp 7339 18 male R 3 4 24 moralSelf immoralOther mismatch m m 1 0.6808 
03-Jun-2018_14:07:33 Exp 7339 18 male R 3 5 1 moralOther moralOther match n n 1 0.8884 
03-Jun-2018_14:07:35 Exp 7339 18 male R 3 5 2 moralSelf moralSelf match n n 1 0.6000 
03-Jun-2018_14:07:37 Exp 7339 18 male R 3 5 3 moralSelf moralOther mismatch m m 1 0.7060 
03-Jun-2018_14:07:40 Exp 7339 18 male R 3 5 4 moralOther moralOther match n n 1 0.9622 
03-Jun-2018_14:07:42 Exp 7339 18 male R 3 5 5 immoralSelf immoralSelf match n n 1 0.5994 
03-Jun-2018_14:07:44 Exp 7339 18 male R 3 5 6 moralOther moralSelf mismatch m m 1 0.9213 
03-Jun-2018_14:07:47 Exp 7339 18 male R 3 5 7 moralSelf moralSelf match n n 1 0.8776 
03-Jun-2018_14:07:49 Exp 7339 18 male R 3 5 8 immoralOther immoralSelf mismatch m m 1 0.8570 
03-Jun-2018_14:07:51 Exp 7339 18 male R 3 5 9 immoralSelf moralSelf mismatch m n 0 0.6081 
03-Jun-2018_14:07:53 Exp 7339 18 male R 3 5 10 immoralOther immoralOther match n n 1 0.7062 
03-Jun-2018_14:07:55 Exp 7339 18 male R 3 5 11 immoralSelf immoralOther mismatch m m 1 0.6902 
03-Jun-2018_14:07:58 Exp 7339 18 male R 3 5 12 moralSelf moralSelf match n n 1 0.6018 
03-Jun-2018_14:08:00 Exp 7339 18 male R 3 5 13 immoralOther moralSelf mismatch m n 0 0.6119 
03-Jun-2018_14:08:02 Exp 7339 18 male R 3 5 14 moralOther moralSelf mismatch m m 1 0.6180 
03-Jun-2018_14:08:04 Exp 7339 18 male R 3 5 15 moralSelf immoralSelf mismatch m m 1 0.7282 
03-Jun-2018_14:08:06 Exp 7339 18 male R 3 5 16 immoralSelf immoralSelf match n n 1 0.8408 
03-Jun-2018_14:08:09 Exp 7339 18 male R 3 5 17 immoralOther immoralOther match n n 1 0.7514 
03-Jun-2018_14:08:11 Exp 7339 18 male R 3 5 18 moralSelf immoralSelf mismatch m m 1 0.7205 
03-Jun-2018_14:08:13 Exp 7339 18 male R 3 5 19 immoralOther moralSelf mismatch m m 1 0.7569 
03-Jun-2018_14:08:15 Exp 7339 18 male R 3 5 20 immoralSelf immoralSelf match n n 1 0.7899 
03-Jun-2018_14:08:18 Exp 7339 18 male R 3 5 21 immoralOther immoralOther match n n 1 0.8276 
03-Jun-2018_14:08:20 Exp 7339 18 male R 3 5 22 immoralSelf immoralOther mismatch m m 1 0.8540 
03-Jun-2018_14:08:22 Exp 7339 18 male R 3 5 23 moralOther moralOther match n n 1 0.6490 
03-Jun-2018_14:08:25 Exp 7339 18 male R 3 5 24 moralOther moralSelf mismatch m m 1 0.9158 
Date Prac Sub Age Sex Hand Block Bin Trial Shape Label Match CorrResp Resp ACC RT
03-Jun-2018_14:13:02 Exp 7339 18 male R 1 1 1 immoralOther immoralOther match n n 1 0.8358 
03-Jun-2018_14:13:04 Exp 7339 18 male R 1 1 2 moralOther moralSelf mismatch m m 1 0.8825 
03-Jun-2018_14:13:06 Exp 7339 18 male R 1 1 3 immoralSelf moralSelf mismatch m m 1 0.8662 
03-Jun-2018_14:13:09 Exp 7339 18 male R 1 1 4 immoralSelf moralOther mismatch m m 1 0.6253 
03-Jun-2018_14:13:11 Exp 7339 18 male R 1 1 5 immoralSelf immoralSelf match n n 1 0.7717 
03-Jun-2018_14:13:13 Exp 7339 18 male R 1 1 6 immoralOther immoralOther match n n 1 0.6810 
03-Jun-2018_14:13:15 Exp 7339 18 male R 1 1 7 moralSelf moralSelf match n n 1 0.7686 
03-Jun-2018_14:13:17 Exp 7339 18 male R 1 1 8 immoralSelf moralSelf mismatch m m 1 0.5980 
03-Jun-2018_14:13:20 Exp 7339 18 male R 1 1 9 moralSelf immoralOther mismatch m m 1 0.7119 
03-Jun-2018_14:13:22 Exp 7339 18 male R 1 1 10 immoralOther moralOther mismatch m m 1 0.7120 
03-Jun-2018_14:13:24 Exp 7339 18 male R 1 1 11 immoralOther moralSelf mismatch m m 1 0.6320 
03-Jun-2018_14:13:26 Exp 7339 18 male R 1 1 12 moralOther moralOther match n n 1 0.9145 
03-Jun-2018_14:13:28 Exp 7339 18 male R 1 1 13 moralSelf moralSelf match n n 1 0.5866 
03-Jun-2018_14:13:30 Exp 7339 18 male R 1 1 14 immoralOther immoralOther match n m 0 0.5683 
03-Jun-2018_14:13:33 Exp 7339 18 male R 1 1 15 moralOther moralSelf mismatch m m 1 1.0215 
03-Jun-2018_14:13:35 Exp 7339 18 male R 1 1 16 immoralSelf immoralSelf match n n 1 0.8880 
03-Jun-2018_14:13:38 Exp 7339 18 male R 1 1 17 immoralSelf immoralSelf match n n 1 0.8797 
03-Jun-2018_14:13:40 Exp 7339 18 male R 1 1 18 moralOther immoralOther mismatch m m 1 0.7434 
03-Jun-2018_14:13:42 Exp 7339 18 male R 1 1 19 moralOther moralOther match n n 1 0.7400 
03-Jun-2018_14:13:44 Exp 7339 18 male R 1 1 20 moralOther moralOther match n n 1 0.6248 
03-Jun-2018_14:13:46 Exp 7339 18 male R 1 1 21 immoralOther moralSelf mismatch m m 1 0.6913 
03-Jun-2018_14:13:49 Exp 7339 18 male R 1 1 22 moralSelf moralSelf match n n 1 0.6231 
03-Jun-2018_14:13:51 Exp 7339 18 male R 1 1 23 moralSelf immoralSelf mismatch m m 1 0.6896 
03-Jun-2018_14:13:53 Exp 7339 18 male R 1 1 24 moralSelf immoralSelf mismatch m m 1 0.8493 
03-Jun-2018_14:13:55 Exp 7339 18 male R 1 2 1 moralSelf moralSelf match n n 1 0.5721 
03-Jun-2018_14:13:58 Exp 7339 18 male R 1 2 2 immoralOther immoralOther match n n 1 0.9053 
03-Jun-2018_14:14:00 Exp 7339 18 male R 1 2 3 immoralSelf immoralSelf match n m 0 0.8974 
03-Jun-2018_14:14:02 Exp 7339 18 male R 1 2 4 immoralOther moralOther mismatch m m 1 0.6293 
03-Jun-2018_14:14:04 Exp 7339 18 male R 1 2 5 moralOther moralSelf mismatch m m 1 0.9358 
03-Jun-2018_14:14:07 Exp 7339 18 male R 1 2 6 immoralSelf immoralSelf match n n 1 0.6163 
03-Jun-2018_14:14:09 Exp 7339 18 male R 1 2 7 immoralSelf immoralSelf match n n 1 0.7425 
03-Jun-2018_14:14:11 Exp 7339 18 male R 1 2 8 moralOther moralOther match n n 1 0.8354 
03-Jun-2018_14:14:14 Exp 7339 18 male R 1 2 9 immoralOther immoralSelf mismatch m m 1 0.9701 
03-Jun-2018_14:14:16 Exp 7339 18 male R 1 2 10 immoralSelf immoralOther mismatch m m 1 0.8552 
03-Jun-2018_14:14:18 Exp 7339 18 male R 1 2 11 moralSelf moralOther mismatch m m 1 0.7782 
03-Jun-2018_14:14:20 Exp 7339 18 male R 1 2 12 moralSelf moralSelf match n n 1 0.7957 
03-Jun-2018_14:14:23 Exp 7339 18 male R 1 2 13 moralOther immoralOther mismatch m m 1 0.8734 
03-Jun-2018_14:14:25 Exp 7339 18 male R 1 2 14 moralOther immoralOther mismatch m m 1 0.8528 
03-Jun-2018_14:14:27 Exp 7339 18 male R 1 2 15 immoralOther immoralOther match n n 1 0.7678 
03-Jun-2018_14:14:30 Exp 7339 18 male R 1 2 16 immoralOther immoralOther match n n 1 0.7970 
03-Jun-2018_14:14:32 Exp 7339 18 male R 1 2 17 immoralOther moralSelf mismatch m m 1 0.6869 
03-Jun-2018_14:14:34 Exp 7339 18 male R 1 2 18 moralSelf moralOther mismatch m m 1 0.8626 
03-Jun-2018_14:14:37 Exp 7339 18 male R 1 2 19 moralSelf immoralSelf mismatch m m 1 0.7977 
03-Jun-2018_14:14:39 Exp 7339 18 male R 1 2 20 moralSelf moralSelf match n n 1 0.6317 
03-Jun-2018_14:14:41 Exp 7339 18 male R 1 2 21 moralOther moralOther match n n 1 0.9301 
03-Jun-2018_14:14:43 Exp 7339 18 male R 1 2 22 immoralSelf moralOther mismatch m m 1 0.7626 
03-Jun-2018_14:14:45 Exp 7339 18 male R 1 2 23 moralOther moralOther match n n 1 0.6400 
03-Jun-2018_14:14:48 Exp 7339 18 male R 1 2 24 immoralSelf moralSelf mismatch m m 1 0.9106 
Date Prac Sub Age Sex Hand Block Bin Trial Shape Label Match CorrResp Resp ACC RT
03-Jun-2018_14:19:32 Exp 7339 18 male R 1 1 1 immoralSelf immoralSelf match n n 1 0.7075 
03-Jun-2018_14:19:34 Exp 7339 18 male R 1 1 2 immoralSelf moralOther mismatch m m 1 0.5716 
03-Jun-2018_14:19:37 Exp 7339 18 male R 1 1 3 moralOther moralOther match n n 1 0.9449 
03-Jun-2018_14:19:39 Exp 7339 18 male R 1 1 4 moralSelf immoralSelf mismatch m m 1 0.9498 
03-Jun-2018_14:19:41 Exp 7339 18 male R 1 1 5 immoralOther immoralOther match n n 1 0.8025 
03-Jun-2018_14:19:44 Exp 7339 18 male R 1 1 6 moralOther moralOther match n n 1 0.7245 
03-Jun-2018_14:19:46 Exp 7339 18 male R 1 1 7 immoralOther moralOther mismatch m m 1 0.7289 
03-Jun-2018_14:19:48 Exp 7339 18 male R 1 1 8 moralSelf immoralOther mismatch m m 1 0.7214 
03-Jun-2018_14:19:50 Exp 7339 18 male R 1 1 9 moralSelf moralSelf match n n 1 0.6937 
03-Jun-2018_14:19:52 Exp 7339 18 male R 1 1 10 immoralSelf immoralOther mismatch m m 1 0.6495 
03-Jun-2018_14:19:55 Exp 7339 18 male R 1 1 11 immoralOther moralOther mismatch m m 1 0.7084 
03-Jun-2018_14:19:57 Exp 7339 18 male R 1 1 12 moralOther moralOther match n n 1 0.6286 
03-Jun-2018_14:19:59 Exp 7339 18 male R 1 1 13 moralOther moralSelf mismatch m m 1 0.8149 
03-Jun-2018_14:20:01 Exp 7339 18 male R 1 1 14 moralOther immoralSelf mismatch m m 1 0.7492 
03-Jun-2018_14:20:03 Exp 7339 18 male R 1 1 15 immoralSelf immoralSelf match n n 1 0.7539 
03-Jun-2018_14:20:06 Exp 7339 18 male R 1 1 16 moralSelf moralSelf match n n 1 0.5870 
03-Jun-2018_14:20:08 Exp 7339 18 male R 1 1 17 moralSelf moralSelf match n n 1 0.6487 
03-Jun-2018_14:20:10 Exp 7339 18 male R 1 1 18 immoralOther immoralOther match n n 1 0.8917 
03-Jun-2018_14:20:12 Exp 7339 18 male R 1 1 19 moralOther moralSelf mismatch m m 1 0.7114 
03-Jun-2018_14:20:15 Exp 7339 18 male R 1 1 20 immoralSelf moralOther mismatch m m 1 0.8636 
03-Jun-2018_14:20:17 Exp 7339 18 male R 1 1 21 moralSelf immoralSelf mismatch m NA -1 1.1191 
03-Jun-2018_14:20:19 Exp 7339 18 male R 1 1 22 immoralSelf immoralSelf match n n 1 0.7311 
03-Jun-2018_14:20:22 Exp 7339 18 male R 1 1 23 immoralOther moralSelf mismatch m m 1 0.7477 
03-Jun-2018_14:20:24 Exp 7339 18 male R 1 1 24 immoralOther immoralOther match n n 1 0.7845 
03-Jun-2018_14:20:26 Exp 7339 18 male R 1 2 1 moralOther moralOther match n n 1 0.7300 
03-Jun-2018_14:20:29 Exp 7339 18 male R 1 2 2 immoralSelf immoralOther mismatch m NA -1 1.1191 
03-Jun-2018_14:20:31 Exp 7339 18 male R 1 2 3 immoralOther immoralSelf mismatch m m 1 1.1029 
03-Jun-2018_14:20:34 Exp 7339 18 male R 1 2 4 immoralSelf immoralSelf match n m 0 1.1030 
03-Jun-2018_14:20:36 Exp 7339 18 male R 1 2 5 moralSelf moralSelf match n n 1 0.8951 
03-Jun-2018_14:20:39 Exp 7339 18 male R 1 2 6 moralSelf moralSelf match n n 1 0.8430 
03-Jun-2018_14:20:41 Exp 7339 18 male R 1 2 7 moralSelf moralSelf match n n 1 0.5776 
03-Jun-2018_14:20:43 Exp 7339 18 male R 1 2 8 immoralSelf immoralOther mismatch m m 1 0.8350 
03-Jun-2018_14:20:45 Exp 7339 18 male R 1 2 9 immoralOther moralOther mismatch m m 1 0.7217 
03-Jun-2018_14:20:48 Exp 7339 18 male R 1 2 10 immoralOther immoralOther match n n 1 0.8940 
03-Jun-2018_14:20:50 Exp 7339 18 male R 1 2 11 moralSelf immoralOther mismatch m m 1 0.9619 
03-Jun-2018_14:20:52 Exp 7339 18 male R 1 2 12 immoralSelf immoralSelf match n n 1 0.7751 
03-Jun-2018_14:20:55 Exp 7339 18 male R 1 2 13 moralOther immoralSelf mismatch m m 1 0.7847 
03-Jun-2018_14:20:57 Exp 7339 18 male R 1 2 14 immoralSelf immoralOther mismatch m m 1 0.7542 
03-Jun-2018_14:20:59 Exp 7339 18 male R 1 2 15 immoralOther immoralOther match n n 1 0.8352 
03-Jun-2018_14:21:02 Exp 7339 18 male R 1 2 16 moralOther moralSelf mismatch m m 1 1.0259 
03-Jun-2018_14:21:04 Exp 7339 18 male R 1 2 17 immoralSelf immoralSelf match n n 1 0.7404 
03-Jun-2018_14:21:07 Exp 7339 18 male R 1 2 18 moralSelf moralOther mismatch m NA -1 1.1191 
03-Jun-2018_14:21:09 Exp 7339 18 male R 1 2 19 immoralOther immoralOther match n n 1 0.7334 
03-Jun-2018_14:21:11 Exp 7339 18 male R 1 2 20 immoralOther moralOther mismatch m m 1 0.9420 
03-Jun-2018_14:21:14 Exp 7339 18 male R 1 2 21 moralSelf immoralSelf mismatch m m 1 0.7629 
03-Jun-2018_14:21:16 Exp 7339 18 male R 1 2 22 moralOther moralOther match n n 1 0.6561 
03-Jun-2018_14:21:18 Exp 7339 18 male R 1 2 23 moralOther immoralOther mismatch m m 1 0.5832 
03-Jun-2018_14:21:20 Exp 7339 18 male R 1 2 24 moralOther moralOther match n n 1 0.7367 
Date Prac Sub Age Sex Hand Block Bin Trial Shape Label Match CorrResp Resp ACC RT
03-Jun-2018_14:26:04 Exp 7339 18 male R 1 1 1 moralOther moralOther match n n 1 0.9293 
03-Jun-2018_14:26:06 Exp 7339 18 male R 1 1 2 immoralOther moralSelf mismatch m m 1 0.6499 
03-Jun-2018_14:26:09 Exp 7339 18 male R 1 1 3 moralOther immoralSelf mismatch m m 1 0.8529 
03-Jun-2018_14:26:11 Exp 7339 18 male R 1 1 4 moralOther immoralOther mismatch m m 1 0.8318 
03-Jun-2018_14:26:13 Exp 7339 18 male R 1 1 5 immoralOther immoralSelf mismatch m m 1 0.6983 
03-Jun-2018_14:26:15 Exp 7339 18 male R 1 1 6 immoralSelf moralOther mismatch m m 1 0.6701 
03-Jun-2018_14:26:17 Exp 7339 18 male R 1 1 7 immoralSelf immoralOther mismatch m m 1 0.6814 
03-Jun-2018_14:26:20 Exp 7339 18 male R 1 1 8 immoralOther immoralOther match n n 1 0.6251 
03-Jun-2018_14:26:22 Exp 7339 18 male R 1 1 9 moralOther moralOther match n n 1 0.6355 
03-Jun-2018_14:26:24 Exp 7339 18 male R 1 1 10 immoralSelf immoralSelf match n n 1 0.6262 
03-Jun-2018_14:26:26 Exp 7339 18 male R 1 1 11 moralOther moralOther match n n 1 0.7406 
03-Jun-2018_14:26:28 Exp 7339 18 male R 1 1 12 immoralSelf moralSelf mismatch m m 1 0.6254 
03-Jun-2018_14:26:30 Exp 7339 18 male R 1 1 13 moralSelf moralSelf match n n 1 0.5878 
03-Jun-2018_14:26:32 Exp 7339 18 male R 1 1 14 moralSelf moralSelf match n n 1 0.5056 
03-Jun-2018_14:26:34 Exp 7339 18 male R 1 1 15 moralSelf immoralOther mismatch m m 1 0.5217 
03-Jun-2018_14:26:36 Exp 7339 18 male R 1 1 16 immoralOther immoralOther match n n 1 0.6141 
03-Jun-2018_14:26:38 Exp 7339 18 male R 1 1 17 immoralOther moralSelf mismatch m m 1 0.5882 
03-Jun-2018_14:26:41 Exp 7339 18 male R 1 1 18 moralSelf moralOther mismatch m m 1 0.7457 
03-Jun-2018_14:26:43 Exp 7339 18 male R 1 1 19 immoralOther immoralOther match n n 1 0.7586 
03-Jun-2018_14:26:45 Exp 7339 18 male R 1 1 20 moralSelf moralSelf match n n 1 0.6397 
03-Jun-2018_14:26:47 Exp 7339 18 male R 1 1 21 moralSelf immoralSelf mismatch m m 1 0.6704 
03-Jun-2018_14:26:50 Exp 7339 18 male R 1 1 22 immoralSelf immoralSelf match n n 1 0.8577 
03-Jun-2018_14:26:52 Exp 7339 18 male R 1 1 23 immoralSelf immoralSelf match n m 0 0.6889 
03-Jun-2018_14:26:54 Exp 7339 18 male R 1 1 24 moralOther moralSelf mismatch m n 0 0.7445 
03-Jun-2018_14:26:56 Exp 7339 18 male R 1 2 1 immoralOther immoralOther match n n 1 0.6293 
03-Jun-2018_14:26:58 Exp 7339 18 male R 1 2 2 moralSelf moralSelf match n n 1 0.6077 
03-Jun-2018_14:27:00 Exp 7339 18 male R 1 2 3 immoralSelf immoralSelf match n n 1 0.6177 
03-Jun-2018_14:27:02 Exp 7339 18 male R 1 2 4 moralSelf immoralSelf mismatch m m 1 0.6318 
03-Jun-2018_14:27:05 Exp 7339 18 male R 1 2 5 moralOther immoralOther mismatch m m 1 0.7703 
03-Jun-2018_14:27:07 Exp 7339 18 male R 1 2 6 moralOther moralOther match n n 1 0.7115 
03-Jun-2018_14:27:09 Exp 7339 18 male R 1 2 7 moralSelf moralOther mismatch m m 1 0.6557 
03-Jun-2018_14:27:11 Exp 7339 18 male R 1 2 8 moralOther moralOther match n n 1 0.7066 
03-Jun-2018_14:27:13 Exp 7339 18 male R 1 2 9 moralSelf moralSelf match n n 1 0.6746 
03-Jun-2018_14:27:16 Exp 7339 18 male R 1 2 10 moralOther moralSelf mismatch m m 1 0.7740 
03-Jun-2018_14:27:18 Exp 7339 18 male R 1 2 11 immoralOther moralOther mismatch m m 1 0.7035 
03-Jun-2018_14:27:20 Exp 7339 18 male R 1 2 12 moralSelf moralSelf match n m 0 1.0317 
03-Jun-2018_14:27:23 Exp 7339 18 male R 1 2 13 immoralSelf moralOther mismatch m m 1 0.8180 
03-Jun-2018_14:27:25 Exp 7339 18 male R 1 2 14 immoralSelf immoralSelf match n n 1 0.8402 
03-Jun-2018_14:27:27 Exp 7339 18 male R 1 2 15 immoralSelf moralSelf mismatch m m 1 0.6710 
03-Jun-2018_14:27:29 Exp 7339 18 male R 1 2 16 immoralOther moralSelf mismatch m m 1 0.5863 
03-Jun-2018_14:27:31 Exp 7339 18 male R 1 2 17 moralSelf immoralOther mismatch m m 1 0.5841 
03-Jun-2018_14:27:33 Exp 7339 18 male R 1 2 18 immoralOther immoralOther match n n 1 0.6576 
03-Jun-2018_14:27:36 Exp 7339 18 male R 1 2 19 moralOther moralOther match n n 1 0.7446 
03-Jun-2018_14:27:38 Exp 7339 18 male R 1 2 20 immoralSelf immoralSelf match n n 1 0.5896 
03-Jun-2018_14:27:40 Exp 7339 18 male R 1 2 21 immoralSelf moralSelf mismatch m m 1 0.7313 
03-Jun-2018_14:27:42 Exp 7339 18 male R 1 2 22 moralOther moralSelf mismatch m m 1 0.7157 
03-Jun-2018_14:27:44 Exp 7339 18 male R 1 2 23 immoralOther moralOther mismatch m m 1 0.7361 
03-Jun-2018_14:27:47 Exp 7339 18 male R 1 2 24 immoralOther immoralOther match n n 1 0.6567 
Date Prac Sub Age Sex Hand Block Bin Trial Shape Label Match CorrResp Resp ACC RT
03-Jun-2018_14:32:27 Exp 7339 18 male R 1 1 1 moralSelf immoralOther mismatch m m 1 0.7393 
03-Jun-2018_14:32:29 Exp 7339 18 male R 1 1 2 immoralOther moralOther mismatch m m 1 0.7202 
03-Jun-2018_14:32:31 Exp 7339 18 male R 1 1 3 immoralSelf immoralSelf match n n 1 0.5805 
03-Jun-2018_14:32:33 Exp 7339 18 male R 1 1 4 moralSelf moralSelf match n n 1 0.5500 
03-Jun-2018_14:32:35 Exp 7339 18 male R 1 1 5 immoralSelf moralSelf mismatch m m 1 0.6151 
03-Jun-2018_14:32:37 Exp 7339 18 male R 1 1 6 moralOther immoralOther mismatch m m 1 0.8293 
03-Jun-2018_14:32:40 Exp 7339 18 male R 1 1 7 immoralSelf immoralOther mismatch m m 1 0.6317 
03-Jun-2018_14:32:42 Exp 7339 18 male R 1 1 8 moralOther moralOther match n n 1 0.7062 
03-Jun-2018_14:32:44 Exp 7339 18 male R 1 1 9 moralSelf moralSelf match n n 1 0.4822 
03-Jun-2018_14:32:46 Exp 7339 18 male R 1 1 10 moralOther immoralOther mismatch m m 1 0.6178 
03-Jun-2018_14:32:48 Exp 7339 18 male R 1 1 11 immoralOther immoralSelf mismatch m n 0 0.7200 
03-Jun-2018_14:32:50 Exp 7339 18 male R 1 1 12 moralSelf moralOther mismatch m m 1 0.7004 
03-Jun-2018_14:32:52 Exp 7339 18 male R 1 1 13 immoralOther immoralOther match n n 1 0.7202 
03-Jun-2018_14:32:55 Exp 7339 18 male R 1 1 14 moralSelf immoralOther mismatch m m 1 0.7005 
03-Jun-2018_14:32:57 Exp 7339 18 male R 1 1 15 immoralOther immoralOther match n n 1 0.7043 
03-Jun-2018_14:32:59 Exp 7339 18 male R 1 1 16 immoralOther moralOther mismatch m m 1 0.7044 
03-Jun-2018_14:33:02 Exp 7339 18 male R 1 1 17 immoralSelf immoralSelf match n n 1 1.0884 
03-Jun-2018_14:33:04 Exp 7339 18 male R 1 1 18 moralSelf moralSelf match n n 1 0.6242 
03-Jun-2018_14:33:06 Exp 7339 18 male R 1 1 19 immoralOther immoralOther match n n 1 0.6506 
03-Jun-2018_14:33:08 Exp 7339 18 male R 1 1 20 moralOther immoralOther mismatch m m 1 0.7895 
03-Jun-2018_14:33:10 Exp 7339 18 male R 1 1 21 moralOther moralOther match n m 0 0.8753 
03-Jun-2018_14:33:13 Exp 7339 18 male R 1 1 22 moralOther moralOther match n n 1 0.5986 
03-Jun-2018_14:33:15 Exp 7339 18 male R 1 1 23 immoralSelf immoralSelf match n n 1 0.6886 
03-Jun-2018_14:33:17 Exp 7339 18 male R 1 1 24 immoralSelf moralSelf mismatch m m 1 0.8243 
03-Jun-2018_14:33:19 Exp 7339 18 male R 1 2 1 immoralSelf moralSelf mismatch m m 1 0.6347 
03-Jun-2018_14:33:22 Exp 7339 18 male R 1 2 2 immoralOther immoralSelf mismatch m m 1 1.0253 
03-Jun-2018_14:33:24 Exp 7339 18 male R 1 2 3 moralSelf moralSelf match n n 1 1.1078 
03-Jun-2018_14:33:26 Exp 7339 18 male R 1 2 4 immoralOther immoralOther match n n 1 0.6919 
03-Jun-2018_14:33:29 Exp 7339 18 male R 1 2 5 moralSelf immoralOther mismatch m m 1 0.6318 
03-Jun-2018_14:33:31 Exp 7339 18 male R 1 2 6 moralOther immoralOther mismatch m m 1 0.7701 
03-Jun-2018_14:33:33 Exp 7339 18 male R 1 2 7 moralSelf moralSelf match n n 1 0.6954 
03-Jun-2018_14:33:35 Exp 7339 18 male R 1 2 8 moralOther moralOther match n m 0 0.7073 
03-Jun-2018_14:33:38 Exp 7339 18 male R 1 2 9 moralSelf immoralSelf mismatch m m 1 0.8434 
03-Jun-2018_14:33:40 Exp 7339 18 male R 1 2 10 moralOther moralSelf mismatch m m 1 0.6100 
03-Jun-2018_14:33:42 Exp 7339 18 male R 1 2 11 immoralOther moralOther mismatch m m 1 0.7044 
03-Jun-2018_14:33:44 Exp 7339 18 male R 1 2 12 immoralOther immoralOther match n n 1 0.5123 
03-Jun-2018_14:33:46 Exp 7339 18 male R 1 2 13 immoralSelf immoralOther mismatch m m 1 0.6964 
03-Jun-2018_14:33:48 Exp 7339 18 male R 1 2 14 moralSelf immoralSelf mismatch m m 1 0.6922 
03-Jun-2018_14:33:50 Exp 7339 18 male R 1 2 15 moralSelf moralSelf match n n 1 0.6241 
03-Jun-2018_14:33:53 Exp 7339 18 male R 1 2 16 immoralOther immoralOther match n n 1 0.6425 
03-Jun-2018_14:33:55 Exp 7339 18 male R 1 2 17 moralOther moralOther match n n 1 0.5212 
03-Jun-2018_14:33:57 Exp 7339 18 male R 1 2 18 moralOther immoralOther mismatch m m 1 0.5735 
03-Jun-2018_14:33:59 Exp 7339 18 male R 1 2 19 immoralSelf immoralSelf match n n 1 0.6870 
03-Jun-2018_14:34:01 Exp 7339 18 male R 1 2 20 moralOther moralOther match n n 1 0.7267 
03-Jun-2018_14:34:03 Exp 7339 18 male R 1 2 21 immoralSelf moralOther mismatch m m 1 0.7432 
03-Jun-2018_14:34:05 Exp 7339 18 male R 1 2 22 immoralSelf immoralSelf match n n 1 0.7079 
03-Jun-2018_14:34:07 Exp 7339 18 male R 1 2 23 immoralSelf immoralSelf match n n 1 0.5080 
03-Jun-2018_14:34:10 Exp 7339 18 male R 1 2 24 immoralOther moralOther mismatch m m 1 0.6841 
Date Prac Sub Age Sex Hand Block Bin Trial Shape Label Match CorrResp Resp ACC RT
03-Jun-2018_14:38:40 Exp 7339 18 male R 1 1 1 immoralSelf immoralOther mismatch m m 1 0.8026 
03-Jun-2018_14:38:42 Exp 7339 18 male R 1 1 2 immoralOther immoralOther match n n 1 0.6607 
03-Jun-2018_14:38:44 Exp 7339 18 male R 1 1 3 moralSelf moralSelf match n n 1 0.6519 
03-Jun-2018_14:38:47 Exp 7339 18 male R 1 1 4 moralOther moralOther match n n 1 0.8707 
03-Jun-2018_14:38:49 Exp 7339 18 male R 1 1 5 immoralOther moralOther mismatch m m 1 0.6661 
03-Jun-2018_14:38:51 Exp 7339 18 male R 1 1 6 immoralSelf immoralSelf match n n 1 0.6732 
03-Jun-2018_14:38:53 Exp 7339 18 male R 1 1 7 immoralOther immoralOther match n n 1 0.5646 
03-Jun-2018_14:38:55 Exp 7339 18 male R 1 1 8 moralOther moralSelf mismatch m n 0 0.6260 
03-Jun-2018_14:38:57 Exp 7339 18 male R 1 1 9 immoralSelf immoralOther mismatch m m 1 0.7564 
03-Jun-2018_14:38:59 Exp 7339 18 male R 1 1 10 moralSelf moralSelf match n n 1 0.5814 
03-Jun-2018_14:39:02 Exp 7339 18 male R 1 1 11 immoralSelf immoralSelf match n n 1 0.6869 
03-Jun-2018_14:39:04 Exp 7339 18 male R 1 1 12 moralSelf moralSelf match n n 1 0.8385 
03-Jun-2018_14:39:06 Exp 7339 18 male R 1 1 13 immoralSelf immoralSelf match n n 1 0.5811 
03-Jun-2018_14:39:08 Exp 7339 18 male R 1 1 14 moralSelf immoralOther mismatch m m 1 0.6627 
03-Jun-2018_14:39:11 Exp 7339 18 male R 1 1 15 immoralOther immoralSelf mismatch m m 1 0.9578 
03-Jun-2018_14:39:13 Exp 7339 18 male R 1 1 16 moralOther immoralOther mismatch m m 1 0.6148 
03-Jun-2018_14:39:15 Exp 7339 18 male R 1 1 17 immoralOther immoralOther match n n 1 0.6050 
03-Jun-2018_14:39:17 Exp 7339 18 male R 1 1 18 moralOther moralOther match n n 1 0.8230 
03-Jun-2018_14:39:19 Exp 7339 18 male R 1 1 19 moralOther immoralOther mismatch m m 1 0.6814 
03-Jun-2018_14:39:21 Exp 7339 18 male R 1 1 20 moralSelf moralOther mismatch m m 1 0.7050 
03-Jun-2018_14:39:24 Exp 7339 18 male R 1 1 21 moralOther moralOther match n n 1 0.7211 
03-Jun-2018_14:39:26 Exp 7339 18 male R 1 1 22 immoralOther moralSelf mismatch m m 1 0.8054 
03-Jun-2018_14:39:28 Exp 7339 18 male R 1 1 23 immoralSelf moralSelf mismatch m m 1 0.5434 
03-Jun-2018_14:39:30 Exp 7339 18 male R 1 1 24 moralSelf immoralOther mismatch m m 1 0.6843 
03-Jun-2018_14:39:32 Exp 7339 18 male R 1 2 1 moralOther moralOther match n n 1 0.5958 
03-Jun-2018_14:39:35 Exp 7339 18 male R 1 2 2 moralSelf moralSelf match n n 1 0.8655 
03-Jun-2018_14:39:37 Exp 7339 18 male R 1 2 3 immoralOther moralSelf mismatch m m 1 0.7207 
03-Jun-2018_14:39:39 Exp 7339 18 male R 1 2 4 immoralSelf immoralSelf match n n 1 0.8290 
03-Jun-2018_14:39:41 Exp 7339 18 male R 1 2 5 immoralSelf moralSelf mismatch m m 1 0.6875 
03-Jun-2018_14:39:44 Exp 7339 18 male R 1 2 6 moralOther moralOther match n n 1 0.7111 
03-Jun-2018_14:39:46 Exp 7339 18 male R 1 2 7 immoralOther immoralOther match n n 1 0.7031 
03-Jun-2018_14:39:48 Exp 7339 18 male R 1 2 8 immoralOther moralSelf mismatch m m 1 0.6792 
03-Jun-2018_14:39:50 Exp 7339 18 male R 1 2 9 immoralOther immoralOther match n n 1 0.6746 
03-Jun-2018_14:39:52 Exp 7339 18 male R 1 2 10 moralOther immoralSelf mismatch m m 1 0.9420 
03-Jun-2018_14:39:55 Exp 7339 18 male R 1 2 11 moralSelf immoralSelf mismatch m m 1 0.7228 
03-Jun-2018_14:39:57 Exp 7339 18 male R 1 2 12 moralOther immoralOther mismatch m m 1 0.8711 
03-Jun-2018_14:40:00 Exp 7339 18 male R 1 2 13 immoralSelf moralSelf mismatch m m 1 0.9625 
03-Jun-2018_14:40:02 Exp 7339 18 male R 1 2 14 immoralSelf immoralOther mismatch m m 1 0.6397 
03-Jun-2018_14:40:04 Exp 7339 18 male R 1 2 15 immoralOther moralOther mismatch m m 1 0.8064 
03-Jun-2018_14:40:06 Exp 7339 18 male R 1 2 16 moralSelf moralSelf match n n 1 0.6884 
03-Jun-2018_14:40:08 Exp 7339 18 male R 1 2 17 immoralOther immoralOther match n n 1 0.6961 
03-Jun-2018_14:40:10 Exp 7339 18 male R 1 2 18 moralSelf moralSelf match n n 1 0.6759 
03-Jun-2018_14:40:13 Exp 7339 18 male R 1 2 19 moralSelf moralOther mismatch m m 1 0.6952 
03-Jun-2018_14:40:15 Exp 7339 18 male R 1 2 20 moralOther immoralOther mismatch m m 1 0.7232 
03-Jun-2018_14:40:17 Exp 7339 18 male R 1 2 21 moralOther moralOther match n n 1 0.7835 
03-Jun-2018_14:40:19 Exp 7339 18 male R 1 2 22 immoralSelf immoralSelf match n n 1 0.6649 
03-Jun-2018_14:40:21 Exp 7339 18 male R 1 2 23 immoralSelf immoralSelf match n n 1 0.6801 
03-Jun-2018_14:40:24 Exp 7339 18 male R 1 2 24 moralSelf immoralSelf mismatch m m 1 0.6397 
