Date Prac Sub Age Sex Hand Block Bin Trial Shape Label Match CorrResp Resp ACC RT
02-May-2018_14:26:54 Exp 7303 28 male R 1 1 1 immoralSelf immoralOther mismatch n n 1 0.6804 
02-May-2018_14:26:56 Exp 7303 28 male R 1 1 2 moralOther moralSelf mismatch n n 1 0.5540 
02-May-2018_14:26:58 Exp 7303 28 male R 1 1 3 immoralOther moralOther mismatch n n 1 0.6528 
02-May-2018_14:27:00 Exp 7303 28 male R 1 1 4 moralSelf immoralSelf mismatch n n 1 0.6016 
02-May-2018_14:27:02 Exp 7303 28 male R 1 1 5 immoralSelf immoralSelf match m n 0 0.6214 
02-May-2018_14:27:04 Exp 7303 28 male R 1 1 6 immoralSelf immoralSelf match m n 0 0.7058 
02-May-2018_14:27:06 Exp 7303 28 male R 1 1 7 moralOther moralOther match m m 1 0.6918 
02-May-2018_14:27:08 Exp 7303 28 male R 1 1 8 moralSelf moralSelf match m m 1 0.6334 
02-May-2018_14:27:10 Exp 7303 28 male R 1 1 9 moralOther immoralSelf mismatch n n 1 0.7380 
02-May-2018_14:27:12 Exp 7303 28 male R 1 1 10 immoralSelf moralOther mismatch n n 1 0.8765 
02-May-2018_14:27:14 Exp 7303 28 male R 1 1 11 moralOther moralSelf mismatch n m 0 0.6097 
02-May-2018_14:27:17 Exp 7303 28 male R 1 1 12 immoralOther immoralOther match m m 1 0.7058 
02-May-2018_14:27:19 Exp 7303 28 male R 1 1 13 moralOther moralOther match m m 1 0.6758 
02-May-2018_14:27:21 Exp 7303 28 male R 1 1 14 moralSelf immoralSelf mismatch n m 0 0.6251 
02-May-2018_14:27:23 Exp 7303 28 male R 1 1 15 immoralOther immoralOther match m n 0 0.9173 
02-May-2018_14:27:25 Exp 7303 28 male R 1 1 16 immoralSelf moralSelf mismatch n m 0 0.6835 
02-May-2018_14:27:27 Exp 7303 28 male R 1 1 17 moralSelf immoralSelf mismatch n m 0 0.4930 
02-May-2018_14:27:29 Exp 7303 28 male R 1 1 18 moralSelf moralSelf match m m 1 0.5227 
02-May-2018_14:27:31 Exp 7303 28 male R 1 1 19 immoralSelf immoralSelf match m n 0 0.7209 
02-May-2018_14:27:33 Exp 7303 28 male R 1 1 20 moralOther moralOther match m m 1 0.6392 
02-May-2018_14:27:35 Exp 7303 28 male R 1 1 21 immoralOther moralOther mismatch n n 1 0.6637 
02-May-2018_14:27:37 Exp 7303 28 male R 1 1 22 moralSelf moralSelf match m m 1 0.6088 
02-May-2018_14:27:39 Exp 7303 28 male R 1 1 23 immoralOther immoralOther match m n 0 0.5807 
02-May-2018_14:27:41 Exp 7303 28 male R 1 1 24 immoralOther moralOther mismatch n n 1 0.7360 
02-May-2018_14:27:43 Exp 7303 28 male R 1 2 1 moralSelf moralSelf match m m 1 0.6104 
02-May-2018_14:27:45 Exp 7303 28 male R 1 2 2 moralSelf immoralSelf mismatch n n 1 0.6665 
02-May-2018_14:27:47 Exp 7303 28 male R 1 2 3 immoralOther immoralOther match m m 1 0.6515 
02-May-2018_14:27:49 Exp 7303 28 male R 1 2 4 immoralOther immoralSelf mismatch n m 0 0.6243 
02-May-2018_14:27:51 Exp 7303 28 male R 1 2 5 immoralSelf immoralOther mismatch n n 1 0.8286 
02-May-2018_14:27:53 Exp 7303 28 male R 1 2 6 immoralOther immoralOther match m m 1 0.7210 
02-May-2018_14:27:55 Exp 7303 28 male R 1 2 7 moralSelf moralSelf match m m 1 0.6552 
02-May-2018_14:27:58 Exp 7303 28 male R 1 2 8 moralOther moralOther match m n 0 0.6440 
02-May-2018_14:28:00 Exp 7303 28 male R 1 2 9 immoralSelf immoralOther mismatch n m 0 0.7965 
02-May-2018_14:28:02 Exp 7303 28 male R 1 2 10 moralOther moralOther match m m 1 0.6921 
02-May-2018_14:28:04 Exp 7303 28 male R 1 2 11 immoralSelf moralSelf mismatch n n 1 0.8660 
02-May-2018_14:28:06 Exp 7303 28 male R 1 2 12 moralSelf immoralSelf mismatch n m 0 0.7070 
02-May-2018_14:28:08 Exp 7303 28 male R 1 2 13 immoralSelf immoralSelf match m n 0 0.7329 
02-May-2018_14:28:10 Exp 7303 28 male R 1 2 14 moralOther immoralOther mismatch n m 0 0.6153 
02-May-2018_14:28:12 Exp 7303 28 male R 1 2 15 moralOther immoralOther mismatch n n 1 0.7513 
02-May-2018_14:28:15 Exp 7303 28 male R 1 2 16 immoralSelf immoralSelf match m m 1 0.8663 
02-May-2018_14:28:17 Exp 7303 28 male R 1 2 17 moralOther immoralOther mismatch n n 1 0.8193 
02-May-2018_14:28:19 Exp 7303 28 male R 1 2 18 moralSelf immoralOther mismatch n n 1 0.9074 
02-May-2018_14:28:21 Exp 7303 28 male R 1 2 19 moralSelf moralSelf match m m 1 0.6614 
02-May-2018_14:28:23 Exp 7303 28 male R 1 2 20 immoralOther moralOther mismatch n m 0 0.9264 
02-May-2018_14:28:26 Exp 7303 28 male R 1 2 21 immoralOther immoralOther match m m 1 0.6808 
02-May-2018_14:28:28 Exp 7303 28 male R 1 2 22 immoralSelf immoralSelf match m m 1 0.7625 
02-May-2018_14:28:30 Exp 7303 28 male R 1 2 23 immoralOther moralOther mismatch n n 1 0.8735 
02-May-2018_14:28:32 Exp 7303 28 male R 1 2 24 moralOther moralOther match m m 1 0.5428 
02-May-2018_14:28:34 Exp 7303 28 male R 1 3 1 immoralOther immoralOther match m n 0 0.6695 
02-May-2018_14:28:36 Exp 7303 28 male R 1 3 2 moralOther immoralOther mismatch n n 1 0.6271 
02-May-2018_14:28:38 Exp 7303 28 male R 1 3 3 moralSelf moralOther mismatch n n 1 0.7910 
02-May-2018_14:28:40 Exp 7303 28 male R 1 3 4 immoralSelf moralSelf mismatch n n 1 0.7107 
02-May-2018_14:28:42 Exp 7303 28 male R 1 3 5 moralOther moralOther match m m 1 0.6565 
02-May-2018_14:28:44 Exp 7303 28 male R 1 3 6 moralOther moralOther match m m 1 0.6177 
02-May-2018_14:28:47 Exp 7303 28 male R 1 3 7 immoralOther immoralSelf mismatch n n 1 0.8417 
02-May-2018_14:28:49 Exp 7303 28 male R 1 3 8 moralSelf immoralOther mismatch n n 1 0.6582 
02-May-2018_14:28:51 Exp 7303 28 male R 1 3 9 immoralOther immoralOther match m n 0 0.7074 
02-May-2018_14:28:53 Exp 7303 28 male R 1 3 10 moralSelf moralOther mismatch n n 1 0.7733 
02-May-2018_14:28:55 Exp 7303 28 male R 1 3 11 immoralSelf immoralSelf match m m 1 0.7804 
02-May-2018_14:28:57 Exp 7303 28 male R 1 3 12 moralSelf moralSelf match m m 1 0.7198 
02-May-2018_14:28:59 Exp 7303 28 male R 1 3 13 immoralSelf immoralSelf match m n 0 0.8460 
02-May-2018_14:29:01 Exp 7303 28 male R 1 3 14 immoralOther immoralSelf mismatch n n 1 0.6828 
02-May-2018_14:29:04 Exp 7303 28 male R 1 3 15 immoralSelf moralSelf mismatch n m 0 0.8843 
02-May-2018_14:29:06 Exp 7303 28 male R 1 3 16 moralOther moralOther match m m 1 0.6699 
02-May-2018_14:29:08 Exp 7303 28 male R 1 3 17 immoralSelf immoralSelf match m m 1 0.6911 
02-May-2018_14:29:10 Exp 7303 28 male R 1 3 18 moralOther moralSelf mismatch n m 0 0.6007 
02-May-2018_14:29:12 Exp 7303 28 male R 1 3 19 immoralSelf moralSelf mismatch n n 1 0.8526 
02-May-2018_14:29:14 Exp 7303 28 male R 1 3 20 immoralOther immoralSelf mismatch n n 1 0.7775 
02-May-2018_14:29:16 Exp 7303 28 male R 1 3 21 moralOther moralSelf mismatch n n 1 0.8048 
02-May-2018_14:29:18 Exp 7303 28 male R 1 3 22 moralSelf moralSelf match m m 1 0.7448 
02-May-2018_14:29:21 Exp 7303 28 male R 1 3 23 immoralOther immoralOther match m m 1 0.8394 
02-May-2018_14:29:23 Exp 7303 28 male R 1 3 24 moralSelf moralSelf match m m 1 0.5999 
02-May-2018_14:29:36 Exp 7303 28 male R 1 4 1 immoralSelf immoralSelf match m m 1 0.6555 
02-May-2018_14:29:38 Exp 7303 28 male R 1 4 2 moralOther immoralOther mismatch n n 1 0.7643 
02-May-2018_14:29:40 Exp 7303 28 male R 1 4 3 moralSelf moralOther mismatch n m 0 0.5875 
02-May-2018_14:29:42 Exp 7303 28 male R 1 4 4 moralSelf moralSelf match m m 1 0.7150 
02-May-2018_14:29:44 Exp 7303 28 male R 1 4 5 immoralOther immoralOther match m m 1 0.9692 
02-May-2018_14:29:46 Exp 7303 28 male R 1 4 6 immoralOther immoralOther match m m 1 0.5684 
02-May-2018_14:29:48 Exp 7303 28 male R 1 4 7 immoralSelf moralOther mismatch n n 1 0.6474 
02-May-2018_14:29:50 Exp 7303 28 male R 1 4 8 moralOther moralOther match m m 1 0.6923 
02-May-2018_14:29:52 Exp 7303 28 male R 1 4 9 moralOther moralOther match m m 1 0.5941 
02-May-2018_14:29:54 Exp 7303 28 male R 1 4 10 moralSelf moralSelf match m m 1 0.6497 
02-May-2018_14:29:56 Exp 7303 28 male R 1 4 11 immoralSelf moralSelf mismatch n n 1 0.8865 
02-May-2018_14:29:58 Exp 7303 28 male R 1 4 12 moralSelf moralOther mismatch n m 0 0.6240 
02-May-2018_14:30:00 Exp 7303 28 male R 1 4 13 moralOther moralSelf mismatch n m 0 0.6123 
02-May-2018_14:30:03 Exp 7303 28 male R 1 4 14 immoralOther moralSelf mismatch n n 1 0.7805 
02-May-2018_14:30:05 Exp 7303 28 male R 1 4 15 immoralOther moralOther mismatch n n 1 0.8557 
02-May-2018_14:30:07 Exp 7303 28 male R 1 4 16 immoralSelf moralOther mismatch n m 0 0.8046 
02-May-2018_14:30:09 Exp 7303 28 male R 1 4 17 moralSelf moralOther mismatch n m 0 0.6403 
02-May-2018_14:30:11 Exp 7303 28 male R 1 4 18 moralSelf moralSelf match m m 1 0.6330 
02-May-2018_14:30:13 Exp 7303 28 male R 1 4 19 immoralSelf immoralSelf match m n 0 0.6495 
02-May-2018_14:30:15 Exp 7303 28 male R 1 4 20 immoralOther moralOther mismatch n n 1 0.9023 
02-May-2018_14:30:18 Exp 7303 28 male R 1 4 21 moralOther moralOther match m m 1 1.0280 
02-May-2018_14:30:20 Exp 7303 28 male R 1 4 22 moralOther immoralSelf mismatch n m 0 0.7924 
02-May-2018_14:30:22 Exp 7303 28 male R 1 4 23 immoralOther immoralOther match m n 0 0.6560 
02-May-2018_14:30:24 Exp 7303 28 male R 1 4 24 immoralSelf immoralSelf match m n 0 0.8331 
02-May-2018_14:30:26 Exp 7303 28 male R 1 5 1 moralOther immoralSelf mismatch n n 1 0.7857 
02-May-2018_14:30:29 Exp 7303 28 male R 1 5 2 moralOther moralOther match m m 1 0.8491 
02-May-2018_14:30:31 Exp 7303 28 male R 1 5 3 immoralOther immoralOther match m m 1 0.7980 
02-May-2018_14:30:33 Exp 7303 28 male R 1 5 4 moralSelf moralSelf match m m 1 0.6420 
02-May-2018_14:30:35 Exp 7303 28 male R 1 5 5 immoralSelf immoralSelf match m m 1 0.7224 
02-May-2018_14:30:37 Exp 7303 28 male R 1 5 6 moralOther moralOther match m m 1 0.5847 
02-May-2018_14:30:39 Exp 7303 28 male R 1 5 7 immoralOther immoralSelf mismatch n m 0 0.7880 
02-May-2018_14:30:41 Exp 7303 28 male R 1 5 8 immoralOther immoralOther match m m 1 0.8436 
02-May-2018_14:30:43 Exp 7303 28 male R 1 5 9 immoralOther moralSelf mismatch n n 1 0.7082 
02-May-2018_14:30:45 Exp 7303 28 male R 1 5 10 moralSelf immoralSelf mismatch n m 0 0.5741 
02-May-2018_14:30:48 Exp 7303 28 male R 1 5 11 moralOther immoralOther mismatch n n 1 0.7936 
02-May-2018_14:30:50 Exp 7303 28 male R 1 5 12 immoralOther moralSelf mismatch n n 1 0.8092 
02-May-2018_14:30:52 Exp 7303 28 male R 1 5 13 immoralSelf moralOther mismatch n n 1 0.6653 
02-May-2018_14:30:54 Exp 7303 28 male R 1 5 14 moralSelf immoralOther mismatch n n 1 0.7783 
02-May-2018_14:30:56 Exp 7303 28 male R 1 5 15 immoralSelf immoralSelf match m m 1 0.7577 
02-May-2018_14:30:58 Exp 7303 28 male R 1 5 16 immoralSelf immoralSelf match m m 1 0.6566 
02-May-2018_14:31:00 Exp 7303 28 male R 1 5 17 immoralSelf moralOther mismatch n n 1 0.7457 
02-May-2018_14:31:03 Exp 7303 28 male R 1 5 18 moralOther immoralOther mismatch n n 1 0.8483 
02-May-2018_14:31:05 Exp 7303 28 male R 1 5 19 immoralSelf immoralOther mismatch n n 1 0.7890 
02-May-2018_14:31:07 Exp 7303 28 male R 1 5 20 immoralOther immoralOther match m m 1 0.6207 
02-May-2018_14:31:09 Exp 7303 28 male R 1 5 21 moralSelf moralSelf match m m 1 0.5770 
02-May-2018_14:31:11 Exp 7303 28 male R 1 5 22 moralSelf moralSelf match m m 1 0.5245 
02-May-2018_14:31:13 Exp 7303 28 male R 1 5 23 moralOther moralOther match m m 1 0.6346 
02-May-2018_14:31:15 Exp 7303 28 male R 1 5 24 moralSelf moralOther mismatch n m 0 0.7471 
02-May-2018_14:31:20 Exp 7303 28 male R 2 1 1 moralOther moralOther match m NA -1 1.0411 
02-May-2018_14:31:22 Exp 7303 28 male R 2 1 2 moralOther immoralSelf mismatch n n 1 0.5757 
02-May-2018_14:31:24 Exp 7303 28 male R 2 1 3 immoralSelf moralOther mismatch n n 1 0.6671 
02-May-2018_14:31:26 Exp 7303 28 male R 2 1 4 immoralOther moralOther mismatch n n 1 0.8121 
02-May-2018_14:31:29 Exp 7303 28 male R 2 1 5 immoralSelf moralOther mismatch n n 1 0.7242 
02-May-2018_14:31:31 Exp 7303 28 male R 2 1 6 moralOther immoralSelf mismatch n m 0 0.5783 
02-May-2018_14:31:33 Exp 7303 28 male R 2 1 7 immoralOther moralSelf mismatch n n 1 0.6457 
02-May-2018_14:31:35 Exp 7303 28 male R 2 1 8 immoralSelf moralSelf mismatch n n 1 0.6105 
02-May-2018_14:31:37 Exp 7303 28 male R 2 1 9 moralSelf moralSelf match m n 0 0.7146 
02-May-2018_14:31:39 Exp 7303 28 male R 2 1 10 moralOther moralOther match m m 1 0.6168 
02-May-2018_14:31:41 Exp 7303 28 male R 2 1 11 immoralSelf immoralSelf match m m 1 0.7129 
02-May-2018_14:31:43 Exp 7303 28 male R 2 1 12 moralSelf moralOther mismatch n m 0 0.5469 
02-May-2018_14:31:45 Exp 7303 28 male R 2 1 13 immoralOther immoralOther match m n 0 0.6416 
02-May-2018_14:31:47 Exp 7303 28 male R 2 1 14 immoralSelf immoralSelf match m m 1 0.9061 
02-May-2018_14:31:49 Exp 7303 28 male R 2 1 15 moralOther moralSelf mismatch n n 1 0.8921 
02-May-2018_14:31:51 Exp 7303 28 male R 2 1 16 immoralSelf immoralSelf match m m 1 0.7778 
02-May-2018_14:31:54 Exp 7303 28 male R 2 1 17 moralOther moralOther match m m 1 0.7573 
02-May-2018_14:31:56 Exp 7303 28 male R 2 1 18 immoralOther immoralOther match m m 1 0.6561 
02-May-2018_14:31:58 Exp 7303 28 male R 2 1 19 moralSelf moralSelf match m m 1 0.6650 
02-May-2018_14:32:00 Exp 7303 28 male R 2 1 20 moralSelf immoralSelf mismatch n n 1 0.8103 
02-May-2018_14:32:02 Exp 7303 28 male R 2 1 21 immoralOther immoralSelf mismatch n n 1 0.7063 
02-May-2018_14:32:04 Exp 7303 28 male R 2 1 22 immoralOther immoralOther match m m 1 0.5642 
02-May-2018_14:32:06 Exp 7303 28 male R 2 1 23 moralSelf moralOther mismatch n n 1 0.9875 
02-May-2018_14:32:09 Exp 7303 28 male R 2 1 24 moralSelf moralSelf match m m 1 0.8111 
02-May-2018_14:32:11 Exp 7303 28 male R 2 2 1 immoralOther moralSelf mismatch n n 1 0.7471 
02-May-2018_14:32:13 Exp 7303 28 male R 2 2 2 moralSelf immoralOther mismatch n n 1 0.7778 
02-May-2018_14:32:15 Exp 7303 28 male R 2 2 3 moralOther immoralOther mismatch n n 1 0.7651 
02-May-2018_14:32:17 Exp 7303 28 male R 2 2 4 moralSelf moralSelf match m m 1 0.6124 
02-May-2018_14:32:19 Exp 7303 28 male R 2 2 5 immoralSelf immoralSelf match m n 0 0.6443 
02-May-2018_14:32:21 Exp 7303 28 male R 2 2 6 immoralOther immoralOther match m m 1 0.7932 
02-May-2018_14:32:23 Exp 7303 28 male R 2 2 7 moralSelf moralSelf match m m 1 0.7048 
02-May-2018_14:32:25 Exp 7303 28 male R 2 2 8 moralOther moralOther match m m 1 0.5629 
02-May-2018_14:32:27 Exp 7303 28 male R 2 2 9 moralOther moralOther match m m 1 0.5699 
02-May-2018_14:32:29 Exp 7303 28 male R 2 2 10 moralOther moralOther match m m 1 0.6330 
02-May-2018_14:32:31 Exp 7303 28 male R 2 2 11 immoralSelf immoralOther mismatch n n 1 0.6096 
02-May-2018_14:32:33 Exp 7303 28 male R 2 2 12 moralOther moralSelf mismatch n m 0 0.5537 
02-May-2018_14:32:35 Exp 7303 28 male R 2 2 13 immoralOther immoralOther match m m 1 0.6845 
02-May-2018_14:32:37 Exp 7303 28 male R 2 2 14 immoralOther moralOther mismatch n n 1 0.6620 
02-May-2018_14:32:39 Exp 7303 28 male R 2 2 15 moralSelf moralOther mismatch n n 1 0.7191 
02-May-2018_14:32:41 Exp 7303 28 male R 2 2 16 immoralSelf moralSelf mismatch n m 0 0.6853 
02-May-2018_14:32:43 Exp 7303 28 male R 2 2 17 immoralSelf immoralSelf match m m 1 0.6788 
02-May-2018_14:32:46 Exp 7303 28 male R 2 2 18 moralSelf immoralOther mismatch n n 1 0.6521 
02-May-2018_14:32:48 Exp 7303 28 male R 2 2 19 immoralSelf immoralSelf match m n 0 0.6088 
02-May-2018_14:32:50 Exp 7303 28 male R 2 2 20 moralSelf moralSelf match m m 1 0.6489 
02-May-2018_14:32:52 Exp 7303 28 male R 2 2 21 immoralSelf moralOther mismatch n n 1 0.7097 
02-May-2018_14:32:54 Exp 7303 28 male R 2 2 22 moralOther immoralSelf mismatch n n 1 0.7037 
02-May-2018_14:32:56 Exp 7303 28 male R 2 2 23 immoralOther immoralSelf mismatch n n 1 0.6577 
02-May-2018_14:32:58 Exp 7303 28 male R 2 2 24 immoralOther immoralOther match m m 1 0.6107 
02-May-2018_14:33:00 Exp 7303 28 male R 2 3 1 immoralOther immoralOther match m m 1 0.6588 
02-May-2018_14:33:02 Exp 7303 28 male R 2 3 2 moralOther immoralOther mismatch n n 1 0.7558 
02-May-2018_14:33:04 Exp 7303 28 male R 2 3 3 moralSelf moralSelf match m m 1 0.5107 
02-May-2018_14:33:06 Exp 7303 28 male R 2 3 4 immoralOther immoralOther match m n 0 0.6167 
02-May-2018_14:33:08 Exp 7303 28 male R 2 3 5 immoralSelf immoralOther mismatch n n 1 0.8488 
02-May-2018_14:33:10 Exp 7303 28 male R 2 3 6 moralSelf immoralSelf mismatch n m 0 0.6456 
02-May-2018_14:33:12 Exp 7303 28 male R 2 3 7 immoralOther moralOther mismatch n n 1 0.8187 
02-May-2018_14:33:15 Exp 7303 28 male R 2 3 8 immoralSelf immoralSelf match m m 1 0.9704 
02-May-2018_14:33:17 Exp 7303 28 male R 2 3 9 immoralSelf immoralSelf match m m 1 0.5936 
02-May-2018_14:33:19 Exp 7303 28 male R 2 3 10 moralSelf immoralOther mismatch n n 1 0.7771 
02-May-2018_14:33:21 Exp 7303 28 male R 2 3 11 immoralOther moralSelf mismatch n m 0 0.7085 
02-May-2018_14:33:23 Exp 7303 28 male R 2 3 12 moralOther moralSelf mismatch n m 0 0.7185 
02-May-2018_14:33:25 Exp 7303 28 male R 2 3 13 immoralSelf immoralOther mismatch n n 1 0.7648 
02-May-2018_14:33:27 Exp 7303 28 male R 2 3 14 immoralOther immoralOther match m m 1 0.7319 
02-May-2018_14:33:29 Exp 7303 28 male R 2 3 15 moralOther immoralSelf mismatch n n 1 0.7344 
02-May-2018_14:33:32 Exp 7303 28 male R 2 3 16 moralSelf moralOther mismatch n n 1 0.7528 
02-May-2018_14:33:34 Exp 7303 28 male R 2 3 17 moralSelf moralSelf match m m 1 0.5397 
02-May-2018_14:33:36 Exp 7303 28 male R 2 3 18 immoralOther immoralSelf mismatch n n 1 0.6983 
02-May-2018_14:33:38 Exp 7303 28 male R 2 3 19 immoralSelf immoralOther mismatch n m 0 1.0160 
02-May-2018_14:33:40 Exp 7303 28 male R 2 3 20 moralSelf moralSelf match m m 1 0.8002 
02-May-2018_14:33:42 Exp 7303 28 male R 2 3 21 moralOther moralOther match m m 1 0.7641 
02-May-2018_14:33:44 Exp 7303 28 male R 2 3 22 immoralSelf immoralSelf match m m 1 0.7312 
02-May-2018_14:33:47 Exp 7303 28 male R 2 3 23 moralOther moralOther match m m 1 0.6936 
02-May-2018_14:33:49 Exp 7303 28 male R 2 3 24 moralOther moralOther match m m 1 0.6514 
02-May-2018_14:34:59 Exp 7303 28 male R 2 4 1 moralSelf moralSelf match m m 1 0.5113 
02-May-2018_14:35:01 Exp 7303 28 male R 2 4 2 immoralSelf immoralSelf match m n 0 0.5612 
02-May-2018_14:35:03 Exp 7303 28 male R 2 4 3 moralOther moralOther match m m 1 0.6201 
02-May-2018_14:35:05 Exp 7303 28 male R 2 4 4 immoralOther immoralOther match m m 1 0.6281 
02-May-2018_14:35:08 Exp 7303 28 male R 2 4 5 moralOther immoralOther mismatch n n 1 0.7205 
02-May-2018_14:35:09 Exp 7303 28 male R 2 4 6 moralSelf immoralSelf mismatch n m 0 0.5828 
02-May-2018_14:35:12 Exp 7303 28 male R 2 4 7 immoralOther immoralOther match m m 1 0.6740 
02-May-2018_14:35:14 Exp 7303 28 male R 2 4 8 moralSelf immoralOther mismatch n n 1 0.8475 
02-May-2018_14:35:16 Exp 7303 28 male R 2 4 9 immoralOther moralSelf mismatch n n 1 0.7161 
02-May-2018_14:35:18 Exp 7303 28 male R 2 4 10 moralSelf immoralOther mismatch n n 1 0.6583 
02-May-2018_14:35:20 Exp 7303 28 male R 2 4 11 immoralSelf moralSelf mismatch n n 1 0.8194 
02-May-2018_14:35:22 Exp 7303 28 male R 2 4 12 moralOther immoralOther mismatch n n 1 0.6354 
02-May-2018_14:35:24 Exp 7303 28 male R 2 4 13 immoralSelf immoralSelf match m m 1 0.7639 
02-May-2018_14:35:26 Exp 7303 28 male R 2 4 14 immoralOther moralOther mismatch n n 1 0.7231 
02-May-2018_14:35:28 Exp 7303 28 male R 2 4 15 moralOther moralOther match m m 1 0.6494 
02-May-2018_14:35:31 Exp 7303 28 male R 2 4 16 moralSelf moralSelf match m n 0 0.8062 
02-May-2018_14:35:33 Exp 7303 28 male R 2 4 17 moralOther moralOther match m n 0 0.7541 
02-May-2018_14:35:35 Exp 7303 28 male R 2 4 18 immoralOther moralSelf mismatch n n 1 0.7889 
02-May-2018_14:35:37 Exp 7303 28 male R 2 4 19 immoralSelf immoralOther mismatch n m 0 0.8205 
02-May-2018_14:35:39 Exp 7303 28 male R 2 4 20 immoralOther immoralOther match m m 1 0.7049 
02-May-2018_14:35:41 Exp 7303 28 male R 2 4 21 immoralSelf immoralSelf match m m 1 0.4588 
02-May-2018_14:35:43 Exp 7303 28 male R 2 4 22 moralSelf moralSelf match m m 1 0.6920 
02-May-2018_14:35:45 Exp 7303 28 male R 2 4 23 immoralSelf moralOther mismatch n n 1 0.7739 
02-May-2018_14:35:48 Exp 7303 28 male R 2 4 24 moralOther immoralOther mismatch n m 0 0.7772 
02-May-2018_14:35:49 Exp 7303 28 male R 2 5 1 moralOther moralOther match m m 1 0.5647 
02-May-2018_14:35:52 Exp 7303 28 male R 2 5 2 moralSelf immoralSelf mismatch n m 0 0.7398 
02-May-2018_14:35:54 Exp 7303 28 male R 2 5 3 moralSelf immoralOther mismatch n n 1 0.8345 
02-May-2018_14:35:56 Exp 7303 28 male R 2 5 4 moralOther moralOther match m m 1 0.7390 
02-May-2018_14:35:58 Exp 7303 28 male R 2 5 5 immoralOther moralOther mismatch n n 1 0.7456 
02-May-2018_14:36:00 Exp 7303 28 male R 2 5 6 immoralOther immoralOther match m m 1 0.6803 
02-May-2018_14:36:02 Exp 7303 28 male R 2 5 7 moralOther immoralSelf mismatch n m 0 0.8579 
02-May-2018_14:36:04 Exp 7303 28 male R 2 5 8 moralSelf moralSelf match m m 1 0.5309 
02-May-2018_14:36:07 Exp 7303 28 male R 2 5 9 immoralSelf moralSelf mismatch n m 0 0.9173 
02-May-2018_14:36:09 Exp 7303 28 male R 2 5 10 immoralSelf immoralOther mismatch n n 1 0.8196 
02-May-2018_14:36:11 Exp 7303 28 male R 2 5 11 immoralSelf moralOther mismatch n n 1 0.6916 
02-May-2018_14:36:13 Exp 7303 28 male R 2 5 12 immoralSelf immoralSelf match m m 1 0.6814 
02-May-2018_14:36:15 Exp 7303 28 male R 2 5 13 immoralOther moralSelf mismatch n n 1 0.7228 
02-May-2018_14:36:17 Exp 7303 28 male R 2 5 14 immoralOther immoralOther match m m 1 0.6331 
02-May-2018_14:36:19 Exp 7303 28 male R 2 5 15 immoralOther moralSelf mismatch n n 1 0.8096 
02-May-2018_14:36:21 Exp 7303 28 male R 2 5 16 moralSelf moralOther mismatch n n 1 0.7298 
02-May-2018_14:36:23 Exp 7303 28 male R 2 5 17 moralOther immoralSelf mismatch n n 1 0.5882 
02-May-2018_14:36:25 Exp 7303 28 male R 2 5 18 moralOther moralOther match m m 1 0.5957 
02-May-2018_14:36:28 Exp 7303 28 male R 2 5 19 immoralSelf immoralSelf match m m 1 0.7393 
02-May-2018_14:36:30 Exp 7303 28 male R 2 5 20 moralSelf moralSelf match m m 1 0.6261 
02-May-2018_14:36:32 Exp 7303 28 male R 2 5 21 moralSelf moralSelf match m m 1 0.7024 
02-May-2018_14:36:34 Exp 7303 28 male R 2 5 22 immoralSelf immoralSelf match m m 1 0.7080 
02-May-2018_14:36:36 Exp 7303 28 male R 2 5 23 moralOther immoralOther mismatch n m 0 0.6382 
02-May-2018_14:36:38 Exp 7303 28 male R 2 5 24 immoralOther immoralOther match m m 1 0.8227 
02-May-2018_14:36:43 Exp 7303 28 male R 3 1 1 moralOther moralOther match m m 1 0.9998 
02-May-2018_14:36:45 Exp 7303 28 male R 3 1 2 immoralOther immoralOther match m m 1 0.6756 
02-May-2018_14:36:48 Exp 7303 28 male R 3 1 3 immoralOther immoralOther match m n 0 0.7929 
02-May-2018_14:36:50 Exp 7303 28 male R 3 1 4 moralSelf moralOther mismatch n m 0 0.8287 
02-May-2018_14:36:52 Exp 7303 28 male R 3 1 5 immoralSelf immoralSelf match m m 1 0.9211 
02-May-2018_14:36:55 Exp 7303 28 male R 3 1 6 immoralSelf moralOther mismatch n n 1 1.0073 
02-May-2018_14:36:57 Exp 7303 28 male R 3 1 7 immoralOther moralOther mismatch n m 0 0.6672 
02-May-2018_14:36:59 Exp 7303 28 male R 3 1 8 immoralSelf immoralSelf match m m 1 0.8202 
02-May-2018_14:37:01 Exp 7303 28 male R 3 1 9 immoralOther immoralSelf mismatch n n 1 0.6282 
02-May-2018_14:37:03 Exp 7303 28 male R 3 1 10 moralOther moralSelf mismatch n m 0 0.6967 
02-May-2018_14:37:05 Exp 7303 28 male R 3 1 11 immoralOther immoralOther match m m 1 0.7743 
02-May-2018_14:37:07 Exp 7303 28 male R 3 1 12 moralSelf immoralOther mismatch n n 1 0.9296 
02-May-2018_14:37:09 Exp 7303 28 male R 3 1 13 moralOther moralSelf mismatch n n 1 0.7241 
02-May-2018_14:37:12 Exp 7303 28 male R 3 1 14 moralSelf moralOther mismatch n n 1 0.8183 
02-May-2018_14:37:14 Exp 7303 28 male R 3 1 15 moralSelf moralSelf match m m 1 0.5304 
02-May-2018_14:37:15 Exp 7303 28 male R 3 1 16 moralSelf moralSelf match m m 1 0.4689 
02-May-2018_14:37:17 Exp 7303 28 male R 3 1 17 moralOther moralOther match m m 1 0.6342 
02-May-2018_14:37:20 Exp 7303 28 male R 3 1 18 moralSelf moralSelf match m m 1 0.8027 
02-May-2018_14:37:22 Exp 7303 28 male R 3 1 19 immoralOther immoralSelf mismatch n n 1 0.9585 
02-May-2018_14:37:24 Exp 7303 28 male R 3 1 20 immoralSelf moralOther mismatch n m 0 0.7695 
02-May-2018_14:37:26 Exp 7303 28 male R 3 1 21 immoralSelf immoralSelf match m n 0 0.7286 
02-May-2018_14:37:28 Exp 7303 28 male R 3 1 22 immoralSelf moralOther mismatch n n 1 0.7711 
02-May-2018_14:37:30 Exp 7303 28 male R 3 1 23 moralOther moralSelf mismatch n m 0 0.6742 
02-May-2018_14:37:33 Exp 7303 28 male R 3 1 24 moralOther moralOther match m m 1 1.0235 
02-May-2018_14:37:35 Exp 7303 28 male R 3 2 1 moralOther immoralOther mismatch n n 1 0.6919 
02-May-2018_14:37:37 Exp 7303 28 male R 3 2 2 moralSelf moralSelf match m m 1 0.5935 
02-May-2018_14:37:39 Exp 7303 28 male R 3 2 3 immoralOther immoralSelf mismatch n n 1 0.8091 
02-May-2018_14:37:41 Exp 7303 28 male R 3 2 4 immoralOther immoralOther match m m 1 0.7532 
02-May-2018_14:37:43 Exp 7303 28 male R 3 2 5 moralOther moralOther match m m 1 0.7723 
02-May-2018_14:37:45 Exp 7303 28 male R 3 2 6 moralSelf moralSelf match m m 1 0.6672 
02-May-2018_14:37:47 Exp 7303 28 male R 3 2 7 immoralSelf immoralSelf match m n 0 0.6363 
02-May-2018_14:37:49 Exp 7303 28 male R 3 2 8 moralOther moralOther match m m 1 0.6049 
02-May-2018_14:37:51 Exp 7303 28 male R 3 2 9 moralOther immoralOther mismatch n n 1 0.5448 
02-May-2018_14:37:54 Exp 7303 28 male R 3 2 10 immoralSelf immoralSelf match m m 1 0.7033 
02-May-2018_14:37:56 Exp 7303 28 male R 3 2 11 moralOther immoralSelf mismatch n n 1 0.6894 
02-May-2018_14:37:58 Exp 7303 28 male R 3 2 12 immoralSelf immoralSelf match m m 1 0.7068 
02-May-2018_14:38:00 Exp 7303 28 male R 3 2 13 moralSelf immoralOther mismatch n m 0 0.5408 
02-May-2018_14:38:02 Exp 7303 28 male R 3 2 14 immoralSelf immoralOther mismatch n n 1 0.6675 
02-May-2018_14:38:04 Exp 7303 28 male R 3 2 15 moralSelf moralOther mismatch n n 1 0.7485 
02-May-2018_14:38:06 Exp 7303 28 male R 3 2 16 moralSelf moralOther mismatch n n 1 0.8351 
02-May-2018_14:38:08 Exp 7303 28 male R 3 2 17 immoralSelf immoralOther mismatch n n 1 0.8756 
02-May-2018_14:38:10 Exp 7303 28 male R 3 2 18 moralOther moralOther match m n 0 0.7210 
02-May-2018_14:38:13 Exp 7303 28 male R 3 2 19 immoralOther immoralSelf mismatch n n 1 0.8713 
02-May-2018_14:38:15 Exp 7303 28 male R 3 2 20 immoralOther immoralOther match m m 1 0.9885 
02-May-2018_14:38:17 Exp 7303 28 male R 3 2 21 immoralOther moralSelf mismatch n n 1 0.7241 
02-May-2018_14:38:19 Exp 7303 28 male R 3 2 22 immoralOther immoralOther match m m 1 0.8104 
02-May-2018_14:38:21 Exp 7303 28 male R 3 2 23 immoralSelf moralOther mismatch n n 1 0.7784 
02-May-2018_14:38:24 Exp 7303 28 male R 3 2 24 moralSelf moralSelf match m m 1 0.6618 
02-May-2018_14:38:26 Exp 7303 28 male R 3 3 1 immoralSelf immoralOther mismatch n n 1 0.7748 
02-May-2018_14:38:28 Exp 7303 28 male R 3 3 2 immoralOther immoralOther match m m 1 0.6422 
02-May-2018_14:38:30 Exp 7303 28 male R 3 3 3 immoralSelf immoralSelf match m m 1 0.6668 
02-May-2018_14:38:32 Exp 7303 28 male R 3 3 4 immoralOther immoralOther match m n 0 0.7558 
02-May-2018_14:38:34 Exp 7303 28 male R 3 3 5 moralOther immoralOther mismatch n m 0 0.6707 
02-May-2018_14:38:36 Exp 7303 28 male R 3 3 6 immoralOther immoralSelf mismatch n n 1 0.8200 
02-May-2018_14:38:38 Exp 7303 28 male R 3 3 7 immoralOther moralOther mismatch n n 1 0.8200 
02-May-2018_14:38:41 Exp 7303 28 male R 3 3 8 immoralSelf immoralOther mismatch n n 1 0.7802 
02-May-2018_14:38:43 Exp 7303 28 male R 3 3 9 immoralOther immoralSelf mismatch n n 1 0.7275 
02-May-2018_14:38:45 Exp 7303 28 male R 3 3 10 immoralSelf immoralOther mismatch n m 0 0.8340 
02-May-2018_14:38:47 Exp 7303 28 male R 3 3 11 immoralSelf immoralSelf match m m 1 0.8585 
02-May-2018_14:38:49 Exp 7303 28 male R 3 3 12 moralOther moralOther match m m 1 0.9316 
02-May-2018_14:38:51 Exp 7303 28 male R 3 3 13 moralSelf moralSelf match m n 0 0.6860 
02-May-2018_14:38:54 Exp 7303 28 male R 3 3 14 moralOther moralOther match m m 1 0.9035 
02-May-2018_14:38:56 Exp 7303 28 male R 3 3 15 moralSelf immoralOther mismatch n n 1 0.8095 
02-May-2018_14:38:58 Exp 7303 28 male R 3 3 16 moralSelf moralSelf match m m 1 0.8655 
02-May-2018_14:39:00 Exp 7303 28 male R 3 3 17 moralSelf moralSelf match m m 1 0.7307 
02-May-2018_14:39:03 Exp 7303 28 male R 3 3 18 moralOther moralOther match m m 1 0.8769 
02-May-2018_14:39:05 Exp 7303 28 male R 3 3 19 immoralSelf immoralSelf match m m 1 0.9622 
02-May-2018_14:39:07 Exp 7303 28 male R 3 3 20 moralSelf immoralOther mismatch n n 1 0.6975 
02-May-2018_14:39:09 Exp 7303 28 male R 3 3 21 immoralOther immoralOther match m m 1 0.7672 
02-May-2018_14:39:11 Exp 7303 28 male R 3 3 22 moralOther immoralSelf mismatch n n 1 0.7664 
02-May-2018_14:39:13 Exp 7303 28 male R 3 3 23 moralOther immoralSelf mismatch n n 1 0.7496 
02-May-2018_14:39:16 Exp 7303 28 male R 3 3 24 moralSelf immoralSelf mismatch n n 1 0.8442 
02-May-2018_14:39:46 Exp 7303 28 male R 3 4 1 immoralOther immoralOther match m m 1 0.8402 
02-May-2018_14:39:48 Exp 7303 28 male R 3 4 2 moralOther moralOther match m m 1 0.7288 
02-May-2018_14:39:50 Exp 7303 28 male R 3 4 3 immoralOther immoralOther match m m 1 0.8033 
02-May-2018_14:39:52 Exp 7303 28 male R 3 4 4 immoralSelf moralSelf mismatch n n 1 0.7671 
02-May-2018_14:39:54 Exp 7303 28 male R 3 4 5 moralOther moralOther match m m 1 0.6463 
02-May-2018_14:39:56 Exp 7303 28 male R 3 4 6 moralSelf moralOther mismatch n m 0 0.7471 
02-May-2018_14:39:58 Exp 7303 28 male R 3 4 7 immoralOther immoralOther match m m 1 0.7057 
02-May-2018_14:40:00 Exp 7303 28 male R 3 4 8 moralSelf moralSelf match m m 1 0.7477 
02-May-2018_14:40:03 Exp 7303 28 male R 3 4 9 immoralSelf immoralSelf match m m 1 0.7224 
02-May-2018_14:40:05 Exp 7303 28 male R 3 4 10 moralSelf moralOther mismatch n n 1 0.8325 
02-May-2018_14:40:07 Exp 7303 28 male R 3 4 11 moralSelf moralOther mismatch n m 0 0.8091 
02-May-2018_14:40:09 Exp 7303 28 male R 3 4 12 moralSelf moralSelf match m m 1 0.7373 
02-May-2018_14:40:11 Exp 7303 28 male R 3 4 13 immoralSelf immoralSelf match m m 1 0.6916 
02-May-2018_14:40:13 Exp 7303 28 male R 3 4 14 moralOther moralSelf mismatch n n 1 0.7854 
02-May-2018_14:40:16 Exp 7303 28 male R 3 4 15 immoralSelf immoralOther mismatch n n 1 0.7611 
02-May-2018_14:40:18 Exp 7303 28 male R 3 4 16 immoralOther moralSelf mismatch n n 1 0.7400 
02-May-2018_14:40:20 Exp 7303 28 male R 3 4 17 immoralOther immoralSelf mismatch n n 1 0.7626 
02-May-2018_14:40:22 Exp 7303 28 male R 3 4 18 immoralSelf immoralSelf match m n 0 0.7058 
02-May-2018_14:40:24 Exp 7303 28 male R 3 4 19 immoralOther moralOther mismatch n n 1 0.8276 
02-May-2018_14:40:26 Exp 7303 28 male R 3 4 20 moralOther moralSelf mismatch n n 1 0.8401 
02-May-2018_14:40:28 Exp 7303 28 male R 3 4 21 immoralSelf moralSelf mismatch n n 1 0.7287 
02-May-2018_14:40:31 Exp 7303 28 male R 3 4 22 moralOther immoralOther mismatch n n 1 0.8431 
02-May-2018_14:40:33 Exp 7303 28 male R 3 4 23 moralSelf moralSelf match m m 1 0.7476 
02-May-2018_14:40:35 Exp 7303 28 male R 3 4 24 moralOther moralOther match m n 0 0.8343 
02-May-2018_14:40:37 Exp 7303 28 male R 3 5 1 moralOther immoralSelf mismatch n n 1 0.7229 
02-May-2018_14:40:40 Exp 7303 28 male R 3 5 2 moralSelf moralOther mismatch n m 0 0.9850 
02-May-2018_14:40:42 Exp 7303 28 male R 3 5 3 moralOther moralOther match m m 1 0.9084 
02-May-2018_14:40:44 Exp 7303 28 male R 3 5 4 immoralOther moralSelf mismatch n n 1 0.6864 
02-May-2018_14:40:46 Exp 7303 28 male R 3 5 5 immoralSelf immoralOther mismatch n n 1 0.8639 
02-May-2018_14:40:48 Exp 7303 28 male R 3 5 6 moralSelf moralSelf match m m 1 0.6090 
02-May-2018_14:40:50 Exp 7303 28 male R 3 5 7 immoralOther immoralOther match m m 1 0.7450 
02-May-2018_14:40:52 Exp 7303 28 male R 3 5 8 moralOther immoralOther mismatch n n 1 0.5757 
02-May-2018_14:40:54 Exp 7303 28 male R 3 5 9 immoralSelf immoralSelf match m m 1 0.6591 
02-May-2018_14:40:56 Exp 7303 28 male R 3 5 10 immoralSelf moralOther mismatch n n 1 0.7562 
02-May-2018_14:40:59 Exp 7303 28 male R 3 5 11 moralOther moralOther match m m 1 0.8951 
02-May-2018_14:41:01 Exp 7303 28 male R 3 5 12 moralSelf moralSelf match m m 1 0.6049 
02-May-2018_14:41:03 Exp 7303 28 male R 3 5 13 moralSelf moralSelf match m m 1 0.6806 
02-May-2018_14:41:05 Exp 7303 28 male R 3 5 14 immoralOther immoralOther match m n 0 0.5344 
02-May-2018_14:41:07 Exp 7303 28 male R 3 5 15 immoralOther immoralOther match m m 1 0.6328 
02-May-2018_14:41:09 Exp 7303 28 male R 3 5 16 immoralOther moralSelf mismatch n n 1 0.7214 
02-May-2018_14:41:11 Exp 7303 28 male R 3 5 17 moralSelf immoralSelf mismatch n n 1 0.6876 
02-May-2018_14:41:13 Exp 7303 28 male R 3 5 18 moralOther moralOther match m n 0 0.6730 
02-May-2018_14:41:15 Exp 7303 28 male R 3 5 19 immoralOther immoralSelf mismatch n n 1 0.5823 
02-May-2018_14:41:17 Exp 7303 28 male R 3 5 20 moralOther moralSelf mismatch n m 0 0.5057 
02-May-2018_14:41:19 Exp 7303 28 male R 3 5 21 immoralSelf immoralSelf match m m 1 0.5477 
02-May-2018_14:41:21 Exp 7303 28 male R 3 5 22 moralSelf immoralSelf mismatch n n 1 0.8023 
02-May-2018_14:41:23 Exp 7303 28 male R 3 5 23 immoralSelf moralSelf mismatch n n 1 0.7662 
02-May-2018_14:41:25 Exp 7303 28 male R 3 5 24 immoralSelf immoralSelf match m m 1 0.7414 
