Date Prac Sub Age Sex Hand Block Bin Trial Shape Label Match CorrResp Resp ACC RT
01-Jun-2018_14:43:22 Exp 7337 22 male R 1 1 1 immoralSelf immoralSelf match n NA -1 1.0841 
01-Jun-2018_14:43:24 Exp 7337 22 male R 1 1 2 immoralSelf moralOther mismatch m m 1 0.4816 
01-Jun-2018_14:43:27 Exp 7337 22 male R 1 1 3 moralOther moralOther match n n 1 0.6680 
01-Jun-2018_14:43:29 Exp 7337 22 male R 1 1 4 moralSelf immoralOther mismatch m m 1 0.9222 
01-Jun-2018_14:43:32 Exp 7337 22 male R 1 1 5 immoralOther moralSelf mismatch m m 1 0.6014 
01-Jun-2018_14:43:34 Exp 7337 22 male R 1 1 6 immoralOther moralSelf mismatch m m 1 0.5502 
01-Jun-2018_14:43:36 Exp 7337 22 male R 1 1 7 moralOther immoralOther mismatch m m 1 0.8420 
01-Jun-2018_14:43:38 Exp 7337 22 male R 1 1 8 immoralOther immoralOther match n n 1 0.4115 
01-Jun-2018_14:43:41 Exp 7337 22 male R 1 1 9 immoralSelf moralSelf mismatch m m 1 0.6766 
01-Jun-2018_14:43:43 Exp 7337 22 male R 1 1 10 immoralOther immoralOther match n n 1 0.5948 
01-Jun-2018_14:43:45 Exp 7337 22 male R 1 1 11 moralOther immoralSelf mismatch m m 1 0.5553 
01-Jun-2018_14:43:47 Exp 7337 22 male R 1 1 12 moralOther moralOther match n m 0 0.6792 
01-Jun-2018_14:43:49 Exp 7337 22 male R 1 1 13 immoralSelf immoralSelf match n n 1 0.5894 
01-Jun-2018_14:43:52 Exp 7337 22 male R 1 1 14 moralSelf immoralOther mismatch m m 1 0.6539 
01-Jun-2018_14:43:54 Exp 7337 22 male R 1 1 15 immoralSelf moralSelf mismatch m m 1 0.6597 
01-Jun-2018_14:43:56 Exp 7337 22 male R 1 1 16 immoralOther immoralOther match n n 1 0.5576 
01-Jun-2018_14:43:59 Exp 7337 22 male R 1 1 17 moralSelf immoralOther mismatch m m 1 0.8495 
01-Jun-2018_14:44:01 Exp 7337 22 male R 1 1 18 moralSelf moralSelf match n n 1 0.4393 
01-Jun-2018_14:44:03 Exp 7337 22 male R 1 1 19 moralOther immoralSelf mismatch m m 1 0.5768 
01-Jun-2018_14:44:05 Exp 7337 22 male R 1 1 20 moralSelf moralSelf match n n 1 0.5251 
01-Jun-2018_14:44:07 Exp 7337 22 male R 1 1 21 moralSelf moralSelf match n n 1 0.4922 
01-Jun-2018_14:44:10 Exp 7337 22 male R 1 1 22 moralOther moralOther match n n 1 0.7309 
01-Jun-2018_14:44:12 Exp 7337 22 male R 1 1 23 immoralOther moralOther mismatch m m 1 0.6463 
01-Jun-2018_14:44:14 Exp 7337 22 male R 1 1 24 immoralSelf immoralSelf match n n 1 0.6920 
01-Jun-2018_14:44:17 Exp 7337 22 male R 1 2 1 immoralOther immoralOther match n n 1 0.6470 
01-Jun-2018_14:44:19 Exp 7337 22 male R 1 2 2 moralOther moralSelf mismatch m m 1 0.5887 
01-Jun-2018_14:44:21 Exp 7337 22 male R 1 2 3 immoralSelf immoralSelf match n n 1 0.6372 
01-Jun-2018_14:44:23 Exp 7337 22 male R 1 2 4 moralSelf moralSelf match n n 1 0.5588 
01-Jun-2018_14:44:26 Exp 7337 22 male R 1 2 5 moralOther immoralOther mismatch m m 1 0.9786 
01-Jun-2018_14:44:28 Exp 7337 22 male R 1 2 6 moralSelf moralSelf match n n 1 0.5829 
01-Jun-2018_14:44:30 Exp 7337 22 male R 1 2 7 immoralOther immoralSelf mismatch m m 1 0.7313 
01-Jun-2018_14:44:33 Exp 7337 22 male R 1 2 8 immoralSelf moralOther mismatch m m 1 0.6546 
01-Jun-2018_14:44:35 Exp 7337 22 male R 1 2 9 moralOther immoralSelf mismatch m m 1 0.6284 
01-Jun-2018_14:44:37 Exp 7337 22 male R 1 2 10 immoralSelf immoralSelf match n n 1 0.4896 
01-Jun-2018_14:44:39 Exp 7337 22 male R 1 2 11 moralSelf moralSelf match n n 1 0.5561 
01-Jun-2018_14:44:41 Exp 7337 22 male R 1 2 12 immoralSelf immoralSelf match n n 1 0.5200 
01-Jun-2018_14:44:44 Exp 7337 22 male R 1 2 13 moralSelf immoralOther mismatch m m 1 0.5271 
01-Jun-2018_14:44:46 Exp 7337 22 male R 1 2 14 moralOther moralOther match n m 0 0.5945 
01-Jun-2018_14:44:48 Exp 7337 22 male R 1 2 15 immoralOther moralSelf mismatch m m 1 0.8190 
01-Jun-2018_14:44:50 Exp 7337 22 male R 1 2 16 moralSelf immoralSelf mismatch m m 1 0.6201 
01-Jun-2018_14:44:53 Exp 7337 22 male R 1 2 17 immoralOther immoralOther match n n 1 0.5171 
01-Jun-2018_14:44:55 Exp 7337 22 male R 1 2 18 moralOther moralOther match n m 0 0.8042 
01-Jun-2018_14:44:57 Exp 7337 22 male R 1 2 19 moralOther moralOther match n n 1 0.6411 
01-Jun-2018_14:45:00 Exp 7337 22 male R 1 2 20 immoralOther immoralSelf mismatch m n 0 0.8265 
01-Jun-2018_14:45:02 Exp 7337 22 male R 1 2 21 immoralSelf moralSelf mismatch m m 1 0.5838 
01-Jun-2018_14:45:04 Exp 7337 22 male R 1 2 22 immoralOther immoralOther match n n 1 0.5321 
01-Jun-2018_14:45:07 Exp 7337 22 male R 1 2 23 immoralSelf moralSelf mismatch m m 1 0.7276 
01-Jun-2018_14:45:09 Exp 7337 22 male R 1 2 24 moralSelf immoralSelf mismatch m m 1 0.9068 
01-Jun-2018_14:45:12 Exp 7337 22 male R 1 3 1 moralOther moralOther match n n 1 0.8544 
01-Jun-2018_14:45:14 Exp 7337 22 male R 1 3 2 moralOther moralSelf mismatch m m 1 0.7320 
01-Jun-2018_14:45:16 Exp 7337 22 male R 1 3 3 moralSelf moralOther mismatch m m 1 0.7674 
01-Jun-2018_14:45:19 Exp 7337 22 male R 1 3 4 immoralSelf immoralSelf match n n 1 0.5036 
01-Jun-2018_14:45:21 Exp 7337 22 male R 1 3 5 moralOther immoralSelf mismatch m m 1 0.6905 
01-Jun-2018_14:45:23 Exp 7337 22 male R 1 3 6 immoralSelf moralOther mismatch m m 1 0.7730 
01-Jun-2018_14:45:25 Exp 7337 22 male R 1 3 7 moralSelf moralOther mismatch m m 1 0.6130 
01-Jun-2018_14:45:28 Exp 7337 22 male R 1 3 8 immoralOther immoralOther match n n 1 0.5260 
01-Jun-2018_14:45:30 Exp 7337 22 male R 1 3 9 immoralOther immoralOther match n n 1 0.6771 
01-Jun-2018_14:45:32 Exp 7337 22 male R 1 3 10 immoralOther moralSelf mismatch m m 1 0.6914 
01-Jun-2018_14:45:35 Exp 7337 22 male R 1 3 11 moralSelf moralSelf match n m 0 0.8260 
01-Jun-2018_14:45:37 Exp 7337 22 male R 1 3 12 moralSelf moralSelf match n n 1 0.4234 
01-Jun-2018_14:45:39 Exp 7337 22 male R 1 3 13 immoralOther moralOther mismatch m m 1 0.6046 
01-Jun-2018_14:45:41 Exp 7337 22 male R 1 3 14 immoralOther moralOther mismatch m m 1 0.6094 
01-Jun-2018_14:45:43 Exp 7337 22 male R 1 3 15 moralSelf moralSelf match n n 1 0.5384 
01-Jun-2018_14:45:46 Exp 7337 22 male R 1 3 16 moralSelf moralOther mismatch m n 0 0.8820 
01-Jun-2018_14:45:48 Exp 7337 22 male R 1 3 17 immoralSelf immoralOther mismatch m m 1 0.7884 
01-Jun-2018_14:45:51 Exp 7337 22 male R 1 3 18 immoralOther immoralOther match n n 1 0.5170 
01-Jun-2018_14:45:53 Exp 7337 22 male R 1 3 19 immoralSelf immoralSelf match n n 1 1.0201 
01-Jun-2018_14:45:56 Exp 7337 22 male R 1 3 20 immoralSelf immoralOther mismatch m n 0 0.7173 
01-Jun-2018_14:45:58 Exp 7337 22 male R 1 3 21 moralOther moralSelf mismatch m m 1 0.9964 
01-Jun-2018_14:46:00 Exp 7337 22 male R 1 3 22 immoralSelf immoralSelf match n n 1 0.5730 
01-Jun-2018_14:46:03 Exp 7337 22 male R 1 3 23 moralOther moralOther match n n 1 0.8451 
01-Jun-2018_14:46:05 Exp 7337 22 male R 1 3 24 moralOther moralOther match n n 1 0.4508 
01-Jun-2018_14:46:12 Exp 7337 22 male R 1 4 1 moralSelf immoralOther mismatch m m 1 0.9254 
01-Jun-2018_14:46:14 Exp 7337 22 male R 1 4 2 immoralOther immoralOther match n n 1 0.5006 
01-Jun-2018_14:46:17 Exp 7337 22 male R 1 4 3 moralSelf moralSelf match n n 1 0.8593 
01-Jun-2018_14:46:19 Exp 7337 22 male R 1 4 4 immoralOther immoralOther match n n 1 0.6852 
01-Jun-2018_14:46:21 Exp 7337 22 male R 1 4 5 immoralOther moralOther mismatch m m 1 0.5437 
01-Jun-2018_14:46:23 Exp 7337 22 male R 1 4 6 moralOther moralOther match n n 1 0.6153 
01-Jun-2018_14:46:25 Exp 7337 22 male R 1 4 7 immoralOther immoralSelf mismatch m m 1 0.5524 
01-Jun-2018_14:46:28 Exp 7337 22 male R 1 4 8 immoralSelf moralSelf mismatch m m 1 0.8442 
01-Jun-2018_14:46:30 Exp 7337 22 male R 1 4 9 immoralSelf immoralSelf match n n 1 0.6820 
01-Jun-2018_14:46:32 Exp 7337 22 male R 1 4 10 immoralSelf immoralSelf match n n 1 0.5804 
01-Jun-2018_14:46:35 Exp 7337 22 male R 1 4 11 moralSelf moralSelf match n m 0 0.7127 
01-Jun-2018_14:46:37 Exp 7337 22 male R 1 4 12 immoralSelf moralSelf mismatch m m 1 0.8276 
01-Jun-2018_14:46:40 Exp 7337 22 male R 1 4 13 immoralSelf immoralSelf match n n 1 0.7689 
01-Jun-2018_14:46:42 Exp 7337 22 male R 1 4 14 moralOther moralOther match n n 1 0.6810 
01-Jun-2018_14:46:44 Exp 7337 22 male R 1 4 15 moralSelf immoralSelf mismatch m m 1 0.8274 
01-Jun-2018_14:46:47 Exp 7337 22 male R 1 4 16 immoralSelf immoralOther mismatch m m 1 0.7207 
01-Jun-2018_14:46:49 Exp 7337 22 male R 1 4 17 moralOther immoralOther mismatch m m 1 0.7199 
01-Jun-2018_14:46:51 Exp 7337 22 male R 1 4 18 moralOther moralOther match n n 1 0.6470 
01-Jun-2018_14:46:54 Exp 7337 22 male R 1 4 19 moralSelf moralSelf match n m 0 0.7328 
01-Jun-2018_14:46:56 Exp 7337 22 male R 1 4 20 moralOther immoralOther mismatch m m 1 0.6401 
01-Jun-2018_14:46:58 Exp 7337 22 male R 1 4 21 immoralOther immoralOther match n n 1 0.5216 
01-Jun-2018_14:47:00 Exp 7337 22 male R 1 4 22 immoralOther moralSelf mismatch m m 1 0.5608 
01-Jun-2018_14:47:03 Exp 7337 22 male R 1 4 23 moralOther moralSelf mismatch m m 1 0.7406 
01-Jun-2018_14:47:05 Exp 7337 22 male R 1 4 24 moralSelf moralOther mismatch m n 0 0.7883 
01-Jun-2018_14:47:07 Exp 7337 22 male R 1 5 1 moralSelf immoralOther mismatch m m 1 0.5408 
01-Jun-2018_14:47:10 Exp 7337 22 male R 1 5 2 moralOther immoralOther mismatch m m 1 0.6204 
01-Jun-2018_14:47:12 Exp 7337 22 male R 1 5 3 moralOther moralOther match n m 0 0.8375 
01-Jun-2018_14:47:15 Exp 7337 22 male R 1 5 4 immoralSelf immoralOther mismatch m m 1 0.7670 
01-Jun-2018_14:47:17 Exp 7337 22 male R 1 5 5 moralOther moralOther match n n 1 0.7350 
01-Jun-2018_14:47:19 Exp 7337 22 male R 1 5 6 immoralSelf immoralSelf match n n 1 0.6745 
01-Jun-2018_14:47:21 Exp 7337 22 male R 1 5 7 immoralOther immoralOther match n n 1 0.6408 
01-Jun-2018_14:47:24 Exp 7337 22 male R 1 5 8 immoralOther immoralOther match n n 1 0.6741 
01-Jun-2018_14:47:26 Exp 7337 22 male R 1 5 9 immoralSelf immoralOther mismatch m m 1 0.6963 
01-Jun-2018_14:47:29 Exp 7337 22 male R 1 5 10 immoralSelf immoralSelf match n n 1 0.8071 
01-Jun-2018_14:47:31 Exp 7337 22 male R 1 5 11 moralSelf moralSelf match n n 1 0.7078 
01-Jun-2018_14:47:33 Exp 7337 22 male R 1 5 12 moralSelf moralOther mismatch m m 1 0.7748 
01-Jun-2018_14:47:35 Exp 7337 22 male R 1 5 13 moralOther moralOther match n n 1 0.5952 
01-Jun-2018_14:47:38 Exp 7337 22 male R 1 5 14 moralOther immoralOther mismatch m m 1 0.7638 
01-Jun-2018_14:47:40 Exp 7337 22 male R 1 5 15 immoralSelf moralSelf mismatch m n 0 0.8518 
01-Jun-2018_14:47:43 Exp 7337 22 male R 1 5 16 immoralOther immoralSelf mismatch m m 1 0.5775 
01-Jun-2018_14:47:45 Exp 7337 22 male R 1 5 17 immoralSelf immoralSelf match n n 1 0.7018 
01-Jun-2018_14:47:48 Exp 7337 22 male R 1 5 18 moralOther immoralOther mismatch m m 1 1.0766 
01-Jun-2018_14:47:50 Exp 7337 22 male R 1 5 19 moralSelf moralOther mismatch m m 1 0.9708 
01-Jun-2018_14:47:52 Exp 7337 22 male R 1 5 20 immoralOther moralOther mismatch m m 1 0.6428 
01-Jun-2018_14:47:55 Exp 7337 22 male R 1 5 21 immoralOther immoralOther match n n 1 0.7163 
01-Jun-2018_14:47:57 Exp 7337 22 male R 1 5 22 moralSelf moralSelf match n m 0 0.8835 
01-Jun-2018_14:48:00 Exp 7337 22 male R 1 5 23 immoralOther immoralSelf mismatch m n 0 0.6139 
01-Jun-2018_14:48:02 Exp 7337 22 male R 1 5 24 moralSelf moralSelf match n n 1 0.7350 
01-Jun-2018_14:48:08 Exp 7337 22 male R 2 1 1 moralSelf moralSelf match n n 1 1.0072 
01-Jun-2018_14:48:10 Exp 7337 22 male R 2 1 2 immoralOther immoralOther match n n 1 1.0120 
01-Jun-2018_14:48:13 Exp 7337 22 male R 2 1 3 immoralSelf immoralSelf match n n 1 0.5890 
01-Jun-2018_14:48:15 Exp 7337 22 male R 2 1 4 immoralSelf moralOther mismatch m m 1 0.6856 
01-Jun-2018_14:48:17 Exp 7337 22 male R 2 1 5 moralOther moralOther match n n 1 0.8320 
01-Jun-2018_14:48:20 Exp 7337 22 male R 2 1 6 moralOther moralSelf mismatch m m 1 0.7253 
01-Jun-2018_14:48:22 Exp 7337 22 male R 2 1 7 immoralSelf moralSelf mismatch m m 1 0.8765 
01-Jun-2018_14:48:24 Exp 7337 22 male R 2 1 8 immoralOther moralSelf mismatch m m 1 0.6427 
01-Jun-2018_14:48:27 Exp 7337 22 male R 2 1 9 immoralOther immoralOther match n n 1 0.5483 
01-Jun-2018_14:48:29 Exp 7337 22 male R 2 1 10 immoralSelf immoralSelf match n n 1 0.8358 
01-Jun-2018_14:48:31 Exp 7337 22 male R 2 1 11 immoralSelf moralOther mismatch m m 1 0.5812 
01-Jun-2018_14:48:34 Exp 7337 22 male R 2 1 12 immoralOther immoralSelf mismatch m m 1 0.6176 
01-Jun-2018_14:48:36 Exp 7337 22 male R 2 1 13 moralOther moralOther match n n 1 0.6027 
01-Jun-2018_14:48:38 Exp 7337 22 male R 2 1 14 immoralSelf immoralSelf match n n 1 0.5674 
01-Jun-2018_14:48:40 Exp 7337 22 male R 2 1 15 moralSelf immoralSelf mismatch m m 1 0.7196 
01-Jun-2018_14:48:43 Exp 7337 22 male R 2 1 16 moralOther moralOther match n n 1 0.5828 
01-Jun-2018_14:48:45 Exp 7337 22 male R 2 1 17 moralOther immoralSelf mismatch m m 1 0.5950 
01-Jun-2018_14:48:47 Exp 7337 22 male R 2 1 18 moralSelf immoralSelf mismatch m m 1 0.7316 
01-Jun-2018_14:48:49 Exp 7337 22 male R 2 1 19 moralOther immoralSelf mismatch m m 1 0.5990 
01-Jun-2018_14:48:52 Exp 7337 22 male R 2 1 20 immoralOther immoralOther match n n 1 0.5717 
01-Jun-2018_14:48:54 Exp 7337 22 male R 2 1 21 moralSelf moralSelf match n n 1 0.5158 
01-Jun-2018_14:48:56 Exp 7337 22 male R 2 1 22 moralSelf moralSelf match n n 1 0.4351 
01-Jun-2018_14:48:58 Exp 7337 22 male R 2 1 23 moralSelf immoralOther mismatch m m 1 0.5885 
01-Jun-2018_14:49:00 Exp 7337 22 male R 2 1 24 immoralOther immoralSelf mismatch m m 1 0.6371 
01-Jun-2018_14:49:03 Exp 7337 22 male R 2 2 1 moralOther moralOther match n n 1 0.6466 
01-Jun-2018_14:49:05 Exp 7337 22 male R 2 2 2 immoralSelf immoralSelf match n n 1 0.5563 
01-Jun-2018_14:49:07 Exp 7337 22 male R 2 2 3 immoralSelf immoralOther mismatch m m 1 0.6642 
01-Jun-2018_14:49:09 Exp 7337 22 male R 2 2 4 moralSelf moralSelf match n n 1 0.5141 
01-Jun-2018_14:49:12 Exp 7337 22 male R 2 2 5 immoralSelf immoralSelf match n NA -1 1.0841 
01-Jun-2018_14:49:14 Exp 7337 22 male R 2 2 6 immoralSelf immoralSelf match n n 1 0.6715 
01-Jun-2018_14:49:16 Exp 7337 22 male R 2 2 7 immoralOther immoralOther match n n 1 0.5578 
01-Jun-2018_14:49:19 Exp 7337 22 male R 2 2 8 moralOther immoralSelf mismatch m m 1 0.7615 
01-Jun-2018_14:49:21 Exp 7337 22 male R 2 2 9 moralOther moralOther match n NA -1 1.0841 
01-Jun-2018_14:49:24 Exp 7337 22 male R 2 2 10 immoralOther immoralSelf mismatch m m 1 0.9358 
01-Jun-2018_14:49:26 Exp 7337 22 male R 2 2 11 immoralSelf moralSelf mismatch m m 1 0.6913 
01-Jun-2018_14:49:29 Exp 7337 22 male R 2 2 12 moralSelf immoralSelf mismatch m m 1 0.7619 
01-Jun-2018_14:49:31 Exp 7337 22 male R 2 2 13 immoralOther immoralOther match n n 1 0.7460 
01-Jun-2018_14:49:33 Exp 7337 22 male R 2 2 14 moralOther moralSelf mismatch m m 1 0.6416 
01-Jun-2018_14:49:36 Exp 7337 22 male R 2 2 15 moralSelf moralOther mismatch m n 0 0.8191 
01-Jun-2018_14:49:39 Exp 7337 22 male R 2 2 16 immoralOther immoralOther match n n 1 1.0602 
01-Jun-2018_14:49:41 Exp 7337 22 male R 2 2 17 moralOther moralSelf mismatch m m 1 0.8222 
01-Jun-2018_14:49:43 Exp 7337 22 male R 2 2 18 moralSelf immoralOther mismatch m m 1 0.7554 
01-Jun-2018_14:49:46 Exp 7337 22 male R 2 2 19 immoralSelf immoralOther mismatch m m 1 0.7273 
01-Jun-2018_14:49:48 Exp 7337 22 male R 2 2 20 moralSelf moralSelf match n n 1 0.6347 
01-Jun-2018_14:49:50 Exp 7337 22 male R 2 2 21 immoralOther immoralSelf mismatch m m 1 0.6362 
01-Jun-2018_14:49:53 Exp 7337 22 male R 2 2 22 moralSelf moralSelf match n n 1 0.6377 
01-Jun-2018_14:49:55 Exp 7337 22 male R 2 2 23 moralOther moralOther match n m 0 0.7432 
01-Jun-2018_14:49:58 Exp 7337 22 male R 2 2 24 immoralOther immoralSelf mismatch m m 1 1.0149 
01-Jun-2018_14:50:00 Exp 7337 22 male R 2 3 1 immoralOther immoralOther match n n 1 0.6159 
01-Jun-2018_14:50:02 Exp 7337 22 male R 2 3 2 moralOther immoralOther mismatch m m 1 0.9929 
01-Jun-2018_14:50:05 Exp 7337 22 male R 2 3 3 moralSelf moralSelf match n n 1 0.9055 
01-Jun-2018_14:50:08 Exp 7337 22 male R 2 3 4 moralOther immoralSelf mismatch m m 1 0.9404 
01-Jun-2018_14:50:10 Exp 7337 22 male R 2 3 5 moralOther moralOther match n NA -1 1.0841 
01-Jun-2018_14:50:13 Exp 7337 22 male R 2 3 6 immoralSelf immoralSelf match n n 1 0.6626 
01-Jun-2018_14:50:15 Exp 7337 22 male R 2 3 7 immoralOther immoralSelf mismatch m m 1 0.5845 
01-Jun-2018_14:50:17 Exp 7337 22 male R 2 3 8 immoralSelf immoralSelf match n n 1 0.8449 
01-Jun-2018_14:50:20 Exp 7337 22 male R 2 3 9 immoralSelf moralOther mismatch m m 1 1.0185 
01-Jun-2018_14:50:22 Exp 7337 22 male R 2 3 10 moralSelf moralSelf match n n 1 0.5077 
01-Jun-2018_14:50:24 Exp 7337 22 male R 2 3 11 immoralSelf moralOther mismatch m m 1 0.6945 
01-Jun-2018_14:50:27 Exp 7337 22 male R 2 3 12 immoralOther immoralOther match n n 1 0.5252 
01-Jun-2018_14:50:29 Exp 7337 22 male R 2 3 13 moralSelf immoralSelf mismatch m m 1 0.6683 
01-Jun-2018_14:50:31 Exp 7337 22 male R 2 3 14 immoralSelf immoralSelf match n n 1 0.5385 
01-Jun-2018_14:50:33 Exp 7337 22 male R 2 3 15 moralOther immoralSelf mismatch m m 1 0.6102 
01-Jun-2018_14:50:36 Exp 7337 22 male R 2 3 16 moralSelf immoralSelf mismatch m m 1 0.6432 
01-Jun-2018_14:50:38 Exp 7337 22 male R 2 3 17 immoralOther moralOther mismatch m m 1 0.6686 
01-Jun-2018_14:50:40 Exp 7337 22 male R 2 3 18 moralSelf moralSelf match n m 0 0.5469 
01-Jun-2018_14:50:42 Exp 7337 22 male R 2 3 19 moralSelf immoralOther mismatch m m 1 0.6425 
01-Jun-2018_14:50:45 Exp 7337 22 male R 2 3 20 moralOther moralOther match n m 0 0.8760 
01-Jun-2018_14:50:47 Exp 7337 22 male R 2 3 21 immoralSelf moralOther mismatch m m 1 0.5862 
01-Jun-2018_14:50:49 Exp 7337 22 male R 2 3 22 immoralOther immoralOther match n n 1 0.5468 
01-Jun-2018_14:50:51 Exp 7337 22 male R 2 3 23 immoralOther immoralSelf mismatch m m 1 0.6264 
01-Jun-2018_14:50:54 Exp 7337 22 male R 2 3 24 moralOther moralOther match n n 1 0.6637 
01-Jun-2018_14:51:05 Exp 7337 22 male R 2 4 1 moralOther moralOther match n n 1 0.6377 
01-Jun-2018_14:51:08 Exp 7337 22 male R 2 4 2 moralOther immoralSelf mismatch m m 1 0.9512 
01-Jun-2018_14:51:10 Exp 7337 22 male R 2 4 3 moralSelf moralSelf match n n 1 0.6912 
01-Jun-2018_14:51:13 Exp 7337 22 male R 2 4 4 immoralSelf immoralSelf match n m 0 0.5698 
01-Jun-2018_14:51:15 Exp 7337 22 male R 2 4 5 immoralSelf immoralSelf match n n 1 0.8180 
01-Jun-2018_14:51:18 Exp 7337 22 male R 2 4 6 immoralOther immoralSelf mismatch m m 1 0.8589 
01-Jun-2018_14:51:20 Exp 7337 22 male R 2 4 7 moralOther immoralSelf mismatch m m 1 0.5570 
01-Jun-2018_14:51:22 Exp 7337 22 male R 2 4 8 moralSelf immoralSelf mismatch m m 1 0.8967 
01-Jun-2018_14:51:24 Exp 7337 22 male R 2 4 9 immoralOther moralSelf mismatch m n 0 0.4715 
01-Jun-2018_14:51:27 Exp 7337 22 male R 2 4 10 moralOther moralOther match n n 1 0.7016 
01-Jun-2018_14:51:29 Exp 7337 22 male R 2 4 11 immoralSelf moralSelf mismatch m m 1 0.5884 
01-Jun-2018_14:51:31 Exp 7337 22 male R 2 4 12 moralSelf immoralSelf mismatch m m 1 0.8129 
01-Jun-2018_14:51:34 Exp 7337 22 male R 2 4 13 immoralOther immoralSelf mismatch m m 1 0.9020 
01-Jun-2018_14:51:36 Exp 7337 22 male R 2 4 14 moralSelf moralSelf match n n 1 0.5726 
01-Jun-2018_14:51:38 Exp 7337 22 male R 2 4 15 moralOther moralSelf mismatch m m 1 0.6847 
01-Jun-2018_14:51:41 Exp 7337 22 male R 2 4 16 moralSelf moralSelf match n n 1 0.6791 
01-Jun-2018_14:51:43 Exp 7337 22 male R 2 4 17 immoralOther immoralOther match n n 1 0.5255 
01-Jun-2018_14:51:45 Exp 7337 22 male R 2 4 18 moralSelf immoralOther mismatch m m 1 0.5326 
01-Jun-2018_14:51:47 Exp 7337 22 male R 2 4 19 immoralSelf immoralSelf match n m 0 0.8720 
01-Jun-2018_14:51:50 Exp 7337 22 male R 2 4 20 moralOther moralOther match n n 1 0.8622 
01-Jun-2018_14:51:52 Exp 7337 22 male R 2 4 21 immoralOther immoralOther match n n 1 0.5761 
01-Jun-2018_14:51:54 Exp 7337 22 male R 2 4 22 immoralSelf moralSelf mismatch m m 1 0.6284 
01-Jun-2018_14:51:57 Exp 7337 22 male R 2 4 23 immoralOther immoralOther match n n 1 0.5937 
01-Jun-2018_14:51:59 Exp 7337 22 male R 2 4 24 immoralSelf immoralOther mismatch m m 1 0.5142 
01-Jun-2018_14:52:01 Exp 7337 22 male R 2 5 1 immoralOther immoralOther match n n 1 0.5812 
01-Jun-2018_14:52:03 Exp 7337 22 male R 2 5 2 moralOther immoralSelf mismatch m n 0 0.7135 
01-Jun-2018_14:52:06 Exp 7337 22 male R 2 5 3 immoralSelf immoralSelf match n m 0 0.6765 
01-Jun-2018_14:52:08 Exp 7337 22 male R 2 5 4 immoralOther immoralSelf mismatch m m 1 0.6426 
01-Jun-2018_14:52:10 Exp 7337 22 male R 2 5 5 moralOther immoralOther mismatch m m 1 0.7802 
01-Jun-2018_14:52:13 Exp 7337 22 male R 2 5 6 moralOther moralOther match n n 1 0.7446 
01-Jun-2018_14:52:15 Exp 7337 22 male R 2 5 7 immoralOther immoralOther match n m 0 0.7920 
01-Jun-2018_14:52:17 Exp 7337 22 male R 2 5 8 moralSelf moralOther mismatch m n 0 0.6806 
01-Jun-2018_14:52:20 Exp 7337 22 male R 2 5 9 immoralSelf immoralOther mismatch m m 1 0.8110 
01-Jun-2018_14:52:22 Exp 7337 22 male R 2 5 10 immoralSelf moralSelf mismatch m m 1 0.6682 
01-Jun-2018_14:52:25 Exp 7337 22 male R 2 5 11 moralSelf moralOther mismatch m m 1 0.8743 
01-Jun-2018_14:52:27 Exp 7337 22 male R 2 5 12 moralSelf moralSelf match n n 1 0.5766 
01-Jun-2018_14:52:29 Exp 7337 22 male R 2 5 13 moralSelf immoralSelf mismatch m m 1 0.6688 
01-Jun-2018_14:52:31 Exp 7337 22 male R 2 5 14 immoralOther moralSelf mismatch m m 1 0.5711 
01-Jun-2018_14:52:34 Exp 7337 22 male R 2 5 15 moralSelf moralSelf match n m 0 0.5711 
01-Jun-2018_14:52:36 Exp 7337 22 male R 2 5 16 immoralSelf immoralSelf match n n 1 0.7713 
01-Jun-2018_14:52:38 Exp 7337 22 male R 2 5 17 immoralOther immoralOther match n n 1 0.5554 
01-Jun-2018_14:52:41 Exp 7337 22 male R 2 5 18 immoralSelf immoralOther mismatch m m 1 0.7992 
01-Jun-2018_14:52:43 Exp 7337 22 male R 2 5 19 immoralOther moralOther mismatch m m 1 0.5879 
01-Jun-2018_14:52:45 Exp 7337 22 male R 2 5 20 moralOther moralOther match n n 1 0.7167 
01-Jun-2018_14:52:48 Exp 7337 22 male R 2 5 21 immoralSelf immoralSelf match n n 1 0.6437 
01-Jun-2018_14:52:50 Exp 7337 22 male R 2 5 22 moralOther moralOther match n n 1 0.7812 
01-Jun-2018_14:52:52 Exp 7337 22 male R 2 5 23 moralOther immoralOther mismatch m m 1 0.6015 
01-Jun-2018_14:52:54 Exp 7337 22 male R 2 5 24 moralSelf moralSelf match n n 1 0.6143 
01-Jun-2018_14:53:00 Exp 7337 22 male R 3 1 1 moralSelf moralSelf match n n 1 0.9001 
01-Jun-2018_14:53:02 Exp 7337 22 male R 3 1 2 moralOther immoralSelf mismatch m m 1 0.7068 
01-Jun-2018_14:53:05 Exp 7337 22 male R 3 1 3 immoralSelf immoralSelf match n m 0 0.5898 
01-Jun-2018_14:53:07 Exp 7337 22 male R 3 1 4 moralOther immoralOther mismatch m n 0 0.8704 
01-Jun-2018_14:53:09 Exp 7337 22 male R 3 1 5 immoralOther immoralSelf mismatch m m 1 0.6686 
01-Jun-2018_14:53:12 Exp 7337 22 male R 3 1 6 moralSelf immoralOther mismatch m m 1 0.8429 
01-Jun-2018_14:53:14 Exp 7337 22 male R 3 1 7 immoralOther immoralOther match n n 1 0.7323 
01-Jun-2018_14:53:16 Exp 7337 22 male R 3 1 8 moralOther moralOther match n n 1 0.5836 
01-Jun-2018_14:53:19 Exp 7337 22 male R 3 1 9 immoralOther moralSelf mismatch m m 1 0.9561 
01-Jun-2018_14:53:21 Exp 7337 22 male R 3 1 10 moralOther immoralSelf mismatch m m 1 0.7199 
01-Jun-2018_14:53:24 Exp 7337 22 male R 3 1 11 moralSelf moralSelf match n n 1 0.7190 
01-Jun-2018_14:53:26 Exp 7337 22 male R 3 1 12 immoralOther immoralOther match n n 1 0.6782 
01-Jun-2018_14:53:28 Exp 7337 22 male R 3 1 13 immoralSelf moralOther mismatch m m 1 0.6204 
01-Jun-2018_14:53:31 Exp 7337 22 male R 3 1 14 immoralSelf immoralSelf match n n 1 0.6214 
01-Jun-2018_14:53:33 Exp 7337 22 male R 3 1 15 moralSelf immoralSelf mismatch m m 1 0.6907 
01-Jun-2018_14:53:35 Exp 7337 22 male R 3 1 16 moralOther moralOther match n m 0 0.5252 
01-Jun-2018_14:53:37 Exp 7337 22 male R 3 1 17 moralOther moralOther match n n 1 0.6682 
01-Jun-2018_14:53:40 Exp 7337 22 male R 3 1 18 immoralSelf immoralSelf match n n 1 0.7785 
01-Jun-2018_14:53:42 Exp 7337 22 male R 3 1 19 immoralSelf moralOther mismatch m m 1 0.6868 
01-Jun-2018_14:53:44 Exp 7337 22 male R 3 1 20 moralSelf moralSelf match n n 1 0.7293 
01-Jun-2018_14:53:47 Exp 7337 22 male R 3 1 21 immoralSelf immoralOther mismatch m m 1 0.7807 
01-Jun-2018_14:53:49 Exp 7337 22 male R 3 1 22 immoralOther moralOther mismatch m m 1 0.5770 
01-Jun-2018_14:53:51 Exp 7337 22 male R 3 1 23 immoralOther immoralOther match n n 1 0.5652 
01-Jun-2018_14:53:54 Exp 7337 22 male R 3 1 24 moralSelf immoralSelf mismatch m m 1 0.7494 
01-Jun-2018_14:53:56 Exp 7337 22 male R 3 2 1 moralSelf moralOther mismatch m m 1 0.5410 
01-Jun-2018_14:53:58 Exp 7337 22 male R 3 2 2 moralOther moralOther match n n 1 0.8206 
01-Jun-2018_14:54:00 Exp 7337 22 male R 3 2 3 immoralOther immoralOther match n n 1 0.5379 
01-Jun-2018_14:54:03 Exp 7337 22 male R 3 2 4 moralOther immoralOther mismatch m m 1 0.7573 
01-Jun-2018_14:54:05 Exp 7337 22 male R 3 2 5 moralOther moralOther match n n 1 0.8091 
01-Jun-2018_14:54:08 Exp 7337 22 male R 3 2 6 immoralSelf immoralSelf match n n 1 0.9863 
01-Jun-2018_14:54:10 Exp 7337 22 male R 3 2 7 moralOther moralSelf mismatch m m 1 0.9308 
01-Jun-2018_14:54:13 Exp 7337 22 male R 3 2 8 immoralSelf immoralOther mismatch m n 0 0.9021 
01-Jun-2018_14:54:15 Exp 7337 22 male R 3 2 9 immoralSelf immoralSelf match n n 1 0.5968 
01-Jun-2018_14:54:17 Exp 7337 22 male R 3 2 10 moralSelf moralSelf match n n 1 0.6374 
01-Jun-2018_14:54:20 Exp 7337 22 male R 3 2 11 immoralSelf immoralSelf match n m 0 0.6789 
01-Jun-2018_14:54:22 Exp 7337 22 male R 3 2 12 moralOther moralOther match n n 1 0.7011 
01-Jun-2018_14:54:24 Exp 7337 22 male R 3 2 13 moralSelf moralOther mismatch m m 1 0.6598 
01-Jun-2018_14:54:27 Exp 7337 22 male R 3 2 14 immoralOther moralSelf mismatch m m 1 0.6778 
01-Jun-2018_14:54:29 Exp 7337 22 male R 3 2 15 immoralOther moralSelf mismatch m m 1 0.5560 
01-Jun-2018_14:54:31 Exp 7337 22 male R 3 2 16 immoralOther moralOther mismatch m m 1 0.5839 
01-Jun-2018_14:54:33 Exp 7337 22 male R 3 2 17 moralSelf moralSelf match n n 1 0.5882 
01-Jun-2018_14:54:36 Exp 7337 22 male R 3 2 18 moralSelf moralOther mismatch m m 1 0.6766 
01-Jun-2018_14:54:38 Exp 7337 22 male R 3 2 19 immoralSelf moralSelf mismatch m m 1 0.7309 
01-Jun-2018_14:54:40 Exp 7337 22 male R 3 2 20 immoralSelf moralSelf mismatch m m 1 0.5823 
01-Jun-2018_14:54:42 Exp 7337 22 male R 3 2 21 moralSelf moralSelf match n n 1 0.5066 
01-Jun-2018_14:54:45 Exp 7337 22 male R 3 2 22 moralOther immoralOther mismatch m m 1 0.6216 
01-Jun-2018_14:54:47 Exp 7337 22 male R 3 2 23 immoralOther immoralOther match n n 1 0.5467 
01-Jun-2018_14:54:49 Exp 7337 22 male R 3 2 24 immoralOther immoralOther match n n 1 0.4425 
01-Jun-2018_14:54:51 Exp 7337 22 male R 3 3 1 immoralSelf immoralSelf match n n 1 0.9798 
01-Jun-2018_14:54:54 Exp 7337 22 male R 3 3 2 immoralOther immoralOther match n m 0 0.5522 
01-Jun-2018_14:54:56 Exp 7337 22 male R 3 3 3 immoralOther immoralOther match n n 1 0.7081 
01-Jun-2018_14:54:58 Exp 7337 22 male R 3 3 4 immoralOther immoralSelf mismatch m m 1 0.6310 
01-Jun-2018_14:55:01 Exp 7337 22 male R 3 3 5 moralOther moralOther match n n 1 0.8123 
01-Jun-2018_14:55:03 Exp 7337 22 male R 3 3 6 immoralOther moralOther mismatch m n 0 0.5733 
01-Jun-2018_14:55:05 Exp 7337 22 male R 3 3 7 immoralSelf moralSelf mismatch m m 1 0.7574 
01-Jun-2018_14:55:08 Exp 7337 22 male R 3 3 8 moralOther immoralSelf mismatch m m 1 0.8973 
01-Jun-2018_14:55:10 Exp 7337 22 male R 3 3 9 moralOther moralSelf mismatch m m 1 0.5359 
01-Jun-2018_14:55:12 Exp 7337 22 male R 3 3 10 immoralSelf moralOther mismatch m m 1 0.6113 
01-Jun-2018_14:55:15 Exp 7337 22 male R 3 3 11 moralSelf immoralOther mismatch m m 1 0.7323 
01-Jun-2018_14:55:17 Exp 7337 22 male R 3 3 12 immoralSelf immoralSelf match n n 1 0.7917 
01-Jun-2018_14:55:20 Exp 7337 22 male R 3 3 13 immoralOther moralOther mismatch m m 1 1.0083 
01-Jun-2018_14:55:22 Exp 7337 22 male R 3 3 14 moralSelf moralSelf match n m 0 1.0451 
01-Jun-2018_14:55:25 Exp 7337 22 male R 3 3 15 moralSelf moralSelf match n n 1 0.5949 
01-Jun-2018_14:55:27 Exp 7337 22 male R 3 3 16 moralOther moralOther match n n 1 0.7794 
01-Jun-2018_14:55:29 Exp 7337 22 male R 3 3 17 moralSelf immoralOther mismatch m m 1 0.7597 
01-Jun-2018_14:55:32 Exp 7337 22 male R 3 3 18 moralOther immoralSelf mismatch m m 1 0.8836 
01-Jun-2018_14:55:34 Exp 7337 22 male R 3 3 19 immoralSelf immoralSelf match n n 1 0.6300 
01-Jun-2018_14:55:36 Exp 7337 22 male R 3 3 20 moralSelf moralSelf match n n 1 0.6994 
01-Jun-2018_14:55:38 Exp 7337 22 male R 3 3 21 immoralSelf moralOther mismatch m n 0 0.1061 
01-Jun-2018_14:55:41 Exp 7337 22 male R 3 3 22 moralOther moralOther match n n 1 0.9089 
01-Jun-2018_14:55:43 Exp 7337 22 male R 3 3 23 immoralOther immoralOther match n n 1 0.5278 
01-Jun-2018_14:55:45 Exp 7337 22 male R 3 3 24 moralSelf moralOther mismatch m m 1 0.8672 
01-Jun-2018_14:55:56 Exp 7337 22 male R 3 4 1 immoralSelf immoralSelf match n n 1 0.7659 
01-Jun-2018_14:55:58 Exp 7337 22 male R 3 4 2 immoralOther immoralSelf mismatch m m 1 0.7661 
01-Jun-2018_14:56:01 Exp 7337 22 male R 3 4 3 moralSelf moralSelf match n m 0 0.7902 
01-Jun-2018_14:56:03 Exp 7337 22 male R 3 4 4 immoralSelf immoralSelf match n NA -1 1.0841 
01-Jun-2018_14:56:06 Exp 7337 22 male R 3 4 5 moralSelf moralSelf match n m 0 0.8011 
01-Jun-2018_14:56:08 Exp 7337 22 male R 3 4 6 immoralOther moralSelf mismatch m m 1 0.6381 
01-Jun-2018_14:56:10 Exp 7337 22 male R 3 4 7 immoralSelf immoralSelf match n n 1 0.6075 
01-Jun-2018_14:56:13 Exp 7337 22 male R 3 4 8 moralSelf immoralOther mismatch m m 1 0.7962 
01-Jun-2018_14:56:15 Exp 7337 22 male R 3 4 9 moralOther immoralOther mismatch m m 1 0.7569 
01-Jun-2018_14:56:17 Exp 7337 22 male R 3 4 10 immoralSelf moralOther mismatch m m 1 0.6567 
01-Jun-2018_14:56:20 Exp 7337 22 male R 3 4 11 moralOther moralOther match n n 1 0.6427 
01-Jun-2018_14:56:22 Exp 7337 22 male R 3 4 12 moralOther moralOther match n n 1 0.5643 
01-Jun-2018_14:56:24 Exp 7337 22 male R 3 4 13 moralOther immoralOther mismatch m m 1 0.5883 
01-Jun-2018_14:56:26 Exp 7337 22 male R 3 4 14 immoralSelf immoralOther mismatch m m 1 0.5408 
01-Jun-2018_14:56:29 Exp 7337 22 male R 3 4 15 moralSelf moralSelf match n m 0 0.6444 
01-Jun-2018_14:56:31 Exp 7337 22 male R 3 4 16 moralSelf immoralOther mismatch m m 1 0.8102 
01-Jun-2018_14:56:33 Exp 7337 22 male R 3 4 17 immoralOther immoralOther match n n 1 0.5312 
01-Jun-2018_14:56:35 Exp 7337 22 male R 3 4 18 immoralSelf moralOther mismatch m m 1 0.6466 
01-Jun-2018_14:56:38 Exp 7337 22 male R 3 4 19 moralOther moralOther match n n 1 0.6443 
01-Jun-2018_14:56:40 Exp 7337 22 male R 3 4 20 moralOther immoralOther mismatch m m 1 0.7461 
01-Jun-2018_14:56:42 Exp 7337 22 male R 3 4 21 immoralOther moralOther mismatch m m 1 0.7137 
01-Jun-2018_14:56:45 Exp 7337 22 male R 3 4 22 immoralOther immoralOther match n n 1 0.5327 
01-Jun-2018_14:56:47 Exp 7337 22 male R 3 4 23 immoralOther immoralOther match n n 1 0.5359 
01-Jun-2018_14:56:49 Exp 7337 22 male R 3 4 24 moralSelf moralOther mismatch m n 0 0.6674 
01-Jun-2018_14:56:51 Exp 7337 22 male R 3 5 1 moralSelf moralSelf match n n 1 0.8133 
01-Jun-2018_14:56:54 Exp 7337 22 male R 3 5 2 immoralSelf immoralSelf match n n 1 0.6383 
01-Jun-2018_14:56:56 Exp 7337 22 male R 3 5 3 immoralOther immoralOther match n n 1 0.4639 
01-Jun-2018_14:56:58 Exp 7337 22 male R 3 5 4 immoralSelf moralSelf mismatch m m 1 0.6658 
01-Jun-2018_14:57:00 Exp 7337 22 male R 3 5 5 moralSelf moralSelf match n n 1 0.6439 
01-Jun-2018_14:57:03 Exp 7337 22 male R 3 5 6 moralOther immoralSelf mismatch m m 1 0.8052 
01-Jun-2018_14:57:05 Exp 7337 22 male R 3 5 7 moralOther immoralOther mismatch m m 1 0.7622 
01-Jun-2018_14:57:08 Exp 7337 22 male R 3 5 8 immoralOther moralOther mismatch m m 1 0.6502 
01-Jun-2018_14:57:10 Exp 7337 22 male R 3 5 9 moralOther moralOther match n m 0 0.6720 
01-Jun-2018_14:57:12 Exp 7337 22 male R 3 5 10 immoralSelf moralOther mismatch m m 1 0.6062 
01-Jun-2018_14:57:14 Exp 7337 22 male R 3 5 11 immoralOther immoralOther match n n 1 0.5149 
01-Jun-2018_14:57:17 Exp 7337 22 male R 3 5 12 moralSelf immoralOther mismatch m m 1 0.7301 
01-Jun-2018_14:57:19 Exp 7337 22 male R 3 5 13 immoralOther immoralOther match n n 1 0.5095 
01-Jun-2018_14:57:21 Exp 7337 22 male R 3 5 14 moralOther moralSelf mismatch m n 0 0.6964 
01-Jun-2018_14:57:23 Exp 7337 22 male R 3 5 15 immoralSelf immoralSelf match n n 1 0.6311 
01-Jun-2018_14:57:26 Exp 7337 22 male R 3 5 16 moralSelf moralOther mismatch m NA -1 1.0841 
01-Jun-2018_14:57:29 Exp 7337 22 male R 3 5 17 immoralSelf immoralSelf match n n 1 0.8388 
01-Jun-2018_14:57:31 Exp 7337 22 male R 3 5 18 moralOther moralOther match n n 1 0.7044 
01-Jun-2018_14:57:33 Exp 7337 22 male R 3 5 19 immoralOther moralOther mismatch m m 1 0.6032 
01-Jun-2018_14:57:35 Exp 7337 22 male R 3 5 20 moralSelf moralSelf match n n 1 0.6960 
01-Jun-2018_14:57:38 Exp 7337 22 male R 3 5 21 immoralSelf moralOther mismatch m m 1 0.7827 
01-Jun-2018_14:57:40 Exp 7337 22 male R 3 5 22 moralOther moralOther match n n 1 0.5390 
01-Jun-2018_14:57:42 Exp 7337 22 male R 3 5 23 immoralOther moralOther mismatch m m 1 0.5306 
01-Jun-2018_14:57:45 Exp 7337 22 male R 3 5 24 moralSelf immoralOther mismatch m m 1 0.8220 
Date Prac Sub Age Sex Hand Block Bin Trial Shape Label Match CorrResp Resp ACC RT
01-Jun-2018_15:02:10 Exp 7337 22 male R 1 1 1 moralSelf moralSelf match n NA -1 1.0841 
01-Jun-2018_15:02:12 Exp 7337 22 male R 1 1 2 immoralOther moralOther mismatch m j 2 0.9818 
01-Jun-2018_15:02:15 Exp 7337 22 male R 1 1 3 immoralSelf moralSelf mismatch m NA -1 1.0841 
01-Jun-2018_15:02:17 Exp 7337 22 male R 1 1 4 moralOther moralOther match n m 0 0.7805 
01-Jun-2018_15:02:20 Exp 7337 22 male R 1 1 5 moralSelf moralSelf match n n 1 0.6969 
01-Jun-2018_15:02:22 Exp 7337 22 male R 1 1 6 immoralSelf immoralSelf match n n 1 0.9996 
01-Jun-2018_15:02:25 Exp 7337 22 male R 1 1 7 moralSelf moralOther mismatch m n 0 0.8283 
01-Jun-2018_15:02:27 Exp 7337 22 male R 1 1 8 immoralSelf moralSelf mismatch m m 1 0.8017 
01-Jun-2018_15:02:30 Exp 7337 22 male R 1 1 9 immoralOther moralOther mismatch m m 1 0.7824 
01-Jun-2018_15:02:32 Exp 7337 22 male R 1 1 10 immoralOther immoralOther match n n 1 0.7148 
01-Jun-2018_15:02:34 Exp 7337 22 male R 1 1 11 immoralSelf immoralSelf match n n 1 0.6820 
01-Jun-2018_15:02:37 Exp 7337 22 male R 1 1 12 immoralOther immoralOther match n n 1 0.5963 
01-Jun-2018_15:02:39 Exp 7337 22 male R 1 1 13 immoralOther immoralOther match n n 1 0.6929 
01-Jun-2018_15:02:41 Exp 7337 22 male R 1 1 14 moralOther moralOther match n m 0 0.7636 
01-Jun-2018_15:02:44 Exp 7337 22 male R 1 1 15 moralOther immoralSelf mismatch m m 1 0.7078 
01-Jun-2018_15:02:46 Exp 7337 22 male R 1 1 16 moralSelf moralSelf match n n 1 1.0227 
01-Jun-2018_15:02:48 Exp 7337 22 male R 1 1 17 moralOther immoralOther mismatch m m 1 0.5879 
01-Jun-2018_15:02:51 Exp 7337 22 male R 1 1 18 moralOther moralOther match n n 1 0.7485 
01-Jun-2018_15:02:53 Exp 7337 22 male R 1 1 19 immoralSelf immoralSelf match n n 1 0.8200 
01-Jun-2018_15:02:56 Exp 7337 22 male R 1 1 20 moralOther immoralSelf mismatch m m 1 0.9171 
01-Jun-2018_15:02:58 Exp 7337 22 male R 1 1 21 moralSelf immoralOther mismatch m m 1 0.7642 
01-Jun-2018_15:03:01 Exp 7337 22 male R 1 1 22 immoralOther immoralSelf mismatch m m 1 0.6283 
01-Jun-2018_15:03:03 Exp 7337 22 male R 1 1 23 immoralSelf moralOther mismatch m m 1 0.6336 
01-Jun-2018_15:03:05 Exp 7337 22 male R 1 1 24 moralSelf immoralOther mismatch m m 1 0.6431 
01-Jun-2018_15:03:07 Exp 7337 22 male R 1 2 1 moralOther moralSelf mismatch m n 0 0.5486 
01-Jun-2018_15:03:10 Exp 7337 22 male R 1 2 2 immoralSelf moralSelf mismatch m m 1 0.8201 
01-Jun-2018_15:03:12 Exp 7337 22 male R 1 2 3 immoralSelf immoralSelf match n n 1 0.5894 
01-Jun-2018_15:03:14 Exp 7337 22 male R 1 2 4 moralOther immoralOther mismatch m m 1 0.7098 
01-Jun-2018_15:03:17 Exp 7337 22 male R 1 2 5 moralOther moralOther match n n 1 0.8408 
01-Jun-2018_15:03:19 Exp 7337 22 male R 1 2 6 moralOther moralOther match n n 1 0.5622 
01-Jun-2018_15:03:21 Exp 7337 22 male R 1 2 7 immoralOther immoralOther match n n 1 0.6983 
01-Jun-2018_15:03:23 Exp 7337 22 male R 1 2 8 immoralOther moralSelf mismatch m m 1 0.5610 
01-Jun-2018_15:03:26 Exp 7337 22 male R 1 2 9 moralSelf immoralOther mismatch m m 1 0.8289 
01-Jun-2018_15:03:28 Exp 7337 22 male R 1 2 10 immoralSelf immoralOther mismatch m m 1 0.6822 
01-Jun-2018_15:03:30 Exp 7337 22 male R 1 2 11 moralOther moralOther match n n 1 0.6046 
01-Jun-2018_15:03:33 Exp 7337 22 male R 1 2 12 moralSelf moralSelf match n m 0 0.5854 
01-Jun-2018_15:03:35 Exp 7337 22 male R 1 2 13 immoralSelf moralSelf mismatch m m 1 0.8740 
01-Jun-2018_15:03:38 Exp 7337 22 male R 1 2 14 moralSelf moralOther mismatch m m 1 1.0642 
01-Jun-2018_15:03:40 Exp 7337 22 male R 1 2 15 immoralOther immoralOther match n n 1 0.6182 
01-Jun-2018_15:03:42 Exp 7337 22 male R 1 2 16 moralSelf immoralSelf mismatch m m 1 0.5792 
01-Jun-2018_15:03:45 Exp 7337 22 male R 1 2 17 immoralSelf immoralSelf match n n 1 0.7115 
01-Jun-2018_15:03:47 Exp 7337 22 male R 1 2 18 immoralSelf immoralSelf match n n 1 0.6183 
01-Jun-2018_15:03:49 Exp 7337 22 male R 1 2 19 moralOther immoralOther mismatch m m 1 0.5074 
01-Jun-2018_15:03:51 Exp 7337 22 male R 1 2 20 immoralOther immoralOther match n n 1 0.5824 
01-Jun-2018_15:03:54 Exp 7337 22 male R 1 2 21 moralSelf moralSelf match n m 0 0.7306 
01-Jun-2018_15:03:56 Exp 7337 22 male R 1 2 22 immoralOther moralOther mismatch m m 1 0.7341 
01-Jun-2018_15:03:58 Exp 7337 22 male R 1 2 23 moralSelf moralSelf match n n 1 0.6895 
01-Jun-2018_15:04:01 Exp 7337 22 male R 1 2 24 immoralOther moralSelf mismatch m m 1 0.8119 
Date Prac Sub Age Sex Hand Block Bin Trial Shape Label Match CorrResp Resp ACC RT
01-Jun-2018_15:08:23 Exp 7337 22 male R 1 1 1 immoralSelf immoralSelf match n m 0 0.8649 
01-Jun-2018_15:08:26 Exp 7337 22 male R 1 1 2 immoralOther immoralOther match n n 1 0.8510 
01-Jun-2018_15:08:28 Exp 7337 22 male R 1 1 3 immoralOther immoralSelf mismatch m m 1 0.7767 
01-Jun-2018_15:08:30 Exp 7337 22 male R 1 1 4 immoralSelf immoralOther mismatch m m 1 0.6290 
01-Jun-2018_15:08:33 Exp 7337 22 male R 1 1 5 moralOther immoralOther mismatch m n 0 0.6263 
01-Jun-2018_15:08:35 Exp 7337 22 male R 1 1 6 moralOther moralOther match n m 0 0.8876 
01-Jun-2018_15:08:38 Exp 7337 22 male R 1 1 7 moralOther immoralOther mismatch m m 1 0.7381 
01-Jun-2018_15:08:40 Exp 7337 22 male R 1 1 8 moralSelf moralOther mismatch m m 1 0.7856 
01-Jun-2018_15:08:42 Exp 7337 22 male R 1 1 9 moralSelf moralSelf match n n 1 0.3463 
01-Jun-2018_15:08:45 Exp 7337 22 male R 1 1 10 moralSelf immoralOther mismatch m m 1 0.9938 
01-Jun-2018_15:08:47 Exp 7337 22 male R 1 1 11 immoralSelf moralOther mismatch m m 1 0.6905 
01-Jun-2018_15:08:49 Exp 7337 22 male R 1 1 12 immoralOther immoralOther match n n 1 0.6050 
01-Jun-2018_15:08:51 Exp 7337 22 male R 1 1 13 immoralOther immoralOther match n n 1 0.6097 
01-Jun-2018_15:08:54 Exp 7337 22 male R 1 1 14 moralOther immoralSelf mismatch m m 1 0.8347 
01-Jun-2018_15:08:56 Exp 7337 22 male R 1 1 15 moralOther moralOther match n n 1 0.9242 
01-Jun-2018_15:08:59 Exp 7337 22 male R 1 1 16 moralSelf immoralSelf mismatch m m 1 0.6193 
01-Jun-2018_15:09:01 Exp 7337 22 male R 1 1 17 moralSelf moralSelf match n NA -1 1.0841 
01-Jun-2018_15:09:04 Exp 7337 22 male R 1 1 18 moralOther moralOther match n n 1 0.8068 
01-Jun-2018_15:09:06 Exp 7337 22 male R 1 1 19 immoralSelf moralSelf mismatch m m 1 0.6757 
01-Jun-2018_15:09:08 Exp 7337 22 male R 1 1 20 immoralOther moralSelf mismatch m m 1 0.6019 
01-Jun-2018_15:09:11 Exp 7337 22 male R 1 1 21 immoralOther immoralSelf mismatch m m 1 0.8147 
01-Jun-2018_15:09:13 Exp 7337 22 male R 1 1 22 immoralSelf immoralSelf match n n 1 0.6637 
01-Jun-2018_15:09:15 Exp 7337 22 male R 1 1 23 immoralSelf immoralSelf match n n 1 0.6337 
01-Jun-2018_15:09:18 Exp 7337 22 male R 1 1 24 moralSelf moralSelf match n n 1 0.5552 
01-Jun-2018_15:09:20 Exp 7337 22 male R 1 2 1 immoralSelf immoralSelf match n n 1 0.6630 
01-Jun-2018_15:09:22 Exp 7337 22 male R 1 2 2 immoralOther immoralOther match n n 1 0.5690 
01-Jun-2018_15:09:24 Exp 7337 22 male R 1 2 3 moralOther moralOther match n n 1 0.6491 
01-Jun-2018_15:09:27 Exp 7337 22 male R 1 2 4 moralOther immoralOther mismatch m m 1 0.8948 
01-Jun-2018_15:09:29 Exp 7337 22 male R 1 2 5 moralSelf moralOther mismatch m n 0 0.5175 
01-Jun-2018_15:09:31 Exp 7337 22 male R 1 2 6 immoralOther moralOther mismatch m n 0 0.4687 
01-Jun-2018_15:09:33 Exp 7337 22 male R 1 2 7 moralSelf moralSelf match n n 1 0.5149 
01-Jun-2018_15:09:36 Exp 7337 22 male R 1 2 8 immoralSelf immoralSelf match n n 1 0.5460 
01-Jun-2018_15:09:38 Exp 7337 22 male R 1 2 9 moralSelf moralSelf match n n 1 0.6256 
01-Jun-2018_15:09:40 Exp 7337 22 male R 1 2 10 moralSelf immoralSelf mismatch m n 0 1.0789 
01-Jun-2018_15:09:43 Exp 7337 22 male R 1 2 11 immoralSelf moralSelf mismatch m m 1 0.7091 
01-Jun-2018_15:09:45 Exp 7337 22 male R 1 2 12 immoralOther immoralSelf mismatch m m 1 0.7440 
01-Jun-2018_15:09:47 Exp 7337 22 male R 1 2 13 immoralSelf moralSelf mismatch m m 1 0.6076 
01-Jun-2018_15:09:50 Exp 7337 22 male R 1 2 14 immoralSelf immoralSelf match n n 1 0.6204 
01-Jun-2018_15:09:52 Exp 7337 22 male R 1 2 15 immoralOther immoralOther match n n 1 0.5575 
01-Jun-2018_15:09:54 Exp 7337 22 male R 1 2 16 moralOther immoralSelf mismatch m m 1 0.7373 
01-Jun-2018_15:09:57 Exp 7337 22 male R 1 2 17 moralOther immoralSelf mismatch m m 1 0.7647 
01-Jun-2018_15:09:59 Exp 7337 22 male R 1 2 18 moralSelf moralSelf match n n 1 0.6608 
01-Jun-2018_15:10:02 Exp 7337 22 male R 1 2 19 immoralSelf immoralOther mismatch m m 1 0.9427 
01-Jun-2018_15:10:04 Exp 7337 22 male R 1 2 20 immoralOther moralOther mismatch m m 1 0.5824 
01-Jun-2018_15:10:06 Exp 7337 22 male R 1 2 21 moralOther moralOther match n n 1 0.7147 
01-Jun-2018_15:10:08 Exp 7337 22 male R 1 2 22 moralSelf moralOther mismatch m n 0 0.6019 
01-Jun-2018_15:10:11 Exp 7337 22 male R 1 2 23 immoralOther immoralOther match n n 1 0.7026 
01-Jun-2018_15:10:13 Exp 7337 22 male R 1 2 24 moralOther moralOther match n n 1 0.7493 
Date Prac Sub Age Sex Hand Block Bin Trial Shape Label Match CorrResp Resp ACC RT
01-Jun-2018_15:14:06 Exp 7337 22 male R 1 1 1 moralOther moralSelf mismatch m m 1 0.8599 
01-Jun-2018_15:14:08 Exp 7337 22 male R 1 1 2 immoralSelf immoralSelf match n n 1 0.8381 
01-Jun-2018_15:14:10 Exp 7337 22 male R 1 1 3 moralSelf immoralOther mismatch m m 1 0.7915 
01-Jun-2018_15:14:13 Exp 7337 22 male R 1 1 4 immoralOther moralSelf mismatch m m 1 0.6081 
01-Jun-2018_15:14:15 Exp 7337 22 male R 1 1 5 moralOther immoralSelf mismatch m m 1 0.7648 
01-Jun-2018_15:14:17 Exp 7337 22 male R 1 1 6 immoralOther immoralOther match n n 1 0.4610 
01-Jun-2018_15:14:20 Exp 7337 22 male R 1 1 7 immoralSelf immoralSelf match n n 1 0.7670 
01-Jun-2018_15:14:22 Exp 7337 22 male R 1 1 8 moralOther moralOther match n n 1 0.6229 
01-Jun-2018_15:14:24 Exp 7337 22 male R 1 1 9 moralSelf immoralOther mismatch m m 1 0.9003 
01-Jun-2018_15:14:27 Exp 7337 22 male R 1 1 10 moralSelf moralSelf match n n 1 0.8430 
01-Jun-2018_15:14:29 Exp 7337 22 male R 1 1 11 immoralOther immoralOther match n n 1 0.8045 
01-Jun-2018_15:14:31 Exp 7337 22 male R 1 1 12 immoralOther immoralSelf mismatch m m 1 0.5213 
01-Jun-2018_15:14:34 Exp 7337 22 male R 1 1 13 moralOther moralOther match n n 1 0.5684 
01-Jun-2018_15:14:36 Exp 7337 22 male R 1 1 14 moralOther moralOther match n n 1 0.5366 
01-Jun-2018_15:14:38 Exp 7337 22 male R 1 1 15 moralSelf moralSelf match n n 1 0.5399 
01-Jun-2018_15:14:40 Exp 7337 22 male R 1 1 16 immoralSelf moralOther mismatch m m 1 0.5155 
01-Jun-2018_15:14:43 Exp 7337 22 male R 1 1 17 immoralSelf immoralOther mismatch m m 1 0.9547 
01-Jun-2018_15:14:45 Exp 7337 22 male R 1 1 18 immoralOther immoralOther match n n 1 0.6705 
01-Jun-2018_15:14:48 Exp 7337 22 male R 1 1 19 moralSelf immoralOther mismatch m m 1 0.8367 
01-Jun-2018_15:14:50 Exp 7337 22 male R 1 1 20 moralSelf moralSelf match n n 1 0.5903 
01-Jun-2018_15:14:52 Exp 7337 22 male R 1 1 21 moralOther moralSelf mismatch m n 0 0.6067 
01-Jun-2018_15:14:54 Exp 7337 22 male R 1 1 22 immoralOther moralSelf mismatch m m 1 0.6756 
01-Jun-2018_15:14:57 Exp 7337 22 male R 1 1 23 immoralSelf immoralSelf match n n 1 0.7699 
01-Jun-2018_15:14:59 Exp 7337 22 male R 1 1 24 immoralSelf immoralOther mismatch m m 1 0.7619 
01-Jun-2018_15:15:01 Exp 7337 22 male R 1 2 1 moralSelf moralOther mismatch m n 0 0.5619 
01-Jun-2018_15:15:04 Exp 7337 22 male R 1 2 2 moralOther immoralSelf mismatch m m 1 0.8020 
01-Jun-2018_15:15:06 Exp 7337 22 male R 1 2 3 immoralSelf immoralSelf match n NA -1 1.0841 
01-Jun-2018_15:15:09 Exp 7337 22 male R 1 2 4 moralSelf moralSelf match n n 1 0.5773 
01-Jun-2018_15:15:11 Exp 7337 22 male R 1 2 5 immoralSelf moralOther mismatch m m 1 0.5977 
01-Jun-2018_15:15:13 Exp 7337 22 male R 1 2 6 moralSelf immoralSelf mismatch m m 1 0.6984 
01-Jun-2018_15:15:15 Exp 7337 22 male R 1 2 7 moralOther moralOther match n n 1 0.6011 
01-Jun-2018_15:15:18 Exp 7337 22 male R 1 2 8 moralSelf moralSelf match n n 1 0.7579 
01-Jun-2018_15:15:20 Exp 7337 22 male R 1 2 9 immoralOther immoralOther match n n 1 0.6498 
01-Jun-2018_15:15:22 Exp 7337 22 male R 1 2 10 immoralSelf immoralOther mismatch m n 0 0.6875 
01-Jun-2018_15:15:25 Exp 7337 22 male R 1 2 11 immoralOther immoralOther match n n 1 0.5859 
01-Jun-2018_15:15:27 Exp 7337 22 male R 1 2 12 immoralOther moralSelf mismatch m m 1 0.7945 
01-Jun-2018_15:15:29 Exp 7337 22 male R 1 2 13 immoralSelf immoralSelf match n n 1 0.5791 
01-Jun-2018_15:15:32 Exp 7337 22 male R 1 2 14 immoralOther moralOther mismatch m m 1 0.6794 
01-Jun-2018_15:15:34 Exp 7337 22 male R 1 2 15 moralSelf moralSelf match n n 1 0.8217 
01-Jun-2018_15:15:36 Exp 7337 22 male R 1 2 16 immoralSelf immoralSelf match n n 1 0.5309 
01-Jun-2018_15:15:39 Exp 7337 22 male R 1 2 17 moralSelf immoralSelf mismatch m m 1 0.9503 
01-Jun-2018_15:15:41 Exp 7337 22 male R 1 2 18 moralOther immoralOther mismatch m n 0 0.7302 
01-Jun-2018_15:15:44 Exp 7337 22 male R 1 2 19 immoralOther immoralSelf mismatch m m 1 0.7015 
01-Jun-2018_15:15:46 Exp 7337 22 male R 1 2 20 moralOther moralOther match n n 1 0.6202 
01-Jun-2018_15:15:48 Exp 7337 22 male R 1 2 21 moralOther immoralSelf mismatch m m 1 0.7012 
01-Jun-2018_15:15:50 Exp 7337 22 male R 1 2 22 moralOther moralOther match n n 1 0.6039 
01-Jun-2018_15:15:53 Exp 7337 22 male R 1 2 23 immoralSelf moralOther mismatch m m 1 0.6966 
01-Jun-2018_15:15:55 Exp 7337 22 male R 1 2 24 immoralOther immoralOther match n n 1 0.6314 
Date Prac Sub Age Sex Hand Block Bin Trial Shape Label Match CorrResp Resp ACC RT
01-Jun-2018_15:19:54 Exp 7337 22 male R 1 1 1 moralOther immoralOther mismatch m m 1 0.8063 
01-Jun-2018_15:19:56 Exp 7337 22 male R 1 1 2 moralSelf moralSelf match n n 1 0.5151 
01-Jun-2018_15:19:58 Exp 7337 22 male R 1 1 3 moralOther immoralSelf mismatch m m 1 0.8183 
01-Jun-2018_15:20:01 Exp 7337 22 male R 1 1 4 immoralOther immoralOther match n n 1 0.5233 
01-Jun-2018_15:20:03 Exp 7337 22 male R 1 1 5 immoralSelf immoralOther mismatch m m 1 0.7544 
01-Jun-2018_15:20:05 Exp 7337 22 male R 1 1 6 immoralSelf immoralSelf match n n 1 0.8783 
01-Jun-2018_15:20:08 Exp 7337 22 male R 1 1 7 immoralOther moralOther mismatch m m 1 0.7725 
01-Jun-2018_15:20:10 Exp 7337 22 male R 1 1 8 immoralSelf immoralOther mismatch m m 1 0.7886 
01-Jun-2018_15:20:12 Exp 7337 22 male R 1 1 9 immoralOther immoralOther match n n 1 0.5012 
01-Jun-2018_15:20:15 Exp 7337 22 male R 1 1 10 moralOther moralOther match n n 1 0.8518 
01-Jun-2018_15:20:17 Exp 7337 22 male R 1 1 11 immoralSelf immoralOther mismatch m n 0 0.8816 
01-Jun-2018_15:20:20 Exp 7337 22 male R 1 1 12 immoralOther moralOther mismatch m NA -1 1.0841 
01-Jun-2018_15:20:23 Exp 7337 22 male R 1 1 13 moralSelf immoralSelf mismatch m m 1 0.8945 
01-Jun-2018_15:20:25 Exp 7337 22 male R 1 1 14 moralSelf immoralSelf mismatch m m 1 0.7492 
01-Jun-2018_15:20:27 Exp 7337 22 male R 1 1 15 immoralSelf immoralSelf match n n 1 0.6448 
01-Jun-2018_15:20:30 Exp 7337 22 male R 1 1 16 moralOther immoralSelf mismatch m m 1 0.7065 
01-Jun-2018_15:20:32 Exp 7337 22 male R 1 1 17 immoralSelf immoralSelf match n n 1 0.6454 
01-Jun-2018_15:20:34 Exp 7337 22 male R 1 1 18 immoralOther immoralOther match n n 1 0.6753 
01-Jun-2018_15:20:37 Exp 7337 22 male R 1 1 19 moralOther moralOther match n n 1 0.8495 
01-Jun-2018_15:20:39 Exp 7337 22 male R 1 1 20 moralOther moralOther match n m 0 0.7991 
01-Jun-2018_15:20:41 Exp 7337 22 male R 1 1 21 immoralOther moralOther mismatch m m 1 0.6519 
01-Jun-2018_15:20:44 Exp 7337 22 male R 1 1 22 moralSelf immoralOther mismatch m n 0 0.8897 
01-Jun-2018_15:20:46 Exp 7337 22 male R 1 1 23 moralSelf moralSelf match n n 1 0.8841 
01-Jun-2018_15:20:49 Exp 7337 22 male R 1 1 24 moralSelf moralSelf match n n 1 0.5667 
01-Jun-2018_15:20:51 Exp 7337 22 male R 1 2 1 moralOther moralSelf mismatch m m 1 0.6867 
01-Jun-2018_15:20:53 Exp 7337 22 male R 1 2 2 immoralOther immoralOther match n n 1 0.4731 
01-Jun-2018_15:20:55 Exp 7337 22 male R 1 2 3 moralSelf moralOther mismatch m m 1 0.6554 
01-Jun-2018_15:20:58 Exp 7337 22 male R 1 2 4 immoralSelf immoralOther mismatch m m 1 0.8210 
01-Jun-2018_15:21:00 Exp 7337 22 male R 1 2 5 immoralSelf immoralSelf match n m 0 0.5063 
01-Jun-2018_15:21:02 Exp 7337 22 male R 1 2 6 moralSelf moralOther mismatch m n 0 0.4773 
01-Jun-2018_15:21:04 Exp 7337 22 male R 1 2 7 immoralOther moralSelf mismatch m m 1 0.6434 
01-Jun-2018_15:21:07 Exp 7337 22 male R 1 2 8 immoralSelf immoralSelf match n n 1 0.6530 
01-Jun-2018_15:21:09 Exp 7337 22 male R 1 2 9 moralSelf moralSelf match n n 1 0.8667 
01-Jun-2018_15:21:11 Exp 7337 22 male R 1 2 10 moralSelf immoralSelf mismatch m m 1 0.7327 
01-Jun-2018_15:21:14 Exp 7337 22 male R 1 2 11 immoralOther immoralOther match n n 1 0.5760 
01-Jun-2018_15:21:16 Exp 7337 22 male R 1 2 12 immoralSelf moralOther mismatch m m 1 0.7725 
01-Jun-2018_15:21:18 Exp 7337 22 male R 1 2 13 moralOther moralOther match n n 1 0.7164 
01-Jun-2018_15:21:21 Exp 7337 22 male R 1 2 14 immoralOther immoralOther match n n 1 0.5156 
01-Jun-2018_15:21:23 Exp 7337 22 male R 1 2 15 moralOther moralOther match n n 1 0.5068 
01-Jun-2018_15:21:25 Exp 7337 22 male R 1 2 16 immoralSelf moralOther mismatch m m 1 0.5817 
01-Jun-2018_15:21:27 Exp 7337 22 male R 1 2 17 moralSelf moralSelf match n n 1 0.7380 
01-Jun-2018_15:21:30 Exp 7337 22 male R 1 2 18 moralOther moralSelf mismatch m m 1 0.6533 
01-Jun-2018_15:21:32 Exp 7337 22 male R 1 2 19 immoralOther moralSelf mismatch m m 1 0.9151 
01-Jun-2018_15:21:34 Exp 7337 22 male R 1 2 20 immoralSelf immoralSelf match n n 1 0.6423 
01-Jun-2018_15:21:37 Exp 7337 22 male R 1 2 21 moralOther immoralSelf mismatch m m 1 0.6438 
01-Jun-2018_15:21:39 Exp 7337 22 male R 1 2 22 immoralOther moralOther mismatch m m 1 0.6372 
01-Jun-2018_15:21:41 Exp 7337 22 male R 1 2 23 moralSelf moralSelf match n n 1 0.6068 
01-Jun-2018_15:21:44 Exp 7337 22 male R 1 2 24 moralOther moralOther match n n 1 1.0435 
Date Prac Sub Age Sex Hand Block Bin Trial Shape Label Match CorrResp Resp ACC RT
01-Jun-2018_15:25:45 Exp 7337 22 male R 1 1 1 immoralSelf immoralSelf match n NA -1 1.0841 
01-Jun-2018_15:25:47 Exp 7337 22 male R 1 1 2 immoralOther moralSelf mismatch m m 1 0.6988 
01-Jun-2018_15:25:50 Exp 7337 22 male R 1 1 3 immoralOther moralOther mismatch m m 1 0.8974 
01-Jun-2018_15:25:52 Exp 7337 22 male R 1 1 4 immoralOther moralOther mismatch m m 1 0.7041 
01-Jun-2018_15:25:55 Exp 7337 22 male R 1 1 5 moralOther moralSelf mismatch m m 1 0.7150 
01-Jun-2018_15:25:57 Exp 7337 22 male R 1 1 6 immoralOther immoralOther match n n 1 0.6422 
01-Jun-2018_15:25:59 Exp 7337 22 male R 1 1 7 moralOther immoralSelf mismatch m m 1 0.7717 
01-Jun-2018_15:26:02 Exp 7337 22 male R 1 1 8 moralSelf moralSelf match n n 1 0.6598 
01-Jun-2018_15:26:04 Exp 7337 22 male R 1 1 9 immoralOther immoralOther match n n 1 0.8457 
01-Jun-2018_15:26:07 Exp 7337 22 male R 1 1 10 immoralSelf immoralSelf match n n 1 0.8834 
01-Jun-2018_15:26:09 Exp 7337 22 male R 1 1 11 moralSelf immoralSelf mismatch m NA -1 1.0841 
01-Jun-2018_15:26:12 Exp 7337 22 male R 1 1 12 immoralSelf moralSelf mismatch m m 1 0.6324 
01-Jun-2018_15:26:14 Exp 7337 22 male R 1 1 13 immoralSelf immoralOther mismatch m m 1 0.7700 
01-Jun-2018_15:26:16 Exp 7337 22 male R 1 1 14 immoralSelf immoralSelf match n n 1 0.5459 
01-Jun-2018_15:26:18 Exp 7337 22 male R 1 1 15 moralSelf immoralSelf mismatch m m 1 0.5856 
01-Jun-2018_15:26:21 Exp 7337 22 male R 1 1 16 moralOther immoralOther mismatch m m 1 0.9461 
01-Jun-2018_15:26:23 Exp 7337 22 male R 1 1 17 immoralSelf immoralOther mismatch m m 1 0.6338 
01-Jun-2018_15:26:26 Exp 7337 22 male R 1 1 18 moralSelf moralSelf match n n 1 0.6993 
01-Jun-2018_15:26:28 Exp 7337 22 male R 1 1 19 immoralOther immoralOther match n n 1 0.6420 
01-Jun-2018_15:26:30 Exp 7337 22 male R 1 1 20 moralOther moralOther match n n 1 0.8115 
01-Jun-2018_15:26:33 Exp 7337 22 male R 1 1 21 moralOther moralOther match n n 1 0.8286 
01-Jun-2018_15:26:35 Exp 7337 22 male R 1 1 22 moralSelf moralSelf match n n 1 0.7698 
01-Jun-2018_15:26:37 Exp 7337 22 male R 1 1 23 moralSelf immoralSelf mismatch m m 1 0.7139 
01-Jun-2018_15:26:40 Exp 7337 22 male R 1 1 24 moralOther moralOther match n n 1 0.5648 
01-Jun-2018_15:26:42 Exp 7337 22 male R 1 2 1 moralOther moralOther match n n 1 0.5009 
01-Jun-2018_15:26:44 Exp 7337 22 male R 1 2 2 moralSelf immoralOther mismatch m m 1 0.6115 
01-Jun-2018_15:26:46 Exp 7337 22 male R 1 2 3 immoralSelf immoralSelf match n n 1 0.7086 
01-Jun-2018_15:26:49 Exp 7337 22 male R 1 2 4 moralOther moralOther match n NA -1 1.0841 
01-Jun-2018_15:26:51 Exp 7337 22 male R 1 2 5 moralOther immoralSelf mismatch m m 1 0.7860 
01-Jun-2018_15:26:54 Exp 7337 22 male R 1 2 6 immoralOther immoralOther match n NA -1 1.0841 
01-Jun-2018_15:26:57 Exp 7337 22 male R 1 2 7 immoralOther immoralSelf mismatch m m 1 0.7730 
01-Jun-2018_15:26:59 Exp 7337 22 male R 1 2 8 immoralSelf immoralSelf match n n 1 0.4931 
01-Jun-2018_15:27:01 Exp 7337 22 male R 1 2 9 immoralSelf moralOther mismatch m m 1 0.5798 
01-Jun-2018_15:27:03 Exp 7337 22 male R 1 2 10 immoralSelf immoralOther mismatch m m 1 0.7761 
01-Jun-2018_15:27:06 Exp 7337 22 male R 1 2 11 moralSelf immoralSelf mismatch m m 1 0.5964 
01-Jun-2018_15:27:08 Exp 7337 22 male R 1 2 12 moralSelf moralSelf match n n 1 0.5731 
01-Jun-2018_15:27:10 Exp 7337 22 male R 1 2 13 moralSelf moralSelf match n n 1 0.5411 
01-Jun-2018_15:27:12 Exp 7337 22 male R 1 2 14 immoralOther immoralSelf mismatch m m 1 0.6767 
01-Jun-2018_15:27:14 Exp 7337 22 male R 1 2 15 immoralOther immoralOther match n n 1 0.5229 
01-Jun-2018_15:27:17 Exp 7337 22 male R 1 2 16 immoralOther immoralOther match n n 1 0.8261 
01-Jun-2018_15:27:19 Exp 7337 22 male R 1 2 17 moralSelf moralOther mismatch m m 1 0.9673 
01-Jun-2018_15:27:22 Exp 7337 22 male R 1 2 18 immoralSelf immoralSelf match n n 1 0.5834 
01-Jun-2018_15:27:24 Exp 7337 22 male R 1 2 19 moralOther moralOther match n n 1 0.6357 
01-Jun-2018_15:27:26 Exp 7337 22 male R 1 2 20 moralOther moralSelf mismatch m n 0 0.7012 
01-Jun-2018_15:27:29 Exp 7337 22 male R 1 2 21 immoralOther immoralSelf mismatch m n 0 0.7159 
01-Jun-2018_15:27:31 Exp 7337 22 male R 1 2 22 moralOther immoralOther mismatch m m 1 0.9151 
01-Jun-2018_15:27:34 Exp 7337 22 male R 1 2 23 moralSelf moralSelf match n n 1 0.7382 
01-Jun-2018_15:27:36 Exp 7337 22 male R 1 2 24 immoralSelf moralSelf mismatch m m 1 0.7096 
