Date Prac Sub Age Sex Hand Block Bin Trial Shape Label Match CorrResp Resp ACC RT
12-May-2018_14:13:13 Exp 7309 26 1 R 1 1 1 immoralSelf immoralSelf match m m 1 0.7271 
12-May-2018_14:13:15 Exp 7309 26 1 R 1 1 2 immoralSelf moralOther mismatch n n 1 0.8873 
12-May-2018_14:13:18 Exp 7309 26 1 R 1 1 3 moralOther moralOther match m n 0 0.9274 
12-May-2018_14:13:20 Exp 7309 26 1 R 1 1 4 moralSelf immoralOther mismatch n n 1 0.6716 
12-May-2018_14:13:23 Exp 7309 26 1 R 1 1 5 immoralOther moralSelf mismatch n n 1 0.6837 
12-May-2018_14:13:25 Exp 7309 26 1 R 1 1 6 immoralOther moralSelf mismatch n n 1 0.8219 
12-May-2018_14:13:27 Exp 7309 26 1 R 1 1 7 moralOther immoralOther mismatch n n 1 0.8520 
12-May-2018_14:13:30 Exp 7309 26 1 R 1 1 8 immoralOther immoralOther match m m 1 0.8922 
12-May-2018_14:13:32 Exp 7309 26 1 R 1 1 9 immoralSelf moralSelf mismatch n n 1 0.7803 
12-May-2018_14:13:35 Exp 7309 26 1 R 1 1 10 immoralOther immoralOther match m n 0 0.9304 
12-May-2018_14:13:37 Exp 7309 26 1 R 1 1 11 moralOther immoralSelf mismatch n n 1 0.8585 
12-May-2018_14:13:40 Exp 7309 26 1 R 1 1 12 moralOther moralOther match m n 0 0.9607 
12-May-2018_14:13:43 Exp 7309 26 1 R 1 1 13 immoralSelf immoralSelf match m m 1 0.8748 
12-May-2018_14:13:45 Exp 7309 26 1 R 1 1 14 moralSelf immoralOther mismatch n n 1 0.5670 
12-May-2018_14:13:47 Exp 7309 26 1 R 1 1 15 immoralSelf moralSelf mismatch n n 1 0.8651 
12-May-2018_14:13:50 Exp 7309 26 1 R 1 1 16 immoralOther immoralOther match m m 1 0.7833 
12-May-2018_14:13:52 Exp 7309 26 1 R 1 1 17 moralSelf immoralOther mismatch n n 1 0.7254 
12-May-2018_14:13:55 Exp 7309 26 1 R 1 1 18 moralSelf moralSelf match m n 0 0.9115 
12-May-2018_14:13:57 Exp 7309 26 1 R 1 1 19 moralOther immoralSelf mismatch n n 1 0.7076 
12-May-2018_14:13:59 Exp 7309 26 1 R 1 1 20 moralSelf moralSelf match m m 1 0.7518 
12-May-2018_14:14:02 Exp 7309 26 1 R 1 1 21 moralSelf moralSelf match m m 1 0.7559 
12-May-2018_14:14:04 Exp 7309 26 1 R 1 1 22 moralOther moralOther match m m 1 0.8560 
12-May-2018_14:14:06 Exp 7309 26 1 R 1 1 23 immoralOther moralOther mismatch n n 1 0.6642 
12-May-2018_14:14:09 Exp 7309 26 1 R 1 1 24 immoralSelf immoralSelf match m m 1 0.8223 
12-May-2018_14:14:11 Exp 7309 26 1 R 1 2 1 immoralOther immoralOther match m m 1 0.6844 
12-May-2018_14:14:13 Exp 7309 26 1 R 1 2 2 moralOther moralSelf mismatch n m 0 0.6706 
12-May-2018_14:14:16 Exp 7309 26 1 R 1 2 3 immoralSelf immoralSelf match m m 1 0.8747 
12-May-2018_14:14:18 Exp 7309 26 1 R 1 2 4 moralSelf moralSelf match m m 1 0.6388 
12-May-2018_14:14:20 Exp 7309 26 1 R 1 2 5 moralOther immoralOther mismatch n m 0 0.6090 
12-May-2018_14:14:23 Exp 7309 26 1 R 1 2 6 moralSelf moralSelf match m m 1 0.6651 
12-May-2018_14:14:25 Exp 7309 26 1 R 1 2 7 immoralOther immoralSelf mismatch n m 0 0.6152 
12-May-2018_14:14:28 Exp 7309 26 1 R 1 2 8 immoralSelf moralOther mismatch n m 0 0.7235 
12-May-2018_14:14:30 Exp 7309 26 1 R 1 2 9 moralOther immoralSelf mismatch n m 0 0.8855 
12-May-2018_14:14:33 Exp 7309 26 1 R 1 2 10 immoralSelf immoralSelf match m m 1 0.7597 
12-May-2018_14:14:35 Exp 7309 26 1 R 1 2 11 moralSelf moralSelf match m m 1 0.5618 
12-May-2018_14:14:37 Exp 7309 26 1 R 1 2 12 immoralSelf immoralSelf match m m 1 0.6358 
12-May-2018_14:14:39 Exp 7309 26 1 R 1 2 13 moralSelf immoralOther mismatch n n 1 0.7361 
12-May-2018_14:14:42 Exp 7309 26 1 R 1 2 14 moralOther moralOther match m m 1 0.6902 
12-May-2018_14:14:44 Exp 7309 26 1 R 1 2 15 immoralOther moralSelf mismatch n n 1 0.7863 
12-May-2018_14:14:47 Exp 7309 26 1 R 1 2 16 moralSelf immoralSelf mismatch n m 0 0.7284 
12-May-2018_14:14:49 Exp 7309 26 1 R 1 2 17 immoralOther immoralOther match m m 1 0.7926 
12-May-2018_14:14:52 Exp 7309 26 1 R 1 2 18 moralOther moralOther match m m 1 0.7488 
12-May-2018_14:14:54 Exp 7309 26 1 R 1 2 19 moralOther moralOther match m m 1 0.6329 
12-May-2018_14:14:56 Exp 7309 26 1 R 1 2 20 immoralOther immoralSelf mismatch n m 0 0.6450 
12-May-2018_14:14:58 Exp 7309 26 1 R 1 2 21 immoralSelf moralSelf mismatch n m 0 0.6872 
12-May-2018_14:15:01 Exp 7309 26 1 R 1 2 22 immoralOther immoralOther match m m 1 0.6633 
12-May-2018_14:15:03 Exp 7309 26 1 R 1 2 23 immoralSelf moralSelf mismatch n n 1 0.8214 
12-May-2018_14:15:05 Exp 7309 26 1 R 1 2 24 moralSelf immoralSelf mismatch n n 1 0.7555 
12-May-2018_14:15:08 Exp 7309 26 1 R 1 3 1 moralOther moralOther match m m 1 0.8097 
12-May-2018_14:15:10 Exp 7309 26 1 R 1 3 2 moralOther moralSelf mismatch n n 1 0.7298 
12-May-2018_14:15:13 Exp 7309 26 1 R 1 3 3 moralSelf moralOther mismatch n m 0 0.5859 
12-May-2018_14:15:15 Exp 7309 26 1 R 1 3 4 immoralSelf immoralSelf match m m 1 0.8081 
12-May-2018_14:15:17 Exp 7309 26 1 R 1 3 5 moralOther immoralSelf mismatch n n 1 0.8642 
12-May-2018_14:15:20 Exp 7309 26 1 R 1 3 6 immoralSelf moralOther mismatch n m 0 0.7104 
12-May-2018_14:15:22 Exp 7309 26 1 R 1 3 7 moralSelf moralOther mismatch n m 0 0.6505 
12-May-2018_14:15:24 Exp 7309 26 1 R 1 3 8 immoralOther immoralOther match m m 1 0.7866 
12-May-2018_14:15:27 Exp 7309 26 1 R 1 3 9 immoralOther immoralOther match m m 1 0.7048 
12-May-2018_14:15:29 Exp 7309 26 1 R 1 3 10 immoralOther moralSelf mismatch n n 1 0.7429 
12-May-2018_14:15:31 Exp 7309 26 1 R 1 3 11 moralSelf moralSelf match m m 1 0.6051 
12-May-2018_14:15:34 Exp 7309 26 1 R 1 3 12 moralSelf moralSelf match m m 1 0.6471 
12-May-2018_14:15:36 Exp 7309 26 1 R 1 3 13 immoralOther moralOther mismatch n n 1 0.7612 
12-May-2018_14:15:39 Exp 7309 26 1 R 1 3 14 immoralOther moralOther mismatch n n 1 0.8994 
12-May-2018_14:15:41 Exp 7309 26 1 R 1 3 15 moralSelf moralSelf match m m 1 0.6256 
12-May-2018_14:15:43 Exp 7309 26 1 R 1 3 16 moralSelf moralOther mismatch n n 1 0.6717 
12-May-2018_14:15:46 Exp 7309 26 1 R 1 3 17 immoralSelf immoralOther mismatch n n 1 0.8758 
12-May-2018_14:15:48 Exp 7309 26 1 R 1 3 18 immoralOther immoralOther match m m 1 0.6799 
12-May-2018_14:15:50 Exp 7309 26 1 R 1 3 19 immoralSelf immoralSelf match m m 1 0.8421 
12-May-2018_14:15:53 Exp 7309 26 1 R 1 3 20 immoralSelf immoralOther mismatch n n 1 0.8122 
12-May-2018_14:15:55 Exp 7309 26 1 R 1 3 21 moralOther moralSelf mismatch n n 1 0.9483 
12-May-2018_14:15:58 Exp 7309 26 1 R 1 3 22 immoralSelf immoralSelf match m m 1 0.6645 
12-May-2018_14:16:00 Exp 7309 26 1 R 1 3 23 moralOther moralOther match m n 0 0.6866 
12-May-2018_14:16:02 Exp 7309 26 1 R 1 3 24 moralOther moralOther match m m 1 0.6808 
12-May-2018_14:16:25 Exp 7309 26 1 R 1 4 1 moralSelf immoralOther mismatch n n 1 0.7420 
12-May-2018_14:16:27 Exp 7309 26 1 R 1 4 2 immoralOther immoralOther match m m 1 0.6682 
12-May-2018_14:16:29 Exp 7309 26 1 R 1 4 3 moralSelf moralSelf match m m 1 0.5523 
12-May-2018_14:16:32 Exp 7309 26 1 R 1 4 4 immoralOther immoralOther match m n 0 0.8365 
12-May-2018_14:16:34 Exp 7309 26 1 R 1 4 5 immoralOther moralOther mismatch n n 1 0.6245 
12-May-2018_14:16:36 Exp 7309 26 1 R 1 4 6 moralOther moralOther match m n 0 0.7586 
12-May-2018_14:16:39 Exp 7309 26 1 R 1 4 7 immoralOther immoralSelf mismatch n n 1 0.7688 
12-May-2018_14:16:41 Exp 7309 26 1 R 1 4 8 immoralSelf moralSelf mismatch n n 1 0.8089 
12-May-2018_14:16:43 Exp 7309 26 1 R 1 4 9 immoralSelf immoralSelf match m m 1 0.6811 
12-May-2018_14:16:46 Exp 7309 26 1 R 1 4 10 immoralSelf immoralSelf match m m 1 0.6912 
12-May-2018_14:16:48 Exp 7309 26 1 R 1 4 11 moralSelf moralSelf match m m 1 0.5793 
12-May-2018_14:16:50 Exp 7309 26 1 R 1 4 12 immoralSelf moralSelf mismatch n m 0 0.8334 
12-May-2018_14:16:53 Exp 7309 26 1 R 1 4 13 immoralSelf immoralSelf match m m 1 1.0776 
12-May-2018_14:16:56 Exp 7309 26 1 R 1 4 14 moralOther moralOther match m m 1 0.8877 
12-May-2018_14:16:58 Exp 7309 26 1 R 1 4 15 moralSelf immoralSelf mismatch n n 1 0.7279 
12-May-2018_14:17:00 Exp 7309 26 1 R 1 4 16 immoralSelf immoralOther mismatch n n 1 0.9120 
12-May-2018_14:17:03 Exp 7309 26 1 R 1 4 17 moralOther immoralOther mismatch n m 0 0.6521 
12-May-2018_14:17:05 Exp 7309 26 1 R 1 4 18 moralOther moralOther match m m 1 0.6923 
12-May-2018_14:17:07 Exp 7309 26 1 R 1 4 19 moralSelf moralSelf match m m 1 0.6844 
12-May-2018_14:17:10 Exp 7309 26 1 R 1 4 20 moralOther immoralOther mismatch n m 0 0.9345 
12-May-2018_14:17:12 Exp 7309 26 1 R 1 4 21 immoralOther immoralOther match m m 1 0.7107 
12-May-2018_14:17:15 Exp 7309 26 1 R 1 4 22 immoralOther moralSelf mismatch n m 0 0.8108 
12-May-2018_14:17:17 Exp 7309 26 1 R 1 4 23 moralOther moralSelf mismatch n n 1 0.9389 
12-May-2018_14:17:20 Exp 7309 26 1 R 1 4 24 moralSelf moralOther mismatch n n 1 0.7050 
12-May-2018_14:17:22 Exp 7309 26 1 R 1 5 1 moralSelf immoralOther mismatch n m 0 0.7994 
12-May-2018_14:17:25 Exp 7309 26 1 R 1 5 2 moralOther immoralOther mismatch n NA -1 1.0850 
12-May-2018_14:17:27 Exp 7309 26 1 R 1 5 3 moralOther moralOther match m n 0 0.7556 
12-May-2018_14:17:30 Exp 7309 26 1 R 1 5 4 immoralSelf immoralOther mismatch n n 1 0.8397 
12-May-2018_14:17:32 Exp 7309 26 1 R 1 5 5 moralOther moralOther match m m 1 0.8178 
12-May-2018_14:17:34 Exp 7309 26 1 R 1 5 6 immoralSelf immoralSelf match m m 1 0.7040 
12-May-2018_14:17:37 Exp 7309 26 1 R 1 5 7 immoralOther immoralOther match m m 1 0.5581 
12-May-2018_14:17:39 Exp 7309 26 1 R 1 5 8 immoralOther immoralOther match m m 1 0.8963 
12-May-2018_14:17:42 Exp 7309 26 1 R 1 5 9 immoralSelf immoralOther mismatch n n 1 0.8243 
12-May-2018_14:17:44 Exp 7309 26 1 R 1 5 10 immoralSelf immoralSelf match m m 1 0.9425 
12-May-2018_14:17:46 Exp 7309 26 1 R 1 5 11 moralSelf moralSelf match m m 1 0.6367 
12-May-2018_14:17:49 Exp 7309 26 1 R 1 5 12 moralSelf moralOther mismatch n m 0 0.7207 
12-May-2018_14:17:51 Exp 7309 26 1 R 1 5 13 moralOther moralOther match m n 0 0.9949 
12-May-2018_14:17:54 Exp 7309 26 1 R 1 5 14 moralOther immoralOther mismatch n NA -1 1.0850 
12-May-2018_14:17:56 Exp 7309 26 1 R 1 5 15 immoralSelf moralSelf mismatch n n 1 0.7292 
12-May-2018_14:17:59 Exp 7309 26 1 R 1 5 16 immoralOther immoralSelf mismatch n n 1 0.7853 
12-May-2018_14:18:01 Exp 7309 26 1 R 1 5 17 immoralSelf immoralSelf match m m 1 0.7594 
12-May-2018_14:18:04 Exp 7309 26 1 R 1 5 18 moralOther immoralOther mismatch n n 1 0.7216 
12-May-2018_14:18:06 Exp 7309 26 1 R 1 5 19 moralSelf moralOther mismatch n n 1 0.7637 
12-May-2018_14:18:08 Exp 7309 26 1 R 1 5 20 immoralOther moralOther mismatch n n 1 0.6458 
12-May-2018_14:18:11 Exp 7309 26 1 R 1 5 21 immoralOther immoralOther match m m 1 0.7280 
12-May-2018_14:18:13 Exp 7309 26 1 R 1 5 22 moralSelf moralSelf match m m 1 0.6962 
12-May-2018_14:18:15 Exp 7309 26 1 R 1 5 23 immoralOther immoralSelf mismatch n n 1 0.6082 
12-May-2018_14:18:17 Exp 7309 26 1 R 1 5 24 moralSelf moralSelf match m n 0 0.6884 
12-May-2018_14:18:23 Exp 7309 26 1 R 2 1 1 moralSelf moralSelf match m m 1 0.7547 
12-May-2018_14:18:25 Exp 7309 26 1 R 2 1 2 immoralOther immoralOther match m m 1 0.6069 
12-May-2018_14:18:27 Exp 7309 26 1 R 2 1 3 immoralSelf immoralSelf match m m 1 0.6970 
12-May-2018_14:18:30 Exp 7309 26 1 R 2 1 4 immoralSelf moralOther mismatch n m 0 0.8251 
12-May-2018_14:18:32 Exp 7309 26 1 R 2 1 5 moralOther moralOther match m m 1 0.5753 
12-May-2018_14:18:34 Exp 7309 26 1 R 2 1 6 moralOther moralSelf mismatch n n 1 0.6473 
12-May-2018_14:18:37 Exp 7309 26 1 R 2 1 7 immoralSelf moralSelf mismatch n m 0 0.5274 
12-May-2018_14:18:39 Exp 7309 26 1 R 2 1 8 immoralOther moralSelf mismatch n n 1 0.6556 
12-May-2018_14:18:41 Exp 7309 26 1 R 2 1 9 immoralOther immoralOther match m m 1 0.7118 
12-May-2018_14:18:43 Exp 7309 26 1 R 2 1 10 immoralSelf immoralSelf match m m 1 0.7158 
12-May-2018_14:18:46 Exp 7309 26 1 R 2 1 11 immoralSelf moralOther mismatch n m 0 0.9361 
12-May-2018_14:18:48 Exp 7309 26 1 R 2 1 12 immoralOther immoralSelf mismatch n n 1 0.7122 
12-May-2018_14:18:51 Exp 7309 26 1 R 2 1 13 moralOther moralOther match m m 1 0.4923 
12-May-2018_14:18:53 Exp 7309 26 1 R 2 1 14 immoralSelf immoralSelf match m m 1 0.8283 
12-May-2018_14:18:55 Exp 7309 26 1 R 2 1 15 moralSelf immoralSelf mismatch n m 0 0.5386 
12-May-2018_14:18:57 Exp 7309 26 1 R 2 1 16 moralOther moralOther match m m 1 0.5927 
12-May-2018_14:19:00 Exp 7309 26 1 R 2 1 17 moralOther immoralSelf mismatch n m 0 0.8528 
12-May-2018_14:19:02 Exp 7309 26 1 R 2 1 18 moralSelf immoralSelf mismatch n m 0 0.7409 
12-May-2018_14:19:05 Exp 7309 26 1 R 2 1 19 moralOther immoralSelf mismatch n m 0 0.5790 
12-May-2018_14:19:07 Exp 7309 26 1 R 2 1 20 immoralOther immoralOther match m m 1 0.7212 
12-May-2018_14:19:09 Exp 7309 26 1 R 2 1 21 moralSelf moralSelf match m m 1 0.5713 
12-May-2018_14:19:11 Exp 7309 26 1 R 2 1 22 moralSelf moralSelf match m m 1 0.5955 
12-May-2018_14:19:14 Exp 7309 26 1 R 2 1 23 moralSelf immoralOther mismatch n n 1 0.5916 
12-May-2018_14:19:16 Exp 7309 26 1 R 2 1 24 immoralOther immoralSelf mismatch n m 0 0.8117 
12-May-2018_14:19:18 Exp 7309 26 1 R 2 2 1 moralOther moralOther match m n 0 0.8198 
12-May-2018_14:19:21 Exp 7309 26 1 R 2 2 2 immoralSelf immoralSelf match m m 1 0.5779 
12-May-2018_14:19:23 Exp 7309 26 1 R 2 2 3 immoralSelf immoralOther mismatch n m 0 0.7201 
12-May-2018_14:19:25 Exp 7309 26 1 R 2 2 4 moralSelf moralSelf match m m 1 0.5382 
12-May-2018_14:19:27 Exp 7309 26 1 R 2 2 5 immoralSelf immoralSelf match m m 1 0.6403 
12-May-2018_14:19:30 Exp 7309 26 1 R 2 2 6 immoralSelf immoralSelf match m m 1 0.8185 
12-May-2018_14:19:32 Exp 7309 26 1 R 2 2 7 immoralOther immoralOther match m m 1 0.6406 
12-May-2018_14:19:35 Exp 7309 26 1 R 2 2 8 moralOther immoralSelf mismatch n n 1 0.8587 
12-May-2018_14:19:37 Exp 7309 26 1 R 2 2 9 moralOther moralOther match m m 1 0.6489 
12-May-2018_14:19:39 Exp 7309 26 1 R 2 2 10 immoralOther immoralSelf mismatch n n 1 0.6650 
12-May-2018_14:19:42 Exp 7309 26 1 R 2 2 11 immoralSelf moralSelf mismatch n n 1 0.7672 
12-May-2018_14:19:44 Exp 7309 26 1 R 2 2 12 moralSelf immoralSelf mismatch n n 1 0.7112 
12-May-2018_14:19:46 Exp 7309 26 1 R 2 2 13 immoralOther immoralOther match m m 1 0.6674 
12-May-2018_14:19:49 Exp 7309 26 1 R 2 2 14 moralOther moralSelf mismatch n n 1 0.8155 
12-May-2018_14:19:51 Exp 7309 26 1 R 2 2 15 moralSelf moralOther mismatch n n 1 0.7917 
12-May-2018_14:19:54 Exp 7309 26 1 R 2 2 16 immoralOther immoralOther match m m 1 0.7878 
12-May-2018_14:19:56 Exp 7309 26 1 R 2 2 17 moralOther moralSelf mismatch n n 1 0.9439 
12-May-2018_14:19:59 Exp 7309 26 1 R 2 2 18 moralSelf immoralOther mismatch n n 1 0.9261 
12-May-2018_14:20:01 Exp 7309 26 1 R 2 2 19 immoralSelf immoralOther mismatch n m 0 0.7683 
12-May-2018_14:20:03 Exp 7309 26 1 R 2 2 20 moralSelf moralSelf match m m 1 0.6644 
12-May-2018_14:20:06 Exp 7309 26 1 R 2 2 21 immoralOther immoralSelf mismatch n m 0 0.6466 
12-May-2018_14:20:08 Exp 7309 26 1 R 2 2 22 moralSelf moralSelf match m m 1 0.5847 
12-May-2018_14:20:10 Exp 7309 26 1 R 2 2 23 moralOther moralOther match m m 1 0.5668 
12-May-2018_14:20:12 Exp 7309 26 1 R 2 2 24 immoralOther immoralSelf mismatch n n 1 0.6729 
12-May-2018_14:20:15 Exp 7309 26 1 R 2 3 1 immoralOther immoralOther match m m 1 0.7330 
12-May-2018_14:20:17 Exp 7309 26 1 R 2 3 2 moralOther immoralOther mismatch n m 0 0.7491 
12-May-2018_14:20:19 Exp 7309 26 1 R 2 3 3 moralSelf moralSelf match m m 1 0.5693 
12-May-2018_14:20:22 Exp 7309 26 1 R 2 3 4 moralOther immoralSelf mismatch n n 1 0.7934 
12-May-2018_14:20:24 Exp 7309 26 1 R 2 3 5 moralOther moralOther match m m 1 0.6455 
12-May-2018_14:20:26 Exp 7309 26 1 R 2 3 6 immoralSelf immoralSelf match m n 0 0.6957 
12-May-2018_14:20:28 Exp 7309 26 1 R 2 3 7 immoralOther immoralSelf mismatch n m 0 0.6079 
12-May-2018_14:20:31 Exp 7309 26 1 R 2 3 8 immoralSelf immoralSelf match m m 1 0.8640 
12-May-2018_14:20:34 Exp 7309 26 1 R 2 3 9 immoralSelf moralOther mismatch n m 0 1.0621 
12-May-2018_14:20:36 Exp 7309 26 1 R 2 3 10 moralSelf moralSelf match m m 1 0.7561 
12-May-2018_14:20:38 Exp 7309 26 1 R 2 3 11 immoralSelf moralOther mismatch n m 0 0.6803 
12-May-2018_14:20:41 Exp 7309 26 1 R 2 3 12 immoralOther immoralOther match m m 1 0.6105 
12-May-2018_14:20:43 Exp 7309 26 1 R 2 3 13 moralSelf immoralSelf mismatch n n 1 0.7946 
12-May-2018_14:20:45 Exp 7309 26 1 R 2 3 14 immoralSelf immoralSelf match m m 1 0.8467 
12-May-2018_14:20:48 Exp 7309 26 1 R 2 3 15 moralOther immoralSelf mismatch n m 0 0.6569 
12-May-2018_14:20:50 Exp 7309 26 1 R 2 3 16 moralSelf immoralSelf mismatch n n 1 0.7450 
12-May-2018_14:20:52 Exp 7309 26 1 R 2 3 17 immoralOther moralOther mismatch n n 1 0.6631 
12-May-2018_14:20:55 Exp 7309 26 1 R 2 3 18 moralSelf moralSelf match m m 1 0.7652 
12-May-2018_14:20:57 Exp 7309 26 1 R 2 3 19 moralSelf immoralOther mismatch n n 1 0.7754 
12-May-2018_14:20:59 Exp 7309 26 1 R 2 3 20 moralOther moralOther match m m 1 0.6555 
12-May-2018_14:21:02 Exp 7309 26 1 R 2 3 21 immoralSelf moralOther mismatch n n 1 0.9357 
12-May-2018_14:21:04 Exp 7309 26 1 R 2 3 22 immoralOther immoralOther match m m 1 0.5759 
12-May-2018_14:21:07 Exp 7309 26 1 R 2 3 23 immoralOther immoralSelf mismatch n n 1 0.6399 
12-May-2018_14:21:09 Exp 7309 26 1 R 2 3 24 moralOther moralOther match m m 1 0.6981 
12-May-2018_14:21:25 Exp 7309 26 1 R 2 4 1 moralOther moralOther match m m 1 0.7110 
12-May-2018_14:21:27 Exp 7309 26 1 R 2 4 2 moralOther immoralSelf mismatch n n 1 0.6111 
12-May-2018_14:21:30 Exp 7309 26 1 R 2 4 3 moralSelf moralSelf match m m 1 0.5473 
12-May-2018_14:21:32 Exp 7309 26 1 R 2 4 4 immoralSelf immoralSelf match m m 1 0.7034 
12-May-2018_14:21:34 Exp 7309 26 1 R 2 4 5 immoralSelf immoralSelf match m n 0 0.7175 
12-May-2018_14:21:37 Exp 7309 26 1 R 2 4 6 immoralOther immoralSelf mismatch n n 1 0.7758 
12-May-2018_14:21:39 Exp 7309 26 1 R 2 4 7 moralOther immoralSelf mismatch n n 1 0.6798 
12-May-2018_14:21:42 Exp 7309 26 1 R 2 4 8 moralSelf immoralSelf mismatch n n 1 0.9219 
12-May-2018_14:21:44 Exp 7309 26 1 R 2 4 9 immoralOther moralSelf mismatch n n 1 0.5481 
12-May-2018_14:21:46 Exp 7309 26 1 R 2 4 10 moralOther moralOther match m n 0 0.6802 
12-May-2018_14:21:49 Exp 7309 26 1 R 2 4 11 immoralSelf moralSelf mismatch n n 1 0.8903 
12-May-2018_14:21:51 Exp 7309 26 1 R 2 4 12 moralSelf immoralSelf mismatch n n 1 0.6345 
12-May-2018_14:21:53 Exp 7309 26 1 R 2 4 13 immoralOther immoralSelf mismatch n n 1 0.6626 
12-May-2018_14:21:55 Exp 7309 26 1 R 2 4 14 moralSelf moralSelf match m m 1 0.6127 
12-May-2018_14:21:58 Exp 7309 26 1 R 2 4 15 moralOther moralSelf mismatch n n 1 0.9089 
12-May-2018_14:22:00 Exp 7309 26 1 R 2 4 16 moralSelf moralSelf match m m 1 0.6810 
12-May-2018_14:22:03 Exp 7309 26 1 R 2 4 17 immoralOther immoralOther match m m 1 0.7231 
12-May-2018_14:22:05 Exp 7309 26 1 R 2 4 18 moralSelf immoralOther mismatch n n 1 0.7092 
12-May-2018_14:22:07 Exp 7309 26 1 R 2 4 19 immoralSelf immoralSelf match m m 1 0.8414 
12-May-2018_14:22:10 Exp 7309 26 1 R 2 4 20 moralOther moralOther match m m 1 0.7315 
12-May-2018_14:22:12 Exp 7309 26 1 R 2 4 21 immoralOther immoralOther match m m 1 0.6197 
12-May-2018_14:22:14 Exp 7309 26 1 R 2 4 22 immoralSelf moralSelf mismatch n n 1 0.7698 
12-May-2018_14:22:17 Exp 7309 26 1 R 2 4 23 immoralOther immoralOther match m m 1 0.5779 
12-May-2018_14:22:19 Exp 7309 26 1 R 2 4 24 immoralSelf immoralOther mismatch n m 0 0.5681 
12-May-2018_14:22:21 Exp 7309 26 1 R 2 5 1 immoralOther immoralOther match m m 1 0.6482 
12-May-2018_14:22:23 Exp 7309 26 1 R 2 5 2 moralOther immoralSelf mismatch n n 1 0.6003 
12-May-2018_14:22:25 Exp 7309 26 1 R 2 5 3 immoralSelf immoralSelf match m m 1 0.5064 
12-May-2018_14:22:28 Exp 7309 26 1 R 2 5 4 immoralOther immoralSelf mismatch n m 0 0.6885 
12-May-2018_14:22:30 Exp 7309 26 1 R 2 5 5 moralOther immoralOther mismatch n m 0 0.5927 
12-May-2018_14:22:32 Exp 7309 26 1 R 2 5 6 moralOther moralOther match m m 1 0.6049 
12-May-2018_14:22:35 Exp 7309 26 1 R 2 5 7 immoralOther immoralOther match m m 1 0.6790 
12-May-2018_14:22:37 Exp 7309 26 1 R 2 5 8 moralSelf moralOther mismatch n m 0 0.7451 
12-May-2018_14:22:39 Exp 7309 26 1 R 2 5 9 immoralSelf immoralOther mismatch n m 0 0.9032 
12-May-2018_14:22:42 Exp 7309 26 1 R 2 5 10 immoralSelf moralSelf mismatch n m 0 0.6853 
12-May-2018_14:22:44 Exp 7309 26 1 R 2 5 11 moralSelf moralOther mismatch n m 0 0.5354 
12-May-2018_14:22:46 Exp 7309 26 1 R 2 5 12 moralSelf moralSelf match m m 1 0.5676 
12-May-2018_14:22:48 Exp 7309 26 1 R 2 5 13 moralSelf immoralSelf mismatch n n 1 0.6557 
12-May-2018_14:22:51 Exp 7309 26 1 R 2 5 14 immoralOther moralSelf mismatch n n 1 0.6639 
12-May-2018_14:22:53 Exp 7309 26 1 R 2 5 15 moralSelf moralSelf match m m 1 0.5180 
12-May-2018_14:22:55 Exp 7309 26 1 R 2 5 16 immoralSelf immoralSelf match m m 1 0.6401 
12-May-2018_14:22:57 Exp 7309 26 1 R 2 5 17 immoralOther immoralOther match m m 1 0.5702 
12-May-2018_14:23:00 Exp 7309 26 1 R 2 5 18 immoralSelf immoralOther mismatch n n 1 0.6503 
12-May-2018_14:23:02 Exp 7309 26 1 R 2 5 19 immoralOther moralOther mismatch n m 0 0.5065 
12-May-2018_14:23:04 Exp 7309 26 1 R 2 5 20 moralOther moralOther match m m 1 0.7926 
12-May-2018_14:23:06 Exp 7309 26 1 R 2 5 21 immoralSelf immoralSelf match m m 1 0.6846 
12-May-2018_14:23:09 Exp 7309 26 1 R 2 5 22 moralOther moralOther match m m 1 0.6949 
12-May-2018_14:23:11 Exp 7309 26 1 R 2 5 23 moralOther immoralOther mismatch n n 1 0.7350 
12-May-2018_14:23:13 Exp 7309 26 1 R 2 5 24 moralSelf moralSelf match m m 1 0.4952 
12-May-2018_14:23:19 Exp 7309 26 1 R 3 1 1 moralSelf moralSelf match m NA -1 1.0850 
12-May-2018_14:23:21 Exp 7309 26 1 R 3 1 2 moralOther immoralSelf mismatch n m 0 0.8096 
12-May-2018_14:23:24 Exp 7309 26 1 R 3 1 3 immoralSelf immoralSelf match m m 1 0.6817 
12-May-2018_14:23:26 Exp 7309 26 1 R 3 1 4 moralOther immoralOther mismatch n m 0 0.9479 
12-May-2018_14:23:29 Exp 7309 26 1 R 3 1 5 immoralOther immoralSelf mismatch n n 1 0.9440 
12-May-2018_14:23:31 Exp 7309 26 1 R 3 1 6 moralSelf immoralOther mismatch n n 1 0.6461 
12-May-2018_14:23:34 Exp 7309 26 1 R 3 1 7 immoralOther immoralOther match m m 1 0.7283 
12-May-2018_14:23:36 Exp 7309 26 1 R 3 1 8 moralOther moralOther match m m 1 0.6884 
12-May-2018_14:23:38 Exp 7309 26 1 R 3 1 9 immoralOther moralSelf mismatch n n 1 0.6885 
12-May-2018_14:23:41 Exp 7309 26 1 R 3 1 10 moralOther immoralSelf mismatch n n 1 0.8167 
12-May-2018_14:23:43 Exp 7309 26 1 R 3 1 11 moralSelf moralSelf match m m 1 0.5048 
12-May-2018_14:23:45 Exp 7309 26 1 R 3 1 12 immoralOther immoralOther match m m 1 0.5509 
12-May-2018_14:23:47 Exp 7309 26 1 R 3 1 13 immoralSelf moralOther mismatch n n 1 0.6031 
12-May-2018_14:23:49 Exp 7309 26 1 R 3 1 14 immoralSelf immoralSelf match m m 1 0.7331 
12-May-2018_14:23:52 Exp 7309 26 1 R 3 1 15 moralSelf immoralSelf mismatch n n 1 0.6294 
12-May-2018_14:23:54 Exp 7309 26 1 R 3 1 16 moralOther moralOther match m m 1 0.4895 
12-May-2018_14:23:56 Exp 7309 26 1 R 3 1 17 moralOther moralOther match m n 0 0.7936 
12-May-2018_14:23:59 Exp 7309 26 1 R 3 1 18 immoralSelf immoralSelf match m m 1 0.6777 
12-May-2018_14:24:01 Exp 7309 26 1 R 3 1 19 immoralSelf moralOther mismatch n n 1 0.6478 
12-May-2018_14:24:03 Exp 7309 26 1 R 3 1 20 moralSelf moralSelf match m m 1 0.5440 
12-May-2018_14:24:05 Exp 7309 26 1 R 3 1 21 immoralSelf immoralOther mismatch n m 0 0.5180 
12-May-2018_14:24:07 Exp 7309 26 1 R 3 1 22 immoralOther moralOther mismatch n m 0 0.4643 
12-May-2018_14:24:10 Exp 7309 26 1 R 3 1 23 immoralOther immoralOther match m m 1 0.7823 
12-May-2018_14:24:12 Exp 7309 26 1 R 3 1 24 moralSelf immoralSelf mismatch n m 0 0.5164 
12-May-2018_14:24:14 Exp 7309 26 1 R 3 2 1 moralSelf moralOther mismatch n m 0 0.5206 
12-May-2018_14:24:16 Exp 7309 26 1 R 3 2 2 moralOther moralOther match m m 1 0.6427 
12-May-2018_14:24:18 Exp 7309 26 1 R 3 2 3 immoralOther immoralOther match m n 0 0.6048 
12-May-2018_14:24:21 Exp 7309 26 1 R 3 2 4 moralOther immoralOther mismatch n m 0 0.7030 
12-May-2018_14:24:23 Exp 7309 26 1 R 3 2 5 moralOther moralOther match m m 1 0.9731 
12-May-2018_14:24:26 Exp 7309 26 1 R 3 2 6 immoralSelf immoralSelf match m m 1 0.7652 
12-May-2018_14:24:28 Exp 7309 26 1 R 3 2 7 moralOther moralSelf mismatch n n 1 0.6954 
12-May-2018_14:24:30 Exp 7309 26 1 R 3 2 8 immoralSelf immoralOther mismatch n m 0 0.5515 
12-May-2018_14:24:33 Exp 7309 26 1 R 3 2 9 immoralSelf immoralSelf match m m 1 0.6597 
12-May-2018_14:24:35 Exp 7309 26 1 R 3 2 10 moralSelf moralSelf match m m 1 0.6018 
12-May-2018_14:24:37 Exp 7309 26 1 R 3 2 11 immoralSelf immoralSelf match m n 0 0.6359 
12-May-2018_14:24:39 Exp 7309 26 1 R 3 2 12 moralOther moralOther match m m 1 0.6000 
12-May-2018_14:24:42 Exp 7309 26 1 R 3 2 13 moralSelf moralOther mismatch n n 1 0.6662 
12-May-2018_14:24:44 Exp 7309 26 1 R 3 2 14 immoralOther moralSelf mismatch n n 1 0.7123 
12-May-2018_14:24:46 Exp 7309 26 1 R 3 2 15 immoralOther moralSelf mismatch n n 1 0.6184 
12-May-2018_14:24:48 Exp 7309 26 1 R 3 2 16 immoralOther moralOther mismatch n m 0 0.6485 
12-May-2018_14:24:51 Exp 7309 26 1 R 3 2 17 moralSelf moralSelf match m m 1 0.6007 
12-May-2018_14:24:53 Exp 7309 26 1 R 3 2 18 moralSelf moralOther mismatch n n 1 0.6908 
12-May-2018_14:24:55 Exp 7309 26 1 R 3 2 19 immoralSelf moralSelf mismatch n m 0 0.7150 
12-May-2018_14:24:58 Exp 7309 26 1 R 3 2 20 immoralSelf moralSelf mismatch n n 1 0.6871 
12-May-2018_14:25:00 Exp 7309 26 1 R 3 2 21 moralSelf moralSelf match m m 1 0.5611 
12-May-2018_14:25:02 Exp 7309 26 1 R 3 2 22 moralOther immoralOther mismatch n m 0 0.7393 
12-May-2018_14:25:05 Exp 7309 26 1 R 3 2 23 immoralOther immoralOther match m n 0 0.7454 
12-May-2018_14:25:07 Exp 7309 26 1 R 3 2 24 immoralOther immoralOther match m m 1 0.6956 
12-May-2018_14:25:09 Exp 7309 26 1 R 3 3 1 immoralSelf immoralSelf match m m 1 0.7277 
12-May-2018_14:25:12 Exp 7309 26 1 R 3 3 2 immoralOther immoralOther match m m 1 0.5999 
12-May-2018_14:25:14 Exp 7309 26 1 R 3 3 3 immoralOther immoralOther match m m 1 0.5460 
12-May-2018_14:25:16 Exp 7309 26 1 R 3 3 4 immoralOther immoralSelf mismatch n n 1 0.6561 
12-May-2018_14:25:18 Exp 7309 26 1 R 3 3 5 moralOther moralOther match m m 1 0.6322 
12-May-2018_14:25:21 Exp 7309 26 1 R 3 3 6 immoralOther moralOther mismatch n n 1 0.7323 
12-May-2018_14:25:23 Exp 7309 26 1 R 3 3 7 immoralSelf moralSelf mismatch n m 0 0.7965 
12-May-2018_14:25:25 Exp 7309 26 1 R 3 3 8 moralOther immoralSelf mismatch n n 1 0.6806 
12-May-2018_14:25:28 Exp 7309 26 1 R 3 3 9 moralOther moralSelf mismatch n n 1 0.8028 
12-May-2018_14:25:30 Exp 7309 26 1 R 3 3 10 immoralSelf moralOther mismatch n n 1 0.8529 
12-May-2018_14:25:33 Exp 7309 26 1 R 3 3 11 moralSelf immoralOther mismatch n n 1 0.7650 
12-May-2018_14:25:35 Exp 7309 26 1 R 3 3 12 immoralSelf immoralSelf match m m 1 0.6632 
12-May-2018_14:25:37 Exp 7309 26 1 R 3 3 13 immoralOther moralOther mismatch n n 1 0.8133 
12-May-2018_14:25:40 Exp 7309 26 1 R 3 3 14 moralSelf moralSelf match m m 1 0.5575 
12-May-2018_14:25:42 Exp 7309 26 1 R 3 3 15 moralSelf moralSelf match m m 1 0.5836 
12-May-2018_14:25:44 Exp 7309 26 1 R 3 3 16 moralOther moralOther match m m 1 0.7576 
12-May-2018_14:25:46 Exp 7309 26 1 R 3 3 17 moralSelf immoralOther mismatch n n 1 0.6238 
12-May-2018_14:25:49 Exp 7309 26 1 R 3 3 18 moralOther immoralSelf mismatch n n 1 0.6939 
12-May-2018_14:25:51 Exp 7309 26 1 R 3 3 19 immoralSelf immoralSelf match m m 1 0.5101 
12-May-2018_14:25:53 Exp 7309 26 1 R 3 3 20 moralSelf moralSelf match m m 1 0.7062 
12-May-2018_14:25:56 Exp 7309 26 1 R 3 3 21 immoralSelf moralOther mismatch n m 0 0.7523 
12-May-2018_14:25:58 Exp 7309 26 1 R 3 3 22 moralOther moralOther match m m 1 0.6285 
12-May-2018_14:26:00 Exp 7309 26 1 R 3 3 23 immoralOther immoralOther match m m 1 0.7206 
12-May-2018_14:26:03 Exp 7309 26 1 R 3 3 24 moralSelf moralOther mismatch n n 1 0.8107 
12-May-2018_14:26:23 Exp 7309 26 1 R 3 4 1 immoralSelf immoralSelf match m n 0 0.8139 
12-May-2018_14:26:25 Exp 7309 26 1 R 3 4 2 immoralOther immoralSelf mismatch n m 0 0.7019 
12-May-2018_14:26:27 Exp 7309 26 1 R 3 4 3 moralSelf moralSelf match m m 1 0.5721 
12-May-2018_14:26:30 Exp 7309 26 1 R 3 4 4 immoralSelf immoralSelf match m m 1 0.7242 
12-May-2018_14:26:32 Exp 7309 26 1 R 3 4 5 moralSelf moralSelf match m m 1 0.5984 
12-May-2018_14:26:34 Exp 7309 26 1 R 3 4 6 immoralOther moralSelf mismatch n n 1 0.5765 
12-May-2018_14:26:36 Exp 7309 26 1 R 3 4 7 immoralSelf immoralSelf match m n 0 0.6726 
12-May-2018_14:26:38 Exp 7309 26 1 R 3 4 8 moralSelf immoralOther mismatch n m 0 0.4528 
12-May-2018_14:26:41 Exp 7309 26 1 R 3 4 9 moralOther immoralOther mismatch n m 0 0.5649 
12-May-2018_14:26:43 Exp 7309 26 1 R 3 4 10 immoralSelf moralOther mismatch n m 0 0.6870 
12-May-2018_14:26:45 Exp 7309 26 1 R 3 4 11 moralOther moralOther match m m 1 0.6891 
12-May-2018_14:26:47 Exp 7309 26 1 R 3 4 12 moralOther moralOther match m m 1 0.6333 
12-May-2018_14:26:50 Exp 7309 26 1 R 3 4 13 moralOther immoralOther mismatch n m 0 0.9414 
12-May-2018_14:26:52 Exp 7309 26 1 R 3 4 14 immoralSelf immoralOther mismatch n n 1 0.7715 
12-May-2018_14:26:55 Exp 7309 26 1 R 3 4 15 moralSelf moralSelf match m m 1 0.5636 
12-May-2018_14:26:57 Exp 7309 26 1 R 3 4 16 moralSelf immoralOther mismatch n m 0 0.6378 
12-May-2018_14:26:59 Exp 7309 26 1 R 3 4 17 immoralOther immoralOther match m m 1 0.6960 
12-May-2018_14:27:01 Exp 7309 26 1 R 3 4 18 immoralSelf moralOther mismatch n m 0 0.6560 
12-May-2018_14:27:04 Exp 7309 26 1 R 3 4 19 moralOther moralOther match m m 1 0.9442 
12-May-2018_14:27:06 Exp 7309 26 1 R 3 4 20 moralOther immoralOther mismatch n n 1 0.7664 
12-May-2018_14:27:09 Exp 7309 26 1 R 3 4 21 immoralOther moralOther mismatch n n 1 0.8245 
12-May-2018_14:27:11 Exp 7309 26 1 R 3 4 22 immoralOther immoralOther match m m 1 0.6306 
12-May-2018_14:27:13 Exp 7309 26 1 R 3 4 23 immoralOther immoralOther match m m 1 0.5387 
12-May-2018_14:27:16 Exp 7309 26 1 R 3 4 24 moralSelf moralOther mismatch n n 1 0.7129 
12-May-2018_14:27:18 Exp 7309 26 1 R 3 5 1 moralSelf moralSelf match m m 1 0.5810 
12-May-2018_14:27:20 Exp 7309 26 1 R 3 5 2 immoralSelf immoralSelf match m m 1 0.8831 
12-May-2018_14:27:23 Exp 7309 26 1 R 3 5 3 immoralOther immoralOther match m m 1 0.6212 
12-May-2018_14:27:25 Exp 7309 26 1 R 3 5 4 immoralSelf moralSelf mismatch n m 0 0.6993 
12-May-2018_14:27:27 Exp 7309 26 1 R 3 5 5 moralSelf moralSelf match m m 1 0.5295 
12-May-2018_14:27:30 Exp 7309 26 1 R 3 5 6 moralOther immoralSelf mismatch n n 1 0.8656 
12-May-2018_14:27:32 Exp 7309 26 1 R 3 5 7 moralOther immoralOther mismatch n m 0 0.7998 
12-May-2018_14:27:34 Exp 7309 26 1 R 3 5 8 immoralOther moralOther mismatch n n 1 0.6739 
12-May-2018_14:27:37 Exp 7309 26 1 R 3 5 9 moralOther moralOther match m n 0 0.8141 
12-May-2018_14:27:39 Exp 7309 26 1 R 3 5 10 immoralSelf moralOther mismatch n m 0 0.7741 
12-May-2018_14:27:42 Exp 7309 26 1 R 3 5 11 immoralOther immoralOther match m m 1 0.7584 
12-May-2018_14:27:44 Exp 7309 26 1 R 3 5 12 moralSelf immoralOther mismatch n n 1 0.6885 
12-May-2018_14:27:46 Exp 7309 26 1 R 3 5 13 immoralOther immoralOther match m m 1 0.5607 
12-May-2018_14:27:49 Exp 7309 26 1 R 3 5 14 moralOther moralSelf mismatch n m 0 0.6747 
12-May-2018_14:27:51 Exp 7309 26 1 R 3 5 15 immoralSelf immoralSelf match m n 0 0.6948 
12-May-2018_14:27:53 Exp 7309 26 1 R 3 5 16 moralSelf moralOther mismatch n n 1 0.8070 
12-May-2018_14:27:56 Exp 7309 26 1 R 3 5 17 immoralSelf immoralSelf match m m 1 0.7211 
12-May-2018_14:27:58 Exp 7309 26 1 R 3 5 18 moralOther moralOther match m m 1 0.7873 
12-May-2018_14:28:00 Exp 7309 26 1 R 3 5 19 immoralOther moralOther mismatch n n 1 0.6634 
12-May-2018_14:28:03 Exp 7309 26 1 R 3 5 20 moralSelf moralSelf match m m 1 0.6695 
12-May-2018_14:28:05 Exp 7309 26 1 R 3 5 21 immoralSelf moralOther mismatch n m 0 0.5776 
12-May-2018_14:28:07 Exp 7309 26 1 R 3 5 22 moralOther moralOther match m m 1 0.5758 
12-May-2018_14:28:09 Exp 7309 26 1 R 3 5 23 immoralOther moralOther mismatch n n 1 0.6959 
12-May-2018_14:28:12 Exp 7309 26 1 R 3 5 24 moralSelf immoralOther mismatch n n 1 0.7280 
Date Prac Sub Age Sex Hand Block Bin Trial Shape Label Match CorrResp Resp ACC RT
12-May-2018_14:33:21 Exp 7309 26 1 R 1 1 1 moralSelf moralSelf match m m 1 0.4157 
12-May-2018_14:33:23 Exp 7309 26 1 R 1 1 2 immoralOther moralOther mismatch n n 1 0.5117 
12-May-2018_14:33:25 Exp 7309 26 1 R 1 1 3 immoralSelf moralSelf mismatch n n 1 0.6338 
12-May-2018_14:33:28 Exp 7309 26 1 R 1 1 4 moralOther moralOther match m m 1 0.8379 
12-May-2018_14:33:30 Exp 7309 26 1 R 1 1 5 moralSelf moralSelf match m m 1 0.5121 
12-May-2018_14:33:32 Exp 7309 26 1 R 1 1 6 immoralSelf immoralSelf match m n 0 0.6842 
12-May-2018_14:33:35 Exp 7309 26 1 R 1 1 7 moralSelf moralOther mismatch n n 1 0.7583 
12-May-2018_14:33:37 Exp 7309 26 1 R 1 1 8 immoralSelf moralSelf mismatch n n 1 0.6645 
12-May-2018_14:33:39 Exp 7309 26 1 R 1 1 9 immoralOther moralOther mismatch n n 1 0.6226 
12-May-2018_14:33:41 Exp 7309 26 1 R 1 1 10 immoralOther immoralOther match m n 0 0.5887 
12-May-2018_14:33:44 Exp 7309 26 1 R 1 1 11 immoralSelf immoralSelf match m n 0 0.6328 
12-May-2018_14:33:46 Exp 7309 26 1 R 1 1 12 immoralOther immoralOther match m m 1 0.7010 
12-May-2018_14:33:48 Exp 7309 26 1 R 1 1 13 immoralOther immoralOther match m m 1 0.6431 
12-May-2018_14:33:50 Exp 7309 26 1 R 1 1 14 moralOther moralOther match m m 1 0.5392 
12-May-2018_14:33:53 Exp 7309 26 1 R 1 1 15 moralOther immoralSelf mismatch n m 0 0.6814 
12-May-2018_14:33:55 Exp 7309 26 1 R 1 1 16 moralSelf moralSelf match m m 1 0.6835 
12-May-2018_14:33:58 Exp 7309 26 1 R 1 1 17 moralOther immoralOther mismatch n m 0 0.9335 
12-May-2018_14:34:00 Exp 7309 26 1 R 1 1 18 moralOther moralOther match m m 1 0.5738 
12-May-2018_14:34:02 Exp 7309 26 1 R 1 1 19 immoralSelf immoralSelf match m n 0 0.6299 
12-May-2018_14:34:04 Exp 7309 26 1 R 1 1 20 moralOther immoralSelf mismatch n n 1 0.7220 
12-May-2018_14:34:07 Exp 7309 26 1 R 1 1 21 moralSelf immoralOther mismatch n n 1 0.7642 
12-May-2018_14:34:09 Exp 7309 26 1 R 1 1 22 immoralOther immoralSelf mismatch n n 1 0.8863 
12-May-2018_14:34:12 Exp 7309 26 1 R 1 1 23 immoralSelf moralOther mismatch n n 1 0.7764 
12-May-2018_14:34:14 Exp 7309 26 1 R 1 1 24 moralSelf immoralOther mismatch n n 1 0.5926 
12-May-2018_14:34:16 Exp 7309 26 1 R 1 2 1 moralOther moralSelf mismatch n n 1 0.7006 
12-May-2018_14:34:18 Exp 7309 26 1 R 1 2 2 immoralSelf moralSelf mismatch n m 0 0.4828 
12-May-2018_14:34:21 Exp 7309 26 1 R 1 2 3 immoralSelf immoralSelf match m n 0 0.5330 
12-May-2018_14:34:23 Exp 7309 26 1 R 1 2 4 moralOther immoralOther mismatch n m 0 0.5971 
12-May-2018_14:34:25 Exp 7309 26 1 R 1 2 5 moralOther moralOther match m m 1 0.6252 
12-May-2018_14:34:27 Exp 7309 26 1 R 1 2 6 moralOther moralOther match m n 0 0.6073 
12-May-2018_14:34:29 Exp 7309 26 1 R 1 2 7 immoralOther immoralOther match m m 1 0.5994 
12-May-2018_14:34:32 Exp 7309 26 1 R 1 2 8 immoralOther moralSelf mismatch n n 1 0.6656 
12-May-2018_14:34:34 Exp 7309 26 1 R 1 2 9 moralSelf immoralOther mismatch n n 1 0.6077 
12-May-2018_14:34:36 Exp 7309 26 1 R 1 2 10 immoralSelf immoralOther mismatch n n 1 0.6558 
12-May-2018_14:34:39 Exp 7309 26 1 R 1 2 11 moralOther moralOther match m m 1 0.5759 
12-May-2018_14:34:41 Exp 7309 26 1 R 1 2 12 moralSelf moralSelf match m m 1 0.5680 
12-May-2018_14:34:43 Exp 7309 26 1 R 1 2 13 immoralSelf moralSelf mismatch n n 1 0.5843 
12-May-2018_14:34:45 Exp 7309 26 1 R 1 2 14 moralSelf moralOther mismatch n n 1 0.7743 
12-May-2018_14:34:48 Exp 7309 26 1 R 1 2 15 immoralOther immoralOther match m m 1 0.7665 
12-May-2018_14:34:50 Exp 7309 26 1 R 1 2 16 moralSelf immoralSelf mismatch n n 1 0.6566 
12-May-2018_14:34:52 Exp 7309 26 1 R 1 2 17 immoralSelf immoralSelf match m m 1 0.6648 
12-May-2018_14:34:55 Exp 7309 26 1 R 1 2 18 immoralSelf immoralSelf match m m 1 0.7188 
12-May-2018_14:34:57 Exp 7309 26 1 R 1 2 19 moralOther immoralOther mismatch n m 0 0.8091 
12-May-2018_14:34:59 Exp 7309 26 1 R 1 2 20 immoralOther immoralOther match m m 1 0.6491 
12-May-2018_14:35:02 Exp 7309 26 1 R 1 2 21 moralSelf moralSelf match m m 1 0.5932 
12-May-2018_14:35:04 Exp 7309 26 1 R 1 2 22 immoralOther moralOther mismatch n n 1 0.8053 
12-May-2018_14:35:06 Exp 7309 26 1 R 1 2 23 moralSelf moralSelf match m m 1 0.5115 
12-May-2018_14:35:09 Exp 7309 26 1 R 1 2 24 immoralOther moralSelf mismatch n m 0 0.7637 
Date Prac Sub Age Sex Hand Block Bin Trial Shape Label Match CorrResp Resp ACC RT
12-May-2018_14:40:01 Exp 7309 26 1 R 1 1 1 immoralSelf immoralSelf match m n 0 0.8062 
12-May-2018_14:40:04 Exp 7309 26 1 R 1 1 2 immoralOther immoralOther match m m 1 0.7524 
12-May-2018_14:40:06 Exp 7309 26 1 R 1 1 3 immoralOther immoralSelf mismatch n n 1 0.7645 
12-May-2018_14:40:09 Exp 7309 26 1 R 1 1 4 immoralSelf immoralOther mismatch n n 1 0.9106 
12-May-2018_14:40:11 Exp 7309 26 1 R 1 1 5 moralOther immoralOther mismatch n n 1 0.8188 
12-May-2018_14:40:13 Exp 7309 26 1 R 1 1 6 moralOther moralOther match m m 1 0.6729 
12-May-2018_14:40:16 Exp 7309 26 1 R 1 1 7 moralOther immoralOther mismatch n m 0 0.8291 
12-May-2018_14:40:18 Exp 7309 26 1 R 1 1 8 moralSelf moralOther mismatch n n 1 0.8732 
12-May-2018_14:40:20 Exp 7309 26 1 R 1 1 9 moralSelf moralSelf match m m 1 0.5813 
12-May-2018_14:40:23 Exp 7309 26 1 R 1 1 10 moralSelf immoralOther mismatch n n 1 0.5955 
12-May-2018_14:40:25 Exp 7309 26 1 R 1 1 11 immoralSelf moralOther mismatch n n 1 0.6875 
12-May-2018_14:40:27 Exp 7309 26 1 R 1 1 12 immoralOther immoralOther match m m 1 0.7677 
12-May-2018_14:40:30 Exp 7309 26 1 R 1 1 13 immoralOther immoralOther match m m 1 0.6639 
12-May-2018_14:40:32 Exp 7309 26 1 R 1 1 14 moralOther immoralSelf mismatch n n 1 0.6380 
12-May-2018_14:40:34 Exp 7309 26 1 R 1 1 15 moralOther moralOther match m m 1 0.5761 
12-May-2018_14:40:37 Exp 7309 26 1 R 1 1 16 moralSelf immoralSelf mismatch n n 1 0.7282 
12-May-2018_14:40:39 Exp 7309 26 1 R 1 1 17 moralSelf moralSelf match m m 1 0.6084 
12-May-2018_14:40:41 Exp 7309 26 1 R 1 1 18 moralOther moralOther match m m 1 0.6805 
12-May-2018_14:40:43 Exp 7309 26 1 R 1 1 19 immoralSelf moralSelf mismatch n n 1 0.7226 
12-May-2018_14:40:46 Exp 7309 26 1 R 1 1 20 immoralOther moralSelf mismatch n n 1 0.6287 
12-May-2018_14:40:48 Exp 7309 26 1 R 1 1 21 immoralOther immoralSelf mismatch n n 1 0.5368 
12-May-2018_14:40:50 Exp 7309 26 1 R 1 1 22 immoralSelf immoralSelf match m m 1 0.5690 
12-May-2018_14:40:52 Exp 7309 26 1 R 1 1 23 immoralSelf immoralSelf match m n 0 0.5771 
12-May-2018_14:40:54 Exp 7309 26 1 R 1 1 24 moralSelf moralSelf match m m 1 0.5213 
12-May-2018_14:40:57 Exp 7309 26 1 R 1 2 1 immoralSelf immoralSelf match m n 0 0.5393 
12-May-2018_14:40:59 Exp 7309 26 1 R 1 2 2 immoralOther immoralOther match m n 0 0.6815 
12-May-2018_14:41:01 Exp 7309 26 1 R 1 2 3 moralOther moralOther match m n 0 0.7476 
12-May-2018_14:41:04 Exp 7309 26 1 R 1 2 4 moralOther immoralOther mismatch n n 1 0.8078 
12-May-2018_14:41:06 Exp 7309 26 1 R 1 2 5 moralSelf moralOther mismatch n m 0 0.6479 
12-May-2018_14:41:08 Exp 7309 26 1 R 1 2 6 immoralOther moralOther mismatch n n 1 0.6640 
12-May-2018_14:41:11 Exp 7309 26 1 R 1 2 7 moralSelf moralSelf match m m 1 0.6461 
12-May-2018_14:41:13 Exp 7309 26 1 R 1 2 8 immoralSelf immoralSelf match m m 1 0.9042 
12-May-2018_14:41:15 Exp 7309 26 1 R 1 2 9 moralSelf moralSelf match m m 1 0.7664 
12-May-2018_14:41:18 Exp 7309 26 1 R 1 2 10 moralSelf immoralSelf mismatch n n 1 0.7046 
12-May-2018_14:41:20 Exp 7309 26 1 R 1 2 11 immoralSelf moralSelf mismatch n m 0 0.6866 
12-May-2018_14:41:22 Exp 7309 26 1 R 1 2 12 immoralOther immoralSelf mismatch n n 1 0.6968 
12-May-2018_14:41:25 Exp 7309 26 1 R 1 2 13 immoralSelf moralSelf mismatch n n 1 0.6409 
12-May-2018_14:41:27 Exp 7309 26 1 R 1 2 14 immoralSelf immoralSelf match m m 1 0.6111 
12-May-2018_14:41:29 Exp 7309 26 1 R 1 2 15 immoralOther immoralOther match m m 1 0.5312 
12-May-2018_14:41:31 Exp 7309 26 1 R 1 2 16 moralOther immoralSelf mismatch n n 1 0.6434 
12-May-2018_14:41:34 Exp 7309 26 1 R 1 2 17 moralOther immoralSelf mismatch n n 1 0.7495 
12-May-2018_14:41:36 Exp 7309 26 1 R 1 2 18 moralSelf moralSelf match m m 1 0.5296 
12-May-2018_14:41:38 Exp 7309 26 1 R 1 2 19 immoralSelf immoralOther mismatch n n 1 0.6337 
12-May-2018_14:41:41 Exp 7309 26 1 R 1 2 20 immoralOther moralOther mismatch n n 1 0.7578 
12-May-2018_14:41:43 Exp 7309 26 1 R 1 2 21 moralOther moralOther match m n 0 0.7359 
12-May-2018_14:41:45 Exp 7309 26 1 R 1 2 22 moralSelf moralOther mismatch n n 1 0.6321 
12-May-2018_14:41:48 Exp 7309 26 1 R 1 2 23 immoralOther immoralOther match m m 1 0.7163 
12-May-2018_14:41:50 Exp 7309 26 1 R 1 2 24 moralOther moralOther match m m 1 0.6324 
Date Prac Sub Age Sex Hand Block Bin Trial Shape Label Match CorrResp Resp ACC RT
12-May-2018_14:46:08 Exp 7309 26 1 R 1 1 1 moralOther moralSelf mismatch n n 1 0.7650 
12-May-2018_14:46:10 Exp 7309 26 1 R 1 1 2 immoralSelf immoralSelf match m m 1 0.7671 
12-May-2018_14:46:13 Exp 7309 26 1 R 1 1 3 moralSelf immoralOther mismatch n n 1 0.7932 
12-May-2018_14:46:15 Exp 7309 26 1 R 1 1 4 immoralOther moralSelf mismatch n n 1 0.6214 
12-May-2018_14:46:17 Exp 7309 26 1 R 1 1 5 moralOther immoralSelf mismatch n n 1 0.7074 
12-May-2018_14:46:20 Exp 7309 26 1 R 1 1 6 immoralOther immoralOther match m m 1 0.6476 
12-May-2018_14:46:22 Exp 7309 26 1 R 1 1 7 immoralSelf immoralSelf match m n 0 0.6478 
12-May-2018_14:46:24 Exp 7309 26 1 R 1 1 8 moralOther moralOther match m m 1 0.8159 
12-May-2018_14:46:27 Exp 7309 26 1 R 1 1 9 moralSelf immoralOther mismatch n m 0 0.5681 
12-May-2018_14:46:29 Exp 7309 26 1 R 1 1 10 moralSelf moralSelf match m m 1 0.6241 
12-May-2018_14:46:31 Exp 7309 26 1 R 1 1 11 immoralOther immoralOther match m m 1 0.6383 
12-May-2018_14:46:33 Exp 7309 26 1 R 1 1 12 immoralOther immoralSelf mismatch n n 1 0.6324 
12-May-2018_14:46:36 Exp 7309 26 1 R 1 1 13 moralOther moralOther match m m 1 0.7725 
12-May-2018_14:46:38 Exp 7309 26 1 R 1 1 14 moralOther moralOther match m m 1 0.4927 
12-May-2018_14:46:40 Exp 7309 26 1 R 1 1 15 moralSelf moralSelf match m n 0 0.6688 
12-May-2018_14:46:43 Exp 7309 26 1 R 1 1 16 immoralSelf moralOther mismatch n n 1 0.7133 
12-May-2018_14:46:45 Exp 7309 26 1 R 1 1 17 immoralSelf immoralOther mismatch n m 0 0.6371 
12-May-2018_14:46:47 Exp 7309 26 1 R 1 1 18 immoralOther immoralOther match m m 1 0.6892 
12-May-2018_14:46:49 Exp 7309 26 1 R 1 1 19 moralSelf immoralOther mismatch n m 0 0.5612 
12-May-2018_14:46:51 Exp 7309 26 1 R 1 1 20 moralSelf moralSelf match m m 1 0.5474 
12-May-2018_14:46:54 Exp 7309 26 1 R 1 1 21 moralOther moralSelf mismatch n n 1 0.6476 
12-May-2018_14:46:56 Exp 7309 26 1 R 1 1 22 immoralOther moralSelf mismatch n m 0 0.5677 
12-May-2018_14:46:58 Exp 7309 26 1 R 1 1 23 immoralSelf immoralSelf match m m 1 0.7278 
12-May-2018_14:47:01 Exp 7309 26 1 R 1 1 24 immoralSelf immoralOther mismatch n n 1 0.7680 
12-May-2018_14:47:03 Exp 7309 26 1 R 1 2 1 moralSelf moralOther mismatch n n 1 0.8401 
12-May-2018_14:47:05 Exp 7309 26 1 R 1 2 2 moralOther immoralSelf mismatch n n 1 0.6583 
12-May-2018_14:47:08 Exp 7309 26 1 R 1 2 3 immoralSelf immoralSelf match m n 0 0.6724 
12-May-2018_14:47:10 Exp 7309 26 1 R 1 2 4 moralSelf moralSelf match m m 1 0.5405 
12-May-2018_14:47:12 Exp 7309 26 1 R 1 2 5 immoralSelf moralOther mismatch n n 1 0.6186 
12-May-2018_14:47:14 Exp 7309 26 1 R 1 2 6 moralSelf immoralSelf mismatch n m 0 0.5767 
12-May-2018_14:47:17 Exp 7309 26 1 R 1 2 7 moralOther moralOther match m n 0 0.8169 
12-May-2018_14:47:19 Exp 7309 26 1 R 1 2 8 moralSelf moralSelf match m m 1 0.5850 
12-May-2018_14:47:21 Exp 7309 26 1 R 1 2 9 immoralOther immoralOther match m m 1 0.6312 
12-May-2018_14:47:24 Exp 7309 26 1 R 1 2 10 immoralSelf immoralOther mismatch n n 1 0.7232 
12-May-2018_14:47:26 Exp 7309 26 1 R 1 2 11 immoralOther immoralOther match m m 1 0.7174 
12-May-2018_14:47:28 Exp 7309 26 1 R 1 2 12 immoralOther moralSelf mismatch n m 0 0.6394 
12-May-2018_14:47:31 Exp 7309 26 1 R 1 2 13 immoralSelf immoralSelf match m n 0 0.7377 
12-May-2018_14:47:33 Exp 7309 26 1 R 1 2 14 immoralOther moralOther mismatch n n 1 0.7758 
12-May-2018_14:47:35 Exp 7309 26 1 R 1 2 15 moralSelf moralSelf match m m 1 0.5279 
12-May-2018_14:47:37 Exp 7309 26 1 R 1 2 16 immoralSelf immoralSelf match m m 1 0.6080 
12-May-2018_14:47:40 Exp 7309 26 1 R 1 2 17 moralSelf immoralSelf mismatch n n 1 0.7042 
12-May-2018_14:47:42 Exp 7309 26 1 R 1 2 18 moralOther immoralOther mismatch n n 1 0.6143 
12-May-2018_14:47:44 Exp 7309 26 1 R 1 2 19 immoralOther immoralSelf mismatch n n 1 0.5744 
12-May-2018_14:47:46 Exp 7309 26 1 R 1 2 20 moralOther moralOther match m m 1 0.4946 
12-May-2018_14:47:49 Exp 7309 26 1 R 1 2 21 moralOther immoralSelf mismatch n m 0 0.6547 
12-May-2018_14:47:51 Exp 7309 26 1 R 1 2 22 moralOther moralOther match m m 1 0.6069 
12-May-2018_14:47:53 Exp 7309 26 1 R 1 2 23 immoralSelf moralOther mismatch n m 0 0.6889 
12-May-2018_14:47:55 Exp 7309 26 1 R 1 2 24 immoralOther immoralOther match m m 1 0.6251 
Date Prac Sub Age Sex Hand Block Bin Trial Shape Label Match CorrResp Resp ACC RT
12-May-2018_14:52:12 Exp 7309 26 1 R 1 1 1 moralOther immoralOther mismatch n m 0 0.7996 
12-May-2018_14:52:14 Exp 7309 26 1 R 1 1 2 moralSelf moralSelf match m m 1 0.5777 
12-May-2018_14:52:16 Exp 7309 26 1 R 1 1 3 moralOther immoralSelf mismatch n m 0 0.8158 
12-May-2018_14:52:19 Exp 7309 26 1 R 1 1 4 immoralOther immoralOther match m n 0 0.5840 
12-May-2018_14:52:21 Exp 7309 26 1 R 1 1 5 immoralSelf immoralOther mismatch n n 1 0.9741 
12-May-2018_14:52:24 Exp 7309 26 1 R 1 1 6 immoralSelf immoralSelf match m m 1 0.6462 
12-May-2018_14:52:26 Exp 7309 26 1 R 1 1 7 immoralOther moralOther mismatch n n 1 0.7524 
12-May-2018_14:52:28 Exp 7309 26 1 R 1 1 8 immoralSelf immoralOther mismatch n m 0 0.8125 
12-May-2018_14:52:31 Exp 7309 26 1 R 1 1 9 immoralOther immoralOther match m m 1 0.8126 
12-May-2018_14:52:33 Exp 7309 26 1 R 1 1 10 moralOther moralOther match m n 0 0.7008 
12-May-2018_14:52:35 Exp 7309 26 1 R 1 1 11 immoralSelf immoralOther mismatch n n 1 0.5709 
12-May-2018_14:52:38 Exp 7309 26 1 R 1 1 12 immoralOther moralOther mismatch n n 1 0.7630 
12-May-2018_14:52:40 Exp 7309 26 1 R 1 1 13 moralSelf immoralSelf mismatch n m 0 0.4853 
12-May-2018_14:52:42 Exp 7309 26 1 R 1 1 14 moralSelf immoralSelf mismatch n n 1 0.6954 
12-May-2018_14:52:44 Exp 7309 26 1 R 1 1 15 immoralSelf immoralSelf match m n 0 0.5674 
12-May-2018_14:52:47 Exp 7309 26 1 R 1 1 16 moralOther immoralSelf mismatch n n 1 0.7596 
12-May-2018_14:52:49 Exp 7309 26 1 R 1 1 17 immoralSelf immoralSelf match m m 1 0.4577 
12-May-2018_14:52:51 Exp 7309 26 1 R 1 1 18 immoralOther immoralOther match m n 0 0.5839 
12-May-2018_14:52:53 Exp 7309 26 1 R 1 1 19 moralOther moralOther match m m 1 0.5739 
12-May-2018_14:52:56 Exp 7309 26 1 R 1 1 20 moralOther moralOther match m m 1 0.6461 
12-May-2018_14:52:58 Exp 7309 26 1 R 1 1 21 immoralOther moralOther mismatch n m 0 0.4642 
12-May-2018_14:53:00 Exp 7309 26 1 R 1 1 22 moralSelf immoralOther mismatch n m 0 0.6864 
12-May-2018_14:53:02 Exp 7309 26 1 R 1 1 23 moralSelf moralSelf match m m 1 0.6084 
12-May-2018_14:53:04 Exp 7309 26 1 R 1 1 24 moralSelf moralSelf match m m 1 0.4966 
12-May-2018_14:53:07 Exp 7309 26 1 R 1 2 1 moralOther moralSelf mismatch n n 1 0.6807 
12-May-2018_14:53:09 Exp 7309 26 1 R 1 2 2 immoralOther immoralOther match m n 0 0.7628 
12-May-2018_14:53:11 Exp 7309 26 1 R 1 2 3 moralSelf moralOther mismatch n m 0 0.6210 
12-May-2018_14:53:14 Exp 7309 26 1 R 1 2 4 immoralSelf immoralOther mismatch n m 0 0.7711 
12-May-2018_14:53:16 Exp 7309 26 1 R 1 2 5 immoralSelf immoralSelf match m n 0 0.7712 
12-May-2018_14:53:19 Exp 7309 26 1 R 1 2 6 moralSelf moralOther mismatch n n 1 0.9393 
12-May-2018_14:53:21 Exp 7309 26 1 R 1 2 7 immoralOther moralSelf mismatch n m 0 0.5455 
12-May-2018_14:53:23 Exp 7309 26 1 R 1 2 8 immoralSelf immoralSelf match m m 1 0.7516 
12-May-2018_14:53:25 Exp 7309 26 1 R 1 2 9 moralSelf moralSelf match m m 1 0.5478 
12-May-2018_14:53:28 Exp 7309 26 1 R 1 2 10 moralSelf immoralSelf mismatch n n 1 0.6320 
12-May-2018_14:53:30 Exp 7309 26 1 R 1 2 11 immoralOther immoralOther match m m 1 0.8761 
12-May-2018_14:53:33 Exp 7309 26 1 R 1 2 12 immoralSelf moralOther mismatch n n 1 0.8482 
12-May-2018_14:53:35 Exp 7309 26 1 R 1 2 13 moralOther moralOther match m m 1 0.6803 
12-May-2018_14:53:37 Exp 7309 26 1 R 1 2 14 immoralOther immoralOther match m m 1 0.6745 
12-May-2018_14:53:40 Exp 7309 26 1 R 1 2 15 moralOther moralOther match m m 1 0.7346 
12-May-2018_14:53:42 Exp 7309 26 1 R 1 2 16 immoralSelf moralOther mismatch n n 1 0.6948 
12-May-2018_14:53:44 Exp 7309 26 1 R 1 2 17 moralSelf moralSelf match m m 1 0.5668 
12-May-2018_14:53:46 Exp 7309 26 1 R 1 2 18 moralOther moralSelf mismatch n n 1 0.6010 
12-May-2018_14:53:49 Exp 7309 26 1 R 1 2 19 immoralOther moralSelf mismatch n n 1 0.7711 
12-May-2018_14:53:51 Exp 7309 26 1 R 1 2 20 immoralSelf immoralSelf match m m 1 0.6832 
12-May-2018_14:53:53 Exp 7309 26 1 R 1 2 21 moralOther immoralSelf mismatch n n 1 0.7734 
12-May-2018_14:53:56 Exp 7309 26 1 R 1 2 22 immoralOther moralOther mismatch n m 0 0.7895 
12-May-2018_14:53:58 Exp 7309 26 1 R 1 2 23 moralSelf moralSelf match m m 1 0.6417 
12-May-2018_14:54:00 Exp 7309 26 1 R 1 2 24 moralOther moralOther match m m 1 0.6357 
Date Prac Sub Age Sex Hand Block Bin Trial Shape Label Match CorrResp Resp ACC RT
12-May-2018_14:58:12 Exp 7309 26 1 R 1 1 1 immoralSelf immoralSelf match m n 0 0.8060 
12-May-2018_14:58:14 Exp 7309 26 1 R 1 1 2 immoralOther moralSelf mismatch n n 1 0.6720 
12-May-2018_14:58:16 Exp 7309 26 1 R 1 1 3 immoralOther moralOther mismatch n m 0 0.6762 
12-May-2018_14:58:19 Exp 7309 26 1 R 1 1 4 immoralOther moralOther mismatch n n 1 0.6644 
12-May-2018_14:58:21 Exp 7309 26 1 R 1 1 5 moralOther moralSelf mismatch n m 0 0.6945 
12-May-2018_14:58:23 Exp 7309 26 1 R 1 1 6 immoralOther immoralOther match m m 1 0.6547 
12-May-2018_14:58:25 Exp 7309 26 1 R 1 1 7 moralOther immoralSelf mismatch n n 1 0.6947 
12-May-2018_14:58:28 Exp 7309 26 1 R 1 1 8 moralSelf moralSelf match m m 1 0.5109 
12-May-2018_14:58:30 Exp 7309 26 1 R 1 1 9 immoralOther immoralOther match m n 0 0.5470 
12-May-2018_14:58:32 Exp 7309 26 1 R 1 1 10 immoralSelf immoralSelf match m m 1 0.8011 
12-May-2018_14:58:34 Exp 7309 26 1 R 1 1 11 moralSelf immoralSelf mismatch n m 0 0.5073 
12-May-2018_14:58:37 Exp 7309 26 1 R 1 1 12 immoralSelf moralSelf mismatch n n 1 0.7674 
12-May-2018_14:58:39 Exp 7309 26 1 R 1 1 13 immoralSelf immoralOther mismatch n n 1 0.7116 
12-May-2018_14:58:41 Exp 7309 26 1 R 1 1 14 immoralSelf immoralSelf match m m 1 0.6597 
12-May-2018_14:58:44 Exp 7309 26 1 R 1 1 15 moralSelf immoralSelf mismatch n m 0 0.6098 
12-May-2018_14:58:46 Exp 7309 26 1 R 1 1 16 moralOther immoralOther mismatch n n 1 0.9219 
12-May-2018_14:58:48 Exp 7309 26 1 R 1 1 17 immoralSelf immoralOther mismatch n n 1 0.6441 
12-May-2018_14:58:51 Exp 7309 26 1 R 1 1 18 moralSelf moralSelf match m m 1 0.5182 
12-May-2018_14:58:53 Exp 7309 26 1 R 1 1 19 immoralOther immoralOther match m n 0 0.5283 
12-May-2018_14:58:55 Exp 7309 26 1 R 1 1 20 moralOther moralOther match m n 0 0.6245 
12-May-2018_14:58:57 Exp 7309 26 1 R 1 1 21 moralOther moralOther match m n 0 0.5746 
12-May-2018_14:58:59 Exp 7309 26 1 R 1 1 22 moralSelf moralSelf match m m 1 0.5427 
12-May-2018_14:59:02 Exp 7309 26 1 R 1 1 23 moralSelf immoralSelf mismatch n n 1 0.9008 
12-May-2018_14:59:04 Exp 7309 26 1 R 1 1 24 moralOther moralOther match m m 1 0.6429 
12-May-2018_14:59:07 Exp 7309 26 1 R 1 2 1 moralOther moralOther match m n 0 0.7651 
12-May-2018_14:59:09 Exp 7309 26 1 R 1 2 2 moralSelf immoralOther mismatch n n 1 0.7514 
12-May-2018_14:59:11 Exp 7309 26 1 R 1 2 3 immoralSelf immoralSelf match m m 1 0.6674 
12-May-2018_14:59:13 Exp 7309 26 1 R 1 2 4 moralOther moralOther match m m 1 0.5755 
12-May-2018_14:59:16 Exp 7309 26 1 R 1 2 5 moralOther immoralSelf mismatch n m 0 0.6157 
12-May-2018_14:59:18 Exp 7309 26 1 R 1 2 6 immoralOther immoralOther match m m 1 0.6397 
12-May-2018_14:59:20 Exp 7309 26 1 R 1 2 7 immoralOther immoralSelf mismatch n n 1 0.7779 
12-May-2018_14:59:23 Exp 7309 26 1 R 1 2 8 immoralSelf immoralSelf match m n 0 0.6880 
12-May-2018_14:59:25 Exp 7309 26 1 R 1 2 9 immoralSelf moralOther mismatch n n 1 0.8081 
12-May-2018_14:59:28 Exp 7309 26 1 R 1 2 10 immoralSelf immoralOther mismatch n m 0 0.8643 
12-May-2018_14:59:30 Exp 7309 26 1 R 1 2 11 moralSelf immoralSelf mismatch n n 1 0.7424 
12-May-2018_14:59:32 Exp 7309 26 1 R 1 2 12 moralSelf moralSelf match m n 0 0.7006 
12-May-2018_14:59:34 Exp 7309 26 1 R 1 2 13 moralSelf moralSelf match m m 1 0.5627 
12-May-2018_14:59:37 Exp 7309 26 1 R 1 2 14 immoralOther immoralSelf mismatch n n 1 0.7488 
12-May-2018_14:59:39 Exp 7309 26 1 R 1 2 15 immoralOther immoralOther match m m 1 0.5450 
12-May-2018_14:59:41 Exp 7309 26 1 R 1 2 16 immoralOther immoralOther match m m 1 0.6231 
12-May-2018_14:59:44 Exp 7309 26 1 R 1 2 17 moralSelf moralOther mismatch n m 0 0.6612 
12-May-2018_14:59:46 Exp 7309 26 1 R 1 2 18 immoralSelf immoralSelf match m n 0 0.6593 
12-May-2018_14:59:48 Exp 7309 26 1 R 1 2 19 moralOther moralOther match m m 1 0.6175 
12-May-2018_14:59:51 Exp 7309 26 1 R 1 2 20 moralOther moralSelf mismatch n n 1 0.8795 
12-May-2018_14:59:53 Exp 7309 26 1 R 1 2 21 immoralOther immoralSelf mismatch n n 1 0.7938 
12-May-2018_14:59:55 Exp 7309 26 1 R 1 2 22 moralOther immoralOther mismatch n m 0 0.7579 
12-May-2018_14:59:58 Exp 7309 26 1 R 1 2 23 moralSelf moralSelf match m m 1 0.6401 
12-May-2018_15:00:00 Exp 7309 26 1 R 1 2 24 immoralSelf moralSelf mismatch n n 1 0.6741 
