"SubjectID","Age","Gender","Handness","moralSelfShape","immoralSelfShape","moralOtherShape","immoralOtherShape","matchKey","mismatchKey","Block","Bin","Trial","Identity","Morality","Match","RT","ResponseKey","Accuracy"
"2027","20","male","R","Tra","C","S","P","N","M","1","1","1","self","moral","match","1.0440",NA,"-1"
"2027","20","male","R","Tra","C","S","P","N","M","1","1","2","other","moral","match","0.5324","M","0"
"2027","20","male","R","Tra","C","S","P","N","M","1","1","3","other","moral","nonmatch","0.4866","N","0"
"2027","20","male","R","Tra","C","S","P","N","M","1","1","4","other","immoral","match","0.7288","M","0"
"2027","20","male","R","Tra","C","S","P","N","M","1","1","5","other","immoral","nonmatch","0.7926","N","0"
"2027","20","male","R","Tra","C","S","P","N","M","1","1","6","self","immoral","match","1.0440",NA,"-1"
"2027","20","male","R","Tra","C","S","P","N","M","1","1","7","self","immoral","nonmatch","0.8549","N","0"
"2027","20","male","R","Tra","C","S","P","N","M","1","1","8","other","immoral","nonmatch","0.7655","M","1"
"2027","20","male","R","Tra","C","S","P","N","M","1","1","9","self","moral","nonmatch","0.6477","N","0"
"2027","20","male","R","Tra","C","S","P","N","M","1","1","10","self","moral","match","0.7036","M","0"
"2027","20","male","R","Tra","C","S","P","N","M","1","1","11","self","moral","nonmatch","0.3981","N","0"
"2027","20","male","R","Tra","C","S","P","N","M","1","1","12","self","moral","nonmatch","1.0440",NA,"-1"
"2027","20","male","R","Tra","C","S","P","N","M","1","1","13","self","immoral","match","0.5887","M","0"
"2027","20","male","R","Tra","C","S","P","N","M","1","1","14","other","immoral","match","1.0440",NA,"-1"
"2027","20","male","R","Tra","C","S","P","N","M","1","1","15","other","moral","match","1.0440",NA,"-1"
"2027","20","male","R","Tra","C","S","P","N","M","1","1","16","other","immoral","match","0.8026","M","0"
"2027","20","male","R","Tra","C","S","P","N","M","1","1","17","self","immoral","match","0.7451","N","1"
"2027","20","male","R","Tra","C","S","P","N","M","1","1","18","other","moral","match","0.8091","M","0"
"2027","20","male","R","Tra","C","S","P","N","M","1","1","19","self","moral","match","0.8636","M","0"
"2027","20","male","R","Tra","C","S","P","N","M","1","1","20","self","immoral","nonmatch","0.9354","N","0"
"2027","20","male","R","Tra","C","S","P","N","M","1","1","21","self","immoral","nonmatch","0.5339","N","0"
"2027","20","male","R","Tra","C","S","P","N","M","1","1","22","other","immoral","nonmatch","0.7097","M","1"
"2027","20","male","R","Tra","C","S","P","N","M","1","1","23","other","moral","nonmatch","0.5803","M","1"
"2027","20","male","R","Tra","C","S","P","N","M","1","1","24","other","moral","nonmatch","0.7881","M","1"
"2027","20","male","R","Tra","C","S","P","N","M","1","2","1","self","moral","nonmatch","0.7743","N","0"
"2027","20","male","R","Tra","C","S","P","N","M","1","2","2","other","moral","nonmatch","0.6928","M","1"
"2027","20","male","R","Tra","C","S","P","N","M","1","2","3","self","moral","match","0.6368","N","1"
"2027","20","male","R","Tra","C","S","P","N","M","1","2","4","other","immoral","match","0.5392","M","0"
"2027","20","male","R","Tra","C","S","P","N","M","1","2","5","other","immoral","nonmatch","0.8431","M","1"
"2027","20","male","R","Tra","C","S","P","N","M","1","2","6","self","immoral","match","1.0440",NA,"-1"
"2027","20","male","R","Tra","C","S","P","N","M","1","2","7","other","moral","match","0.6334","M","0"
"2027","20","male","R","Tra","C","S","P","N","M","1","2","8","other","moral","nonmatch","0.8000","M","1"
"2027","20","male","R","Tra","C","S","P","N","M","1","2","9","self","immoral","match","0.7038","N","1"
"2027","20","male","R","Tra","C","S","P","N","M","1","2","10","self","immoral","nonmatch","0.6463","M","1"
"2027","20","male","R","Tra","C","S","P","N","M","1","2","11","self","moral","match","0.7901","N","1"
"2027","20","male","R","Tra","C","S","P","N","M","1","2","12","other","moral","match","0.5087","M","0"
"2027","20","male","R","Tra","C","S","P","N","M","1","2","13","other","immoral","nonmatch","0.6286","M","1"
"2027","20","male","R","Tra","C","S","P","N","M","1","2","14","self","moral","match","0.6511","N","1"
"2027","20","male","R","Tra","C","S","P","N","M","1","2","15","other","moral","nonmatch","0.5149","M","1"
"2027","20","male","R","Tra","C","S","P","N","M","1","2","16","self","moral","nonmatch","0.5693","M","1"
"2027","20","male","R","Tra","C","S","P","N","M","1","2","17","self","immoral","nonmatch","0.8412","M","1"
"2027","20","male","R","Tra","C","S","P","N","M","1","2","18","other","immoral","match","0.5678","M","0"
"2027","20","male","R","Tra","C","S","P","N","M","1","2","19","other","immoral","nonmatch","0.6955","N","0"
"2027","20","male","R","Tra","C","S","P","N","M","1","2","20","other","immoral","match","0.6782","M","0"
"2027","20","male","R","Tra","C","S","P","N","M","1","2","21","other","moral","match","0.5660","M","0"
"2027","20","male","R","Tra","C","S","P","N","M","1","2","22","self","immoral","nonmatch","0.7805","M","1"
"2027","20","male","R","Tra","C","S","P","N","M","1","2","23","self","immoral","match","0.7243","N","1"
"2027","20","male","R","Tra","C","S","P","N","M","1","2","24","self","moral","nonmatch","0.7069","M","1"
"2027","20","male","R","Tra","C","S","P","N","M","1","1","1","other","immoral","match","0.6868","M","0"
"2027","20","male","R","Tra","C","S","P","N","M","1","1","2","other","immoral","nonmatch","1.0440",NA,"-1"
"2027","20","male","R","Tra","C","S","P","N","M","1","1","3","self","immoral","match","0.6354","N","1"
"2027","20","male","R","Tra","C","S","P","N","M","1","1","4","other","moral","nonmatch","0.5214","M","1"
"2027","20","male","R","Tra","C","S","P","N","M","1","1","5","self","moral","match","0.4557","M","0"
"2027","20","male","R","Tra","C","S","P","N","M","1","1","6","other","moral","nonmatch","1.0218","N","0"
"2027","20","male","R","Tra","C","S","P","N","M","1","1","7","self","moral","nonmatch","0.9560","M","1"
"2027","20","male","R","Tra","C","S","P","N","M","1","1","8","other","immoral","nonmatch","0.9782","M","1"
"2027","20","male","R","Tra","C","S","P","N","M","1","1","9","self","moral","nonmatch","0.8164","M","1"
"2027","20","male","R","Tra","C","S","P","N","M","1","1","10","self","moral","nonmatch","1.0305","M","1"
"2027","20","male","R","Tra","C","S","P","N","M","1","1","11","self","immoral","nonmatch","1.0440",NA,"-1"
"2027","20","male","R","Tra","C","S","P","N","M","1","1","12","other","immoral","nonmatch","0.7869","N","0"
"2027","20","male","R","Tra","C","S","P","N","M","1","1","13","self","moral","match","0.7771","N","1"
"2027","20","male","R","Tra","C","S","P","N","M","1","1","14","self","immoral","nonmatch","0.7272","M","1"
"2027","20","male","R","Tra","C","S","P","N","M","1","1","15","other","moral","match","0.8534","N","1"
"2027","20","male","R","Tra","C","S","P","N","M","1","1","16","self","immoral","nonmatch","0.7316","M","1"
"2027","20","male","R","Tra","C","S","P","N","M","1","1","17","other","moral","nonmatch","0.8339","M","1"
"2027","20","male","R","Tra","C","S","P","N","M","1","1","18","other","moral","match","0.7841","N","1"
"2027","20","male","R","Tra","C","S","P","N","M","1","1","19","self","moral","match","0.7582","M","0"
"2027","20","male","R","Tra","C","S","P","N","M","1","1","20","self","immoral","match","0.6924","M","0"
"2027","20","male","R","Tra","C","S","P","N","M","1","1","21","other","immoral","match","0.7945","M","0"
"2027","20","male","R","Tra","C","S","P","N","M","1","1","22","self","immoral","match","0.8247","N","1"
"2027","20","male","R","Tra","C","S","P","N","M","1","1","23","other","immoral","match","1.0440",NA,"-1"
"2027","20","male","R","Tra","C","S","P","N","M","1","1","24","other","moral","match","0.8611","N","1"
"2027","20","male","R","Tra","C","S","P","N","M","1","2","1","self","immoral","nonmatch","1.0032","M","1"
"2027","20","male","R","Tra","C","S","P","N","M","1","2","2","other","immoral","match","0.7775","N","1"
"2027","20","male","R","Tra","C","S","P","N","M","1","2","3","other","immoral","nonmatch","0.6236","M","1"
"2027","20","male","R","Tra","C","S","P","N","M","1","2","4","other","immoral","match","0.5419","N","1"
"2027","20","male","R","Tra","C","S","P","N","M","1","2","5","other","moral","match","0.7881","M","0"
"2027","20","male","R","Tra","C","S","P","N","M","1","2","6","self","moral","match","0.8102","N","1"
"2027","20","male","R","Tra","C","S","P","N","M","1","2","7","self","immoral","match","0.7125","N","1"
"2027","20","male","R","Tra","C","S","P","N","M","1","2","8","self","moral","match","0.6786","N","1"
"2027","20","male","R","Tra","C","S","P","N","M","1","2","9","self","moral","nonmatch","0.6368","M","1"
"2027","20","male","R","Tra","C","S","P","N","M","1","2","10","self","moral","match","0.5470","N","1"
"2027","20","male","R","Tra","C","S","P","N","M","1","2","11","other","immoral","match","0.9852","N","1"
"2027","20","male","R","Tra","C","S","P","N","M","1","2","12","other","immoral","nonmatch","0.6873","M","1"
"2027","20","male","R","Tra","C","S","P","N","M","1","2","13","self","immoral","match","0.6454","N","1"
"2027","20","male","R","Tra","C","S","P","N","M","1","2","14","self","moral","nonmatch","0.7157","M","1"
"2027","20","male","R","Tra","C","S","P","N","M","1","2","15","other","moral","nonmatch","0.9459","N","0"
"2027","20","male","R","Tra","C","S","P","N","M","1","2","16","other","moral","nonmatch","0.6960","M","1"
"2027","20","male","R","Tra","C","S","P","N","M","1","2","17","other","moral","match","0.6222","N","1"
"2027","20","male","R","Tra","C","S","P","N","M","1","2","18","other","moral","nonmatch","0.5965","M","1"
"2027","20","male","R","Tra","C","S","P","N","M","1","2","19","self","immoral","nonmatch","1.0345","M","1"
"2027","20","male","R","Tra","C","S","P","N","M","1","2","20","other","immoral","nonmatch","0.7688","M","1"
"2027","20","male","R","Tra","C","S","P","N","M","1","2","21","self","immoral","match","0.5590","N","1"
"2027","20","male","R","Tra","C","S","P","N","M","1","2","22","other","moral","match","0.5651","M","0"
"2027","20","male","R","Tra","C","S","P","N","M","1","2","23","self","immoral","nonmatch","0.6914","M","1"
"2027","20","male","R","Tra","C","S","P","N","M","1","2","24","self","moral","nonmatch","0.8655","M","1"
"2027","20","male","R","Tra","C","S","P","N","M","1","3","1","other","immoral","nonmatch","1.0440",NA,"-1"
"2027","20","male","R","Tra","C","S","P","N","M","1","3","2","self","moral","match","0.8779","N","1"
"2027","20","male","R","Tra","C","S","P","N","M","1","3","3","self","moral","match","0.6121","N","1"
"2027","20","male","R","Tra","C","S","P","N","M","1","3","4","self","immoral","match","0.4743","N","1"
"2027","20","male","R","Tra","C","S","P","N","M","1","3","5","other","immoral","nonmatch","0.5204","M","1"
"2027","20","male","R","Tra","C","S","P","N","M","1","3","6","self","immoral","nonmatch","0.7586","N","0"
"2027","20","male","R","Tra","C","S","P","N","M","1","3","7","self","moral","nonmatch","0.7888","M","1"
"2027","20","male","R","Tra","C","S","P","N","M","1","3","8","other","moral","nonmatch","0.8830","M","1"
"2027","20","male","R","Tra","C","S","P","N","M","1","3","9","self","immoral","match","0.6413","N","1"
"2027","20","male","R","Tra","C","S","P","N","M","1","3","10","other","moral","nonmatch","0.6794","M","1"
"2027","20","male","R","Tra","C","S","P","N","M","1","3","11","other","immoral","match","0.6296","N","1"
"2027","20","male","R","Tra","C","S","P","N","M","1","3","12","other","moral","nonmatch","0.7797","M","1"
"2027","20","male","R","Tra","C","S","P","N","M","1","3","13","other","immoral","nonmatch","1.0179","M","1"
"2027","20","male","R","Tra","C","S","P","N","M","1","3","14","other","moral","match","0.8161","M","0"
"2027","20","male","R","Tra","C","S","P","N","M","1","3","15","self","moral","match","0.8703","N","1"
"2027","20","male","R","Tra","C","S","P","N","M","1","3","16","self","immoral","match","0.9645","M","0"
"2027","20","male","R","Tra","C","S","P","N","M","1","3","17","self","immoral","nonmatch","0.6666","M","1"
"2027","20","male","R","Tra","C","S","P","N","M","1","3","18","other","immoral","match","1.0408","N","1"
"2027","20","male","R","Tra","C","S","P","N","M","1","3","19","self","moral","nonmatch","0.7751","M","1"
"2027","20","male","R","Tra","C","S","P","N","M","1","3","20","other","immoral","match","0.8773","M","0"
"2027","20","male","R","Tra","C","S","P","N","M","1","3","21","self","moral","nonmatch","0.7234","M","1"
"2027","20","male","R","Tra","C","S","P","N","M","1","3","22","other","moral","match","0.9216","N","1"
"2027","20","male","R","Tra","C","S","P","N","M","1","3","23","other","moral","match","0.5998","N","1"
"2027","20","male","R","Tra","C","S","P","N","M","1","3","24","self","immoral","nonmatch","0.6699","M","1"
"2027","20","male","R","Tra","C","S","P","N","M","1","4","1","self","moral","nonmatch","0.7231","N","0"
"2027","20","male","R","Tra","C","S","P","N","M","1","4","2","other","immoral","match","0.7212","M","0"
"2027","20","male","R","Tra","C","S","P","N","M","1","4","3","self","immoral","match","0.6395","M","0"
"2027","20","male","R","Tra","C","S","P","N","M","1","4","4","other","moral","match","0.9496","N","1"
"2027","20","male","R","Tra","C","S","P","N","M","1","4","5","other","moral","match","0.8277","N","1"
"2027","20","male","R","Tra","C","S","P","N","M","1","4","6","other","immoral","nonmatch","0.8739","M","1"
"2027","20","male","R","Tra","C","S","P","N","M","1","4","7","self","immoral","nonmatch","0.9521","M","1"
"2027","20","male","R","Tra","C","S","P","N","M","1","4","8","other","immoral","match","0.8543","N","1"
"2027","20","male","R","Tra","C","S","P","N","M","1","4","9","other","immoral","match","0.6285","N","1"
"2027","20","male","R","Tra","C","S","P","N","M","1","4","10","self","immoral","nonmatch","0.7465","M","1"
"2027","20","male","R","Tra","C","S","P","N","M","1","4","11","self","moral","match","0.6728","N","1"
"2027","20","male","R","Tra","C","S","P","N","M","1","4","12","other","moral","match","0.7270","M","0"
"2027","20","male","R","Tra","C","S","P","N","M","1","4","13","self","immoral","nonmatch","0.7492","M","1"
"2027","20","male","R","Tra","C","S","P","N","M","1","4","14","self","moral","match","0.6035","N","1"
"2027","20","male","R","Tra","C","S","P","N","M","1","4","15","other","immoral","nonmatch","0.8736","M","1"
"2027","20","male","R","Tra","C","S","P","N","M","1","4","16","other","moral","nonmatch","0.9998","M","1"
"2027","20","male","R","Tra","C","S","P","N","M","1","4","17","other","moral","nonmatch","0.8619","M","1"
"2027","20","male","R","Tra","C","S","P","N","M","1","4","18","self","moral","match","0.7162","N","1"
"2027","20","male","R","Tra","C","S","P","N","M","1","4","19","other","moral","nonmatch","0.7144","M","1"
"2027","20","male","R","Tra","C","S","P","N","M","1","4","20","self","moral","nonmatch","1.0440",NA,"-1"
"2027","20","male","R","Tra","C","S","P","N","M","1","4","21","self","moral","nonmatch","0.8227","N","0"
"2027","20","male","R","Tra","C","S","P","N","M","1","4","22","other","immoral","nonmatch","0.7169","M","1"
"2027","20","male","R","Tra","C","S","P","N","M","1","4","23","self","immoral","match","0.6591","N","1"
"2027","20","male","R","Tra","C","S","P","N","M","1","4","24","self","immoral","match","0.6093","N","1"
"2027","20","male","R","Tra","C","S","P","N","M","1","5","1","other","moral","nonmatch","0.6714","M","1"
"2027","20","male","R","Tra","C","S","P","N","M","1","5","2","other","immoral","match","0.7576","N","1"
"2027","20","male","R","Tra","C","S","P","N","M","1","5","3","self","immoral","match","1.0440",NA,"-1"
"2027","20","male","R","Tra","C","S","P","N","M","1","5","4","other","immoral","match","0.7140","M","0"
"2027","20","male","R","Tra","C","S","P","N","M","1","5","5","self","moral","nonmatch","1.0440",NA,"-1"
"2027","20","male","R","Tra","C","S","P","N","M","1","5","6","self","moral","match","0.6543","N","1"
"2027","20","male","R","Tra","C","S","P","N","M","1","5","7","self","moral","match","0.5565","N","1"
"2027","20","male","R","Tra","C","S","P","N","M","1","5","8","other","immoral","nonmatch","0.7147","M","1"
"2027","20","male","R","Tra","C","S","P","N","M","1","5","9","other","immoral","match","1.0440",NA,"-1"
"2027","20","male","R","Tra","C","S","P","N","M","1","5","10","other","moral","match","0.6951","N","1"
"2027","20","male","R","Tra","C","S","P","N","M","1","5","11","self","moral","nonmatch","0.4932","N","0"
"2027","20","male","R","Tra","C","S","P","N","M","1","5","12","self","moral","nonmatch","0.8274","M","1"
"2027","20","male","R","Tra","C","S","P","N","M","1","5","13","other","moral","nonmatch","0.8737","M","1"
"2027","20","male","R","Tra","C","S","P","N","M","1","5","14","self","moral","match","0.6638","M","0"
"2027","20","male","R","Tra","C","S","P","N","M","1","5","15","other","moral","match","0.7099","M","0"
"2027","20","male","R","Tra","C","S","P","N","M","1","5","16","other","moral","match","0.7642","N","1"
"2027","20","male","R","Tra","C","S","P","N","M","1","5","17","self","immoral","match","0.6504","N","1"
"2027","20","male","R","Tra","C","S","P","N","M","1","5","18","self","immoral","match","0.6086","N","1"
"2027","20","male","R","Tra","C","S","P","N","M","1","5","19","self","immoral","nonmatch","0.4148","N","0"
"2027","20","male","R","Tra","C","S","P","N","M","1","5","20","other","moral","nonmatch","0.7969","M","1"
"2027","20","male","R","Tra","C","S","P","N","M","1","5","21","self","immoral","nonmatch","0.9072","M","1"
"2027","20","male","R","Tra","C","S","P","N","M","1","5","22","self","immoral","nonmatch","0.8572","M","1"
"2027","20","male","R","Tra","C","S","P","N","M","1","5","23","other","immoral","nonmatch","1.0440",NA,"-1"
"2027","20","male","R","Tra","C","S","P","N","M","1","5","24","other","immoral","nonmatch","0.8777","M","1"
"2027","20","male","R","Tra","C","S","P","N","M","2","1","1","other","moral","nonmatch","1.0440",NA,"-1"
"2027","20","male","R","Tra","C","S","P","N","M","2","1","2","self","moral","match","0.7084","N","1"
"2027","20","male","R","Tra","C","S","P","N","M","2","1","3","other","immoral","nonmatch","0.6904","M","1"
"2027","20","male","R","Tra","C","S","P","N","M","2","1","4","self","immoral","match","0.6565","N","1"
"2027","20","male","R","Tra","C","S","P","N","M","2","1","5","self","immoral","nonmatch","0.5828","M","1"
"2027","20","male","R","Tra","C","S","P","N","M","2","1","6","other","moral","match","0.5009","N","1"
"2027","20","male","R","Tra","C","S","P","N","M","2","1","7","self","immoral","nonmatch","0.7313","M","1"
"2027","20","male","R","Tra","C","S","P","N","M","2","1","8","self","moral","match","0.6573","N","1"
"2027","20","male","R","Tra","C","S","P","N","M","2","1","9","other","moral","match","0.5675","N","1"
"2027","20","male","R","Tra","C","S","P","N","M","2","1","10","other","moral","nonmatch","0.8056","M","1"
"2027","20","male","R","Tra","C","S","P","N","M","2","1","11","other","immoral","match","0.7079","N","1"
"2027","20","male","R","Tra","C","S","P","N","M","2","1","12","self","moral","nonmatch","0.7701","N","0"
"2027","20","male","R","Tra","C","S","P","N","M","2","1","13","self","immoral","nonmatch","0.7923","M","1"
"2027","20","male","R","Tra","C","S","P","N","M","2","1","14","other","immoral","match","0.6305","M","0"
"2027","20","male","R","Tra","C","S","P","N","M","2","1","15","other","moral","match","0.6927","M","0"
"2027","20","male","R","Tra","C","S","P","N","M","2","1","16","self","moral","match","0.6429","N","1"
"2027","20","male","R","Tra","C","S","P","N","M","2","1","17","self","immoral","match","0.5769","N","1"
"2027","20","male","R","Tra","C","S","P","N","M","2","1","18","other","immoral","nonmatch","1.0440",NA,"-1"
"2027","20","male","R","Tra","C","S","P","N","M","2","1","19","other","immoral","nonmatch","0.7813","M","1"
"2027","20","male","R","Tra","C","S","P","N","M","2","1","20","other","moral","nonmatch","0.8356","M","1"
"2027","20","male","R","Tra","C","S","P","N","M","2","1","21","self","immoral","match","0.4978","N","1"
"2027","20","male","R","Tra","C","S","P","N","M","2","1","22","self","moral","nonmatch","0.7919","M","1"
"2027","20","male","R","Tra","C","S","P","N","M","2","1","23","self","moral","nonmatch","0.7341","M","1"
"2027","20","male","R","Tra","C","S","P","N","M","2","1","24","other","immoral","match","0.8283","N","1"
"2027","20","male","R","Tra","C","S","P","N","M","2","2","1","other","immoral","nonmatch","0.7945","M","1"
"2027","20","male","R","Tra","C","S","P","N","M","2","2","2","self","moral","match","0.8567","N","1"
"2027","20","male","R","Tra","C","S","P","N","M","2","2","3","self","immoral","match","0.7668","N","1"
"2027","20","male","R","Tra","C","S","P","N","M","2","2","4","other","immoral","nonmatch","0.8290","N","0"
"2027","20","male","R","Tra","C","S","P","N","M","2","2","5","other","moral","nonmatch","0.8113","M","1"
"2027","20","male","R","Tra","C","S","P","N","M","2","2","6","self","moral","nonmatch","0.8575","M","1"
"2027","20","male","R","Tra","C","S","P","N","M","2","2","7","self","immoral","nonmatch","0.6076","N","0"
"2027","20","male","R","Tra","C","S","P","N","M","2","2","8","other","immoral","nonmatch","0.7819","M","1"
"2027","20","male","R","Tra","C","S","P","N","M","2","2","9","self","immoral","match","0.6361","N","1"
"2027","20","male","R","Tra","C","S","P","N","M","2","2","10","self","immoral","nonmatch","0.8901","M","1"
"2027","20","male","R","Tra","C","S","P","N","M","2","2","11","other","moral","match","0.7843","N","1"
"2027","20","male","R","Tra","C","S","P","N","M","2","2","12","self","moral","nonmatch","1.0440",NA,"-1"
"2027","20","male","R","Tra","C","S","P","N","M","2","2","13","self","immoral","nonmatch","1.0047","M","1"
"2027","20","male","R","Tra","C","S","P","N","M","2","2","14","other","moral","nonmatch","0.8669","M","1"
"2027","20","male","R","Tra","C","S","P","N","M","2","2","15","other","moral","match","0.5771","N","1"
"2027","20","male","R","Tra","C","S","P","N","M","2","2","16","self","moral","match","0.7672","M","0"
"2027","20","male","R","Tra","C","S","P","N","M","2","2","17","other","immoral","match","0.7415","N","1"
"2027","20","male","R","Tra","C","S","P","N","M","2","2","18","self","immoral","match","0.8916","N","1"
"2027","20","male","R","Tra","C","S","P","N","M","2","2","19","other","immoral","match","0.8338","N","1"
"2027","20","male","R","Tra","C","S","P","N","M","2","2","20","other","immoral","match","0.6080","M","0"
"2027","20","male","R","Tra","C","S","P","N","M","2","2","21","self","moral","nonmatch","0.7342","N","0"
"2027","20","male","R","Tra","C","S","P","N","M","2","2","22","other","moral","nonmatch","0.8764","M","1"
"2027","20","male","R","Tra","C","S","P","N","M","2","2","23","other","moral","match","0.7626","N","1"
"2027","20","male","R","Tra","C","S","P","N","M","2","2","24","self","moral","match","0.8167","N","1"
"2027","20","male","R","Tra","C","S","P","N","M","2","3","1","other","immoral","match","0.9909","N","1"
"2027","20","male","R","Tra","C","S","P","N","M","2","3","2","self","immoral","nonmatch","1.0440",NA,"-1"
"2027","20","male","R","Tra","C","S","P","N","M","2","3","3","self","immoral","match","0.5873","N","1"
"2027","20","male","R","Tra","C","S","P","N","M","2","3","4","other","immoral","match","0.7055","N","1"
"2027","20","male","R","Tra","C","S","P","N","M","2","3","5","other","moral","nonmatch","0.5836","N","0"
"2027","20","male","R","Tra","C","S","P","N","M","2","3","6","other","moral","match","0.6378","N","1"
"2027","20","male","R","Tra","C","S","P","N","M","2","3","7","self","moral","match","0.7960","N","1"
"2027","20","male","R","Tra","C","S","P","N","M","2","3","8","other","moral","nonmatch","0.7942","M","1"
"2027","20","male","R","Tra","C","S","P","N","M","2","3","9","self","moral","nonmatch","0.9123","N","0"
"2027","20","male","R","Tra","C","S","P","N","M","2","3","10","other","moral","match","0.6706","N","1"
"2027","20","male","R","Tra","C","S","P","N","M","2","3","11","other","moral","nonmatch","0.9328","M","1"
"2027","20","male","R","Tra","C","S","P","N","M","2","3","12","other","immoral","match","0.8590","N","1"
"2027","20","male","R","Tra","C","S","P","N","M","2","3","13","self","immoral","nonmatch","0.9691","M","1"
"2027","20","male","R","Tra","C","S","P","N","M","2","3","14","other","immoral","nonmatch","0.9193","N","0"
"2027","20","male","R","Tra","C","S","P","N","M","2","3","15","self","immoral","match","0.6375","N","1"
"2027","20","male","R","Tra","C","S","P","N","M","2","3","16","self","moral","match","0.7157","N","1"
"2027","20","male","R","Tra","C","S","P","N","M","2","3","17","other","moral","match","0.7138","N","1"
"2027","20","male","R","Tra","C","S","P","N","M","2","3","18","other","immoral","nonmatch","0.8560","M","1"
"2027","20","male","R","Tra","C","S","P","N","M","2","3","19","self","immoral","nonmatch","0.6622","N","0"
"2027","20","male","R","Tra","C","S","P","N","M","2","3","20","self","moral","nonmatch","0.9323","N","0"
"2027","20","male","R","Tra","C","S","P","N","M","2","3","21","self","moral","nonmatch","0.7627","M","1"
"2027","20","male","R","Tra","C","S","P","N","M","2","3","22","self","moral","match","0.9447","N","1"
"2027","20","male","R","Tra","C","S","P","N","M","2","3","23","other","immoral","nonmatch","0.7830","M","1"
"2027","20","male","R","Tra","C","S","P","N","M","2","3","24","self","immoral","match","0.7491","N","1"
"2027","20","male","R","Tra","C","S","P","N","M","2","4","1","other","moral","nonmatch","1.0440",NA,"-1"
"2027","20","male","R","Tra","C","S","P","N","M","2","4","2","self","immoral","nonmatch","0.8855","M","1"
"2027","20","male","R","Tra","C","S","P","N","M","2","4","3","self","immoral","match","0.8197","N","1"
"2027","20","male","R","Tra","C","S","P","N","M","2","4","4","other","immoral","match","1.0440",NA,"-1"
"2027","20","male","R","Tra","C","S","P","N","M","2","4","5","other","moral","match","0.6240","N","1"
"2027","20","male","R","Tra","C","S","P","N","M","2","4","6","self","moral","nonmatch","0.7902","M","1"
"2027","20","male","R","Tra","C","S","P","N","M","2","4","7","self","moral","match","0.6125","N","1"
"2027","20","male","R","Tra","C","S","P","N","M","2","4","8","other","immoral","match","0.8266","N","1"
"2027","20","male","R","Tra","C","S","P","N","M","2","4","9","other","immoral","nonmatch","0.7527","M","1"
"2027","20","male","R","Tra","C","S","P","N","M","2","4","10","other","moral","nonmatch","0.9350","M","1"
"2027","20","male","R","Tra","C","S","P","N","M","2","4","11","self","immoral","nonmatch","0.6771","M","1"
"2027","20","male","R","Tra","C","S","P","N","M","2","4","12","other","immoral","nonmatch","0.9553","M","1"
"2027","20","male","R","Tra","C","S","P","N","M","2","4","13","self","immoral","match","0.7136","N","1"
"2027","20","male","R","Tra","C","S","P","N","M","2","4","14","self","immoral","match","0.7437","M","0"
"2027","20","male","R","Tra","C","S","P","N","M","2","4","15","other","moral","nonmatch","0.7099","M","1"
"2027","20","male","R","Tra","C","S","P","N","M","2","4","16","self","immoral","nonmatch","1.0440",NA,"-1"
"2027","20","male","R","Tra","C","S","P","N","M","2","4","17","other","moral","match","0.6423","N","1"
"2027","20","male","R","Tra","C","S","P","N","M","2","4","18","self","moral","match","0.8643","N","1"
"2027","20","male","R","Tra","C","S","P","N","M","2","4","19","self","moral","nonmatch","0.6304","M","1"
"2027","20","male","R","Tra","C","S","P","N","M","2","4","20","self","moral","match","0.6449","N","1"
"2027","20","male","R","Tra","C","S","P","N","M","2","4","21","other","immoral","nonmatch","0.8190","M","1"
"2027","20","male","R","Tra","C","S","P","N","M","2","4","22","other","immoral","match","0.7452","N","1"
"2027","20","male","R","Tra","C","S","P","N","M","2","4","23","self","moral","nonmatch","0.7593","M","1"
"2027","20","male","R","Tra","C","S","P","N","M","2","4","24","other","moral","match","0.6695","N","1"
"2027","20","male","R","Tra","C","S","P","N","M","2","5","1","self","immoral","match","0.7158","N","1"
"2027","20","male","R","Tra","C","S","P","N","M","2","5","2","other","moral","match","0.7299","N","1"
"2027","20","male","R","Tra","C","S","P","N","M","2","5","3","other","immoral","match","0.6561","N","1"
"2027","20","male","R","Tra","C","S","P","N","M","2","5","4","self","immoral","nonmatch","0.7262","M","1"
"2027","20","male","R","Tra","C","S","P","N","M","2","5","5","other","moral","match","0.6924","N","1"
"2027","20","male","R","Tra","C","S","P","N","M","2","5","6","other","moral","nonmatch","0.6426","M","1"
"2027","20","male","R","Tra","C","S","P","N","M","2","5","7","other","immoral","match","0.7128","N","1"
"2027","20","male","R","Tra","C","S","P","N","M","2","5","8","self","immoral","match","0.6550","N","1"
"2027","20","male","R","Tra","C","S","P","N","M","2","5","9","other","immoral","nonmatch","0.7891","M","1"
"2027","20","male","R","Tra","C","S","P","N","M","2","5","10","self","moral","match","0.5954","N","1"
"2027","20","male","R","Tra","C","S","P","N","M","2","5","11","self","immoral","nonmatch","0.9695","N","0"
"2027","20","male","R","Tra","C","S","P","N","M","2","5","12","other","moral","nonmatch","0.6556","M","1"
"2027","20","male","R","Tra","C","S","P","N","M","2","5","13","self","moral","nonmatch","0.6940","M","1"
"2027","20","male","R","Tra","C","S","P","N","M","2","5","14","self","moral","match","0.6441","N","1"
"2027","20","male","R","Tra","C","S","P","N","M","2","5","15","self","immoral","nonmatch","0.8343","M","1"
"2027","20","male","R","Tra","C","S","P","N","M","2","5","16","self","moral","nonmatch","0.6405","M","1"
"2027","20","male","R","Tra","C","S","P","N","M","2","5","17","other","immoral","nonmatch","1.0440",NA,"-1"
"2027","20","male","R","Tra","C","S","P","N","M","2","5","18","self","immoral","match","0.6369","N","1"
"2027","20","male","R","Tra","C","S","P","N","M","2","5","19","other","moral","match","0.7310","N","1"
"2027","20","male","R","Tra","C","S","P","N","M","2","5","20","other","immoral","nonmatch","1.0440",NA,"-1"
"2027","20","male","R","Tra","C","S","P","N","M","2","5","21","other","immoral","match","0.8713","N","1"
"2027","20","male","R","Tra","C","S","P","N","M","2","5","22","self","moral","match","0.6536","N","1"
"2027","20","male","R","Tra","C","S","P","N","M","2","5","23","other","moral","nonmatch","0.8038","M","1"
"2027","20","male","R","Tra","C","S","P","N","M","2","5","24","self","moral","nonmatch","0.7540","M","1"
"2027","20","male","R","Tra","C","S","P","N","M","1","1","1","self","immoral","match","0.3915","N","1"
"2027","20","male","R","Tra","C","S","P","N","M","1","1","2","self","immoral","match","0.5537","N","1"
"2027","20","male","R","Tra","C","S","P","N","M","1","1","3","self","immoral","nonmatch","0.5056","M","1"
"2027","20","male","R","Tra","C","S","P","N","M","1","1","4","other","moral","match","0.5041","N","1"
"2027","20","male","R","Tra","C","S","P","N","M","1","1","5","self","moral","match","0.4320","N","1"
"2027","20","male","R","Tra","C","S","P","N","M","1","1","6","self","immoral","match","0.8224","N","1"
"2027","20","male","R","Tra","C","S","P","N","M","1","1","7","other","immoral","nonmatch","0.7022","M","1"
"2027","20","male","R","Tra","C","S","P","N","M","1","1","8","other","immoral","match","0.9808","N","1"
"2027","20","male","R","Tra","C","S","P","N","M","1","1","9","other","moral","match","0.8846","N","1"
"2027","20","male","R","Tra","C","S","P","N","M","1","1","10","other","immoral","match","0.6591","N","1"
"2027","20","male","R","Tra","C","S","P","N","M","1","1","11","self","moral","nonmatch","0.8271","M","1"
"2027","20","male","R","Tra","C","S","P","N","M","1","1","12","self","moral","nonmatch","0.8015","M","1"
"2027","20","male","R","Tra","C","S","P","N","M","1","1","13","other","immoral","nonmatch","0.7935","M","1"
"2027","20","male","R","Tra","C","S","P","N","M","1","1","14","self","immoral","nonmatch","0.6480","M","1"
"2027","20","male","R","Tra","C","S","P","N","M","1","1","15","self","moral","match","0.6237","N","1"
"2027","20","male","R","Tra","C","S","P","N","M","1","1","16","other","moral","nonmatch","0.7583","M","1"
"2027","20","male","R","Tra","C","S","P","N","M","1","1","17","self","immoral","nonmatch","0.6702","M","1"
"2027","20","male","R","Tra","C","S","P","N","M","1","1","18","self","moral","match","0.5966","N","1"
"2027","20","male","R","Tra","C","S","P","N","M","1","1","19","other","moral","match","0.6285","N","1"
"2027","20","male","R","Tra","C","S","P","N","M","1","1","20","other","moral","nonmatch","0.5711","M","1"
"2027","20","male","R","Tra","C","S","P","N","M","1","1","21","self","moral","nonmatch","0.7549","M","1"
"2027","20","male","R","Tra","C","S","P","N","M","1","1","22","other","immoral","nonmatch","0.7134","M","1"
"2027","20","male","R","Tra","C","S","P","N","M","1","1","23","other","immoral","match","0.6734","M","0"
"2027","20","male","R","Tra","C","S","P","N","M","1","1","24","other","moral","nonmatch","0.6158","M","1"
"2027","20","male","R","Tra","C","S","P","N","M","1","2","1","self","immoral","nonmatch","0.7756","M","1"
"2027","20","male","R","Tra","C","S","P","N","M","1","2","2","other","immoral","match","0.9582","N","1"
"2027","20","male","R","Tra","C","S","P","N","M","1","2","3","other","immoral","match","0.8219","N","1"
"2027","20","male","R","Tra","C","S","P","N","M","1","2","4","self","moral","match","0.7005","N","1"
"2027","20","male","R","Tra","C","S","P","N","M","1","2","5","other","immoral","nonmatch","0.6444","N","0"
"2027","20","male","R","Tra","C","S","P","N","M","1","2","6","other","moral","match","0.6027","N","1"
"2027","20","male","R","Tra","C","S","P","N","M","1","2","7","other","immoral","nonmatch","0.9307","M","1"
"2027","20","male","R","Tra","C","S","P","N","M","1","2","8","other","moral","match","0.7053","N","1"
"2027","20","male","R","Tra","C","S","P","N","M","1","2","9","other","moral","nonmatch","0.8011","M","1"
"2027","20","male","R","Tra","C","S","P","N","M","1","2","10","other","immoral","nonmatch","0.7872","M","1"
"2027","20","male","R","Tra","C","S","P","N","M","1","2","11","self","moral","nonmatch","0.7298","M","1"
"2027","20","male","R","Tra","C","S","P","N","M","1","2","12","other","moral","match","0.6496","N","1"
"2027","20","male","R","Tra","C","S","P","N","M","1","2","13","self","moral","nonmatch","0.7281","M","1"
"2027","20","male","R","Tra","C","S","P","N","M","1","2","14","self","moral","nonmatch","0.8001","M","1"
"2027","20","male","R","Tra","C","S","P","N","M","1","2","15","self","moral","match","0.8385","N","1"
"2027","20","male","R","Tra","C","S","P","N","M","1","2","16","self","immoral","nonmatch","0.9663","M","1"
"2027","20","male","R","Tra","C","S","P","N","M","1","2","17","self","moral","match","0.7889","N","1"
"2027","20","male","R","Tra","C","S","P","N","M","1","2","18","other","moral","nonmatch","0.8847","M","1"
"2027","20","male","R","Tra","C","S","P","N","M","1","2","19","self","immoral","match","0.7873","N","1"
"2027","20","male","R","Tra","C","S","P","N","M","1","2","20","self","immoral","match","0.7152","N","1"
"2027","20","male","R","Tra","C","S","P","N","M","1","2","21","self","immoral","nonmatch","0.7857","M","1"
"2027","20","male","R","Tra","C","S","P","N","M","1","2","22","self","immoral","match","0.6656","N","1"
"2027","20","male","R","Tra","C","S","P","N","M","1","2","23","other","moral","nonmatch","0.9200","M","1"
"2027","20","male","R","Tra","C","S","P","N","M","1","2","24","other","immoral","match","0.7359","N","1"
"2027","20","male","R","Tra","C","S","P","N","M","1","1","1","other","moral","nonmatch","0.6764","M","1"
"2027","20","male","R","Tra","C","S","P","N","M","1","1","2","other","immoral","nonmatch","0.4909","M","1"
"2027","20","male","R","Tra","C","S","P","N","M","1","1","3","self","immoral","nonmatch","0.6507","M","1"
"2027","20","male","R","Tra","C","S","P","N","M","1","1","4","self","immoral","nonmatch","0.6173","M","1"
"2027","20","male","R","Tra","C","S","P","N","M","1","1","5","other","immoral","match","0.9611","N","1"
"2027","20","male","R","Tra","C","S","P","N","M","1","1","6","other","moral","nonmatch","0.8077","M","1"
"2027","20","male","R","Tra","C","S","P","N","M","1","1","7","other","immoral","match","0.6796","N","1"
"2027","20","male","R","Tra","C","S","P","N","M","1","1","8","self","moral","nonmatch","0.7901","N","0"
"2027","20","male","R","Tra","C","S","P","N","M","1","1","9","other","immoral","nonmatch","0.9899","M","1"
"2027","20","male","R","Tra","C","S","P","N","M","1","1","10","self","immoral","nonmatch","0.6684","M","1"
"2027","20","male","R","Tra","C","S","P","N","M","1","1","11","self","moral","nonmatch","0.6842","M","1"
"2027","20","male","R","Tra","C","S","P","N","M","1","1","12","self","moral","match","0.5707","N","1"
"2027","20","male","R","Tra","C","S","P","N","M","1","1","13","self","moral","match","0.5628","N","1"
"2027","20","male","R","Tra","C","S","P","N","M","1","1","14","self","moral","nonmatch","0.5211","M","1"
"2027","20","male","R","Tra","C","S","P","N","M","1","1","15","other","moral","nonmatch","0.9850","M","1"
"2027","20","male","R","Tra","C","S","P","N","M","1","1","16","other","moral","match","0.7436","N","1"
"2027","20","male","R","Tra","C","S","P","N","M","1","1","17","other","moral","match","0.5754","N","1"
"2027","20","male","R","Tra","C","S","P","N","M","1","1","18","self","moral","match","0.7178","N","1"
"2027","20","male","R","Tra","C","S","P","N","M","1","1","19","other","moral","match","0.6217","N","1"
"2027","20","male","R","Tra","C","S","P","N","M","1","1","20","other","immoral","match","0.6923","N","1"
"2027","20","male","R","Tra","C","S","P","N","M","1","1","21","self","immoral","match","0.6041","N","1"
"2027","20","male","R","Tra","C","S","P","N","M","1","1","22","self","immoral","match","0.5307","N","1"
"2027","20","male","R","Tra","C","S","P","N","M","1","1","23","other","immoral","nonmatch","1.0265","M","1"
"2027","20","male","R","Tra","C","S","P","N","M","1","1","24","self","immoral","match","0.6090","N","1"
"2027","20","male","R","Tra","C","S","P","N","M","1","2","1","self","immoral","match","0.6409","N","1"
"2027","20","male","R","Tra","C","S","P","N","M","1","2","2","other","immoral","nonmatch","0.7518","M","1"
"2027","20","male","R","Tra","C","S","P","N","M","1","2","3","self","moral","nonmatch","0.6392","M","1"
"2027","20","male","R","Tra","C","S","P","N","M","1","2","4","other","moral","nonmatch","0.8299","M","1"
"2027","20","male","R","Tra","C","S","P","N","M","1","2","5","self","moral","nonmatch","0.6296","M","1"
"2027","20","male","R","Tra","C","S","P","N","M","1","2","6","other","immoral","nonmatch","0.5882","M","1"
"2027","20","male","R","Tra","C","S","P","N","M","1","2","7","self","moral","match","0.5800","N","1"
"2027","20","male","R","Tra","C","S","P","N","M","1","2","8","other","immoral","match","0.5226","M","0"
"2027","20","male","R","Tra","C","S","P","N","M","1","2","9","other","moral","match","0.7384","N","1"
"2027","20","male","R","Tra","C","S","P","N","M","1","2","10","other","immoral","match","0.8409","N","1"
"2027","20","male","R","Tra","C","S","P","N","M","1","2","11","other","moral","match","0.5527","N","1"
"2027","20","male","R","Tra","C","S","P","N","M","1","2","12","self","immoral","match","0.6073","N","1"
"2027","20","male","R","Tra","C","S","P","N","M","1","2","13","self","immoral","nonmatch","0.6951","M","1"
"2027","20","male","R","Tra","C","S","P","N","M","1","2","14","self","immoral","nonmatch","0.7016","M","1"
"2027","20","male","R","Tra","C","S","P","N","M","1","2","15","self","moral","match","0.6614","N","1"
"2027","20","male","R","Tra","C","S","P","N","M","1","2","16","other","immoral","nonmatch","0.7721","M","1"
"2027","20","male","R","Tra","C","S","P","N","M","1","2","17","other","moral","match","0.6279","N","1"
"2027","20","male","R","Tra","C","S","P","N","M","1","2","18","other","moral","nonmatch","0.7623","M","1"
"2027","20","male","R","Tra","C","S","P","N","M","1","2","19","self","moral","match","0.6342","N","1"
"2027","20","male","R","Tra","C","S","P","N","M","1","2","20","self","moral","nonmatch","0.7127","M","1"
"2027","20","male","R","Tra","C","S","P","N","M","1","2","21","self","immoral","match","0.7285","N","1"
"2027","20","male","R","Tra","C","S","P","N","M","1","2","22","self","immoral","nonmatch","0.6631","M","1"
"2027","20","male","R","Tra","C","S","P","N","M","1","2","23","other","moral","nonmatch","0.8949","M","1"
"2027","20","male","R","Tra","C","S","P","N","M","1","2","24","other","immoral","match","0.7734","N","1"
"2027","20","male","R","Tra","C","S","P","N","M","1","1","1","self","immoral","nonmatch","0.6417","M","1"
"2027","20","male","R","Tra","C","S","P","N","M","1","1","2","self","moral","match","0.6015","N","1"
"2027","20","male","R","Tra","C","S","P","N","M","1","1","3","self","moral","nonmatch","0.5682","M","1"
"2027","20","male","R","Tra","C","S","P","N","M","1","1","4","other","moral","nonmatch","0.6720","M","1"
"2027","20","male","R","Tra","C","S","P","N","M","1","1","5","self","moral","match","0.7104","N","1"
"2027","20","male","R","Tra","C","S","P","N","M","1","1","6","self","immoral","nonmatch","0.5901","M","1"
"2027","20","male","R","Tra","C","S","P","N","M","1","1","7","self","moral","nonmatch","0.5970","M","1"
"2027","20","male","R","Tra","C","S","P","N","M","1","1","8","other","moral","nonmatch","0.7247","M","1"
"2027","20","male","R","Tra","C","S","P","N","M","1","1","9","self","moral","match","0.7232","N","1"
"2027","20","male","R","Tra","C","S","P","N","M","1","1","10","other","immoral","nonmatch","0.8990","M","1"
"2027","20","male","R","Tra","C","S","P","N","M","1","1","11","other","moral","match","0.6976","N","1"
"2027","20","male","R","Tra","C","S","P","N","M","1","1","12","other","immoral","match","0.6015","N","1"
"2027","20","male","R","Tra","C","S","P","N","M","1","1","13","other","immoral","nonmatch","0.6719","M","1"
"2027","20","male","R","Tra","C","S","P","N","M","1","1","14","self","immoral","match","0.6798","N","1"
"2027","20","male","R","Tra","C","S","P","N","M","1","1","15","self","immoral","nonmatch","0.7024","M","1"
"2027","20","male","R","Tra","C","S","P","N","M","1","1","16","other","immoral","match","0.7741","N","1"
"2027","20","male","R","Tra","C","S","P","N","M","1","1","17","other","moral","match","0.5647","N","1"
"2027","20","male","R","Tra","C","S","P","N","M","1","1","18","other","moral","nonmatch","0.6605","M","1"
"2027","20","male","R","Tra","C","S","P","N","M","1","1","19","other","immoral","match","0.6191","N","1"
"2027","20","male","R","Tra","C","S","P","N","M","1","1","20","other","immoral","nonmatch","0.6749","M","1"
"2027","20","male","R","Tra","C","S","P","N","M","1","1","21","self","immoral","match","0.6254","N","1"
"2027","20","male","R","Tra","C","S","P","N","M","1","1","22","other","moral","match","0.7532","N","1"
"2027","20","male","R","Tra","C","S","P","N","M","1","1","23","self","immoral","match","0.7198","M","0"
"2027","20","male","R","Tra","C","S","P","N","M","1","1","24","self","moral","nonmatch","0.7916","M","1"
"2027","20","male","R","Tra","C","S","P","N","M","1","2","1","other","moral","match","0.7262","N","1"
"2027","20","male","R","Tra","C","S","P","N","M","1","2","2","self","moral","nonmatch","1.0440",NA,"-1"
"2027","20","male","R","Tra","C","S","P","N","M","1","2","3","self","immoral","match","0.5886","N","1"
"2027","20","male","R","Tra","C","S","P","N","M","1","2","4","self","immoral","nonmatch","0.6844","M","1"
"2027","20","male","R","Tra","C","S","P","N","M","1","2","5","other","immoral","match","0.7230","N","1"
"2027","20","male","R","Tra","C","S","P","N","M","1","2","6","other","immoral","nonmatch","0.6828","M","1"
"2027","20","male","R","Tra","C","S","P","N","M","1","2","7","other","moral","match","0.6574","N","1"
"2027","20","male","R","Tra","C","S","P","N","M","1","2","8","other","immoral","nonmatch","0.5931","M","1"
"2027","20","male","R","Tra","C","S","P","N","M","1","2","9","self","immoral","nonmatch","0.6797","M","1"
"2027","20","male","R","Tra","C","S","P","N","M","1","2","10","other","moral","nonmatch","0.7435","M","1"
"2027","20","male","R","Tra","C","S","P","N","M","1","2","11","self","moral","match","0.6860","N","1"
"2027","20","male","R","Tra","C","S","P","N","M","1","2","12","self","moral","match","0.6139","M","0"
"2027","20","male","R","Tra","C","S","P","N","M","1","2","13","other","immoral","nonmatch","0.9403","M","1"
"2027","20","male","R","Tra","C","S","P","N","M","1","2","14","self","immoral","match","0.6202","N","1"
"2027","20","male","R","Tra","C","S","P","N","M","1","2","15","other","moral","nonmatch","0.8748","M","1"
"2027","20","male","R","Tra","C","S","P","N","M","1","2","16","self","moral","nonmatch","0.7626","M","1"
"2027","20","male","R","Tra","C","S","P","N","M","1","2","17","self","immoral","nonmatch","0.6891","M","1"
"2027","20","male","R","Tra","C","S","P","N","M","1","2","18","other","immoral","match","0.8170","N","1"
"2027","20","male","R","Tra","C","S","P","N","M","1","2","19","self","immoral","match","0.9835","N","1"
"2027","20","male","R","Tra","C","S","P","N","M","1","2","20","other","moral","nonmatch","0.7354","M","1"
"2027","20","male","R","Tra","C","S","P","N","M","1","2","21","self","moral","nonmatch","0.6219","N","0"
"2027","20","male","R","Tra","C","S","P","N","M","1","2","22","other","moral","match","0.6777","N","1"
"2027","20","male","R","Tra","C","S","P","N","M","1","2","23","self","moral","match","0.5963","N","1"
"2027","20","male","R","Tra","C","S","P","N","M","1","2","24","other","immoral","match","0.7481","N","1"
"2027","20","male","R","Tra","C","S","P","N","M","1","1","1","other","moral","nonmatch","0.6710","M","1"
"2027","20","male","R","Tra","C","S","P","N","M","1","1","2","other","moral","nonmatch","0.7589","M","1"
"2027","20","male","R","Tra","C","S","P","N","M","1","1","3","self","immoral","match","0.6455","N","1"
"2027","20","male","R","Tra","C","S","P","N","M","1","1","4","other","moral","match","0.6853","N","1"
"2027","20","male","R","Tra","C","S","P","N","M","1","1","5","other","immoral","nonmatch","0.5878","M","1"
"2027","20","male","R","Tra","C","S","P","N","M","1","1","6","other","moral","match","0.6197","N","1"
"2027","20","male","R","Tra","C","S","P","N","M","1","1","7","self","moral","match","0.6263","N","1"
"2027","20","male","R","Tra","C","S","P","N","M","1","1","8","other","immoral","match","0.7940","N","1"
"2027","20","male","R","Tra","C","S","P","N","M","1","1","9","self","immoral","match","0.7845","N","1"
"2027","20","male","R","Tra","C","S","P","N","M","1","1","10","other","immoral","nonmatch","0.7683","M","1"
"2027","20","male","R","Tra","C","S","P","N","M","1","1","11","other","immoral","match","0.7109","N","1"
"2027","20","male","R","Tra","C","S","P","N","M","1","1","12","self","moral","match","0.7028","N","1"
"2027","20","male","R","Tra","C","S","P","N","M","1","1","13","other","moral","match","0.8054","N","1"
"2027","20","male","R","Tra","C","S","P","N","M","1","1","14","self","moral","nonmatch","0.6851","M","1"
"2027","20","male","R","Tra","C","S","P","N","M","1","1","15","self","immoral","nonmatch","0.6597","M","1"
"2027","20","male","R","Tra","C","S","P","N","M","1","1","16","self","immoral","match","0.6676","N","1"
"2027","20","male","R","Tra","C","S","P","N","M","1","1","17","self","immoral","nonmatch","0.6660","M","1"
"2027","20","male","R","Tra","C","S","P","N","M","1","1","18","self","moral","nonmatch","0.7538","M","1"
"2027","20","male","R","Tra","C","S","P","N","M","1","1","19","other","immoral","nonmatch","0.7204","M","1"
"2027","20","male","R","Tra","C","S","P","N","M","1","1","20","self","moral","match","0.7442","N","1"
"2027","20","male","R","Tra","C","S","P","N","M","1","1","21","other","moral","nonmatch","0.7987","M","1"
"2027","20","male","R","Tra","C","S","P","N","M","1","1","22","other","immoral","match","0.7106","N","1"
"2027","20","male","R","Tra","C","S","P","N","M","1","1","23","self","immoral","nonmatch","0.7732","M","1"
"2027","20","male","R","Tra","C","S","P","N","M","1","1","24","self","moral","nonmatch","0.6850","M","1"
"2027","20","male","R","Tra","C","S","P","N","M","1","2","1","other","moral","nonmatch","0.7638","M","1"
"2027","20","male","R","Tra","C","S","P","N","M","1","2","2","other","moral","nonmatch","0.6355","M","1"
"2027","20","male","R","Tra","C","S","P","N","M","1","2","3","self","moral","match","0.6019","N","1"
"2027","20","male","R","Tra","C","S","P","N","M","1","2","4","self","moral","nonmatch","0.6976","M","1"
"2027","20","male","R","Tra","C","S","P","N","M","1","2","5","other","immoral","nonmatch","0.7283","M","1"
"2027","20","male","R","Tra","C","S","P","N","M","1","2","6","self","immoral","match","0.5682","N","1"
"2027","20","male","R","Tra","C","S","P","N","M","1","2","7","self","moral","match","0.6386","N","1"
"2027","20","male","R","Tra","C","S","P","N","M","1","2","8","other","immoral","nonmatch","0.6544","M","1"
"2027","20","male","R","Tra","C","S","P","N","M","1","2","9","other","moral","nonmatch","0.7410","M","1"
"2027","20","male","R","Tra","C","S","P","N","M","1","2","10","self","moral","nonmatch","0.8128","M","1"
"2027","20","male","R","Tra","C","S","P","N","M","1","2","11","self","moral","nonmatch","0.7233","M","1"
"2027","20","male","R","Tra","C","S","P","N","M","1","2","12","other","moral","match","0.6352","N","1"
"2027","20","male","R","Tra","C","S","P","N","M","1","2","13","self","immoral","match","0.7938","N","1"
"2027","20","male","R","Tra","C","S","P","N","M","1","2","14","self","immoral","nonmatch","0.5936","M","1"
"2027","20","male","R","Tra","C","S","P","N","M","1","2","15","other","immoral","match","0.7442","N","1"
"2027","20","male","R","Tra","C","S","P","N","M","1","2","16","self","immoral","nonmatch","0.7519","M","1"
"2027","20","male","R","Tra","C","S","P","N","M","1","2","17","self","moral","match","0.6065","N","1"
"2027","20","male","R","Tra","C","S","P","N","M","1","2","18","self","immoral","nonmatch","0.7823","M","1"
"2027","20","male","R","Tra","C","S","P","N","M","1","2","19","other","immoral","match","0.6449","N","1"
"2027","20","male","R","Tra","C","S","P","N","M","1","2","20","other","immoral","match","0.6687","N","1"
"2027","20","male","R","Tra","C","S","P","N","M","1","2","21","other","moral","match","0.6112","N","1"
"2027","20","male","R","Tra","C","S","P","N","M","1","2","22","self","immoral","match","0.6591","N","1"
"2027","20","male","R","Tra","C","S","P","N","M","1","2","23","other","moral","match","0.6337","N","1"
"2027","20","male","R","Tra","C","S","P","N","M","1","2","24","other","immoral","nonmatch","0.6815","M","1"
"2027","20","male","R","Tra","C","S","P","N","M","1","1","1","self","moral","match","0.7105","M","0"
"2027","20","male","R","Tra","C","S","P","N","M","1","1","2","self","immoral","match","0.5492","N","1"
"2027","20","male","R","Tra","C","S","P","N","M","1","1","3","self","moral","nonmatch","0.6288","M","1"
"2027","20","male","R","Tra","C","S","P","N","M","1","1","4","other","moral","match","0.6355","N","1"
"2027","20","male","R","Tra","C","S","P","N","M","1","1","5","self","immoral","nonmatch","0.6913","M","1"
"2027","20","male","R","Tra","C","S","P","N","M","1","1","6","other","moral","nonmatch","0.7778","M","1"
"2027","20","male","R","Tra","C","S","P","N","M","1","1","7","other","immoral","match","0.6096","N","1"
"2027","20","male","R","Tra","C","S","P","N","M","1","1","8","other","moral","match","0.6081","N","1"
"2027","20","male","R","Tra","C","S","P","N","M","1","1","9","self","immoral","match","0.6961","N","1"
"2027","20","male","R","Tra","C","S","P","N","M","1","1","10","other","immoral","nonmatch","0.7425","M","1"
"2027","20","male","R","Tra","C","S","P","N","M","1","1","11","other","immoral","nonmatch","0.6222","M","1"
"2027","20","male","R","Tra","C","S","P","N","M","1","1","12","self","immoral","nonmatch","0.7090","M","1"
"2027","20","male","R","Tra","C","S","P","N","M","1","1","13","self","immoral","nonmatch","0.7167","M","1"
"2027","20","male","R","Tra","C","S","P","N","M","1","1","14","other","moral","nonmatch","0.8033","M","1"
"2027","20","male","R","Tra","C","S","P","N","M","1","1","15","self","immoral","match","0.7311","N","1"
"2027","20","male","R","Tra","C","S","P","N","M","1","1","16","other","moral","nonmatch","0.9216","M","1"
"2027","20","male","R","Tra","C","S","P","N","M","1","1","17","self","moral","nonmatch","0.6655","N","0"
"2027","20","male","R","Tra","C","S","P","N","M","1","1","18","other","immoral","nonmatch","0.8241","M","1"
"2027","20","male","R","Tra","C","S","P","N","M","1","1","19","self","moral","nonmatch","0.7839","M","1"
"2027","20","male","R","Tra","C","S","P","N","M","1","1","20","other","moral","match","0.6623","N","1"
"2027","20","male","R","Tra","C","S","P","N","M","1","1","21","self","moral","match","0.6222","N","1"
"2027","20","male","R","Tra","C","S","P","N","M","1","1","22","self","moral","match","0.5647","N","1"
"2027","20","male","R","Tra","C","S","P","N","M","1","1","23","other","immoral","match","0.8285","N","1"
"2027","20","male","R","Tra","C","S","P","N","M","1","1","24","other","immoral","match","0.6590","N","1"
"2027","20","male","R","Tra","C","S","P","N","M","1","2","1","self","immoral","nonmatch","0.6190","M","1"
"2027","20","male","R","Tra","C","S","P","N","M","1","2","2","self","moral","match","0.7935","N","1"
"2027","20","male","R","Tra","C","S","P","N","M","1","2","3","other","moral","nonmatch","0.8653","M","1"
"2027","20","male","R","Tra","C","S","P","N","M","1","2","4","other","moral","match","0.6638","N","1"
"2027","20","male","R","Tra","C","S","P","N","M","1","2","5","other","immoral","match","0.7197","N","1"
"2027","20","male","R","Tra","C","S","P","N","M","1","2","6","other","moral","nonmatch","0.9342","M","1"
"2027","20","male","R","Tra","C","S","P","N","M","1","2","7","self","moral","nonmatch","0.7900","M","1"
"2027","20","male","R","Tra","C","S","P","N","M","1","2","8","self","moral","match","0.6127","N","1"
"2027","20","male","R","Tra","C","S","P","N","M","1","2","9","self","immoral","nonmatch","0.7885","M","1"
"2027","20","male","R","Tra","C","S","P","N","M","1","2","10","other","moral","match","0.5870","N","1"
"2027","20","male","R","Tra","C","S","P","N","M","1","2","11","other","immoral","match","0.7549","N","1"
"2027","20","male","R","Tra","C","S","P","N","M","1","2","12","other","immoral","nonmatch","0.6653","M","1"
"2027","20","male","R","Tra","C","S","P","N","M","1","2","13","self","moral","nonmatch","0.7211","M","1"
"2027","20","male","R","Tra","C","S","P","N","M","1","2","14","self","immoral","match","0.6877","N","1"
"2027","20","male","R","Tra","C","S","P","N","M","1","2","15","other","immoral","nonmatch","0.8075","M","1"
"2027","20","male","R","Tra","C","S","P","N","M","1","2","16","other","immoral","nonmatch","0.8540","M","1"
"2027","20","male","R","Tra","C","S","P","N","M","1","2","17","other","immoral","match","0.7499","N","1"
"2027","20","male","R","Tra","C","S","P","N","M","1","2","18","self","immoral","nonmatch","0.6924","M","1"
"2027","20","male","R","Tra","C","S","P","N","M","1","2","19","self","immoral","match","0.5804","M","0"
"2027","20","male","R","Tra","C","S","P","N","M","1","2","20","other","moral","match","0.6988","N","1"
"2027","20","male","R","Tra","C","S","P","N","M","1","2","21","self","immoral","match","0.6586","N","1"
"2027","20","male","R","Tra","C","S","P","N","M","1","2","22","self","moral","nonmatch","0.5612","N","0"
"2027","20","male","R","Tra","C","S","P","N","M","1","2","23","self","moral","match","0.6650","N","1"
"2027","20","male","R","Tra","C","S","P","N","M","1","2","24","other","moral","nonmatch","0.8955","M","1"
"2027","20","male","R","Tra","C","S","P","N","M","1","1","1","self","moral","match","1.0440",NA,"-1"
"2027","20","male","R","Tra","C","S","P","N","M","1","1","2","other","moral","match","0.5324","M","0"
"2027","20","male","R","Tra","C","S","P","N","M","1","1","3","other","moral","nonmatch","0.4866","N","0"
"2027","20","male","R","Tra","C","S","P","N","M","1","1","4","other","immoral","match","0.7288","M","0"
"2027","20","male","R","Tra","C","S","P","N","M","1","1","5","other","immoral","nonmatch","0.7926","N","0"
"2027","20","male","R","Tra","C","S","P","N","M","1","1","6","self","immoral","match","1.0440",NA,"-1"
"2027","20","male","R","Tra","C","S","P","N","M","1","1","7","self","immoral","nonmatch","0.8549","N","0"
"2027","20","male","R","Tra","C","S","P","N","M","1","1","8","other","immoral","nonmatch","0.7655","M","1"
"2027","20","male","R","Tra","C","S","P","N","M","1","1","9","self","moral","nonmatch","0.6477","N","0"
"2027","20","male","R","Tra","C","S","P","N","M","1","1","10","self","moral","match","0.7036","M","0"
"2027","20","male","R","Tra","C","S","P","N","M","1","1","11","self","moral","nonmatch","0.3981","N","0"
"2027","20","male","R","Tra","C","S","P","N","M","1","1","12","self","moral","nonmatch","1.0440",NA,"-1"
"2027","20","male","R","Tra","C","S","P","N","M","1","1","13","self","immoral","match","0.5887","M","0"
"2027","20","male","R","Tra","C","S","P","N","M","1","1","14","other","immoral","match","1.0440",NA,"-1"
"2027","20","male","R","Tra","C","S","P","N","M","1","1","15","other","moral","match","1.0440",NA,"-1"
"2027","20","male","R","Tra","C","S","P","N","M","1","1","16","other","immoral","match","0.8026","M","0"
"2027","20","male","R","Tra","C","S","P","N","M","1","1","17","self","immoral","match","0.7451","N","1"
"2027","20","male","R","Tra","C","S","P","N","M","1","1","18","other","moral","match","0.8091","M","0"
"2027","20","male","R","Tra","C","S","P","N","M","1","1","19","self","moral","match","0.8636","M","0"
"2027","20","male","R","Tra","C","S","P","N","M","1","1","20","self","immoral","nonmatch","0.9354","N","0"
"2027","20","male","R","Tra","C","S","P","N","M","1","1","21","self","immoral","nonmatch","0.5339","N","0"
"2027","20","male","R","Tra","C","S","P","N","M","1","1","22","other","immoral","nonmatch","0.7097","M","1"
"2027","20","male","R","Tra","C","S","P","N","M","1","1","23","other","moral","nonmatch","0.5803","M","1"
"2027","20","male","R","Tra","C","S","P","N","M","1","1","24","other","moral","nonmatch","0.7881","M","1"
"2027","20","male","R","Tra","C","S","P","N","M","1","2","1","self","moral","nonmatch","0.7743","N","0"
"2027","20","male","R","Tra","C","S","P","N","M","1","2","2","other","moral","nonmatch","0.6928","M","1"
"2027","20","male","R","Tra","C","S","P","N","M","1","2","3","self","moral","match","0.6368","N","1"
"2027","20","male","R","Tra","C","S","P","N","M","1","2","4","other","immoral","match","0.5392","M","0"
"2027","20","male","R","Tra","C","S","P","N","M","1","2","5","other","immoral","nonmatch","0.8431","M","1"
"2027","20","male","R","Tra","C","S","P","N","M","1","2","6","self","immoral","match","1.0440",NA,"-1"
"2027","20","male","R","Tra","C","S","P","N","M","1","2","7","other","moral","match","0.6334","M","0"
"2027","20","male","R","Tra","C","S","P","N","M","1","2","8","other","moral","nonmatch","0.8000","M","1"
"2027","20","male","R","Tra","C","S","P","N","M","1","2","9","self","immoral","match","0.7038","N","1"
"2027","20","male","R","Tra","C","S","P","N","M","1","2","10","self","immoral","nonmatch","0.6463","M","1"
"2027","20","male","R","Tra","C","S","P","N","M","1","2","11","self","moral","match","0.7901","N","1"
"2027","20","male","R","Tra","C","S","P","N","M","1","2","12","other","moral","match","0.5087","M","0"
"2027","20","male","R","Tra","C","S","P","N","M","1","2","13","other","immoral","nonmatch","0.6286","M","1"
"2027","20","male","R","Tra","C","S","P","N","M","1","2","14","self","moral","match","0.6511","N","1"
"2027","20","male","R","Tra","C","S","P","N","M","1","2","15","other","moral","nonmatch","0.5149","M","1"
"2027","20","male","R","Tra","C","S","P","N","M","1","2","16","self","moral","nonmatch","0.5693","M","1"
"2027","20","male","R","Tra","C","S","P","N","M","1","2","17","self","immoral","nonmatch","0.8412","M","1"
"2027","20","male","R","Tra","C","S","P","N","M","1","2","18","other","immoral","match","0.5678","M","0"
"2027","20","male","R","Tra","C","S","P","N","M","1","2","19","other","immoral","nonmatch","0.6955","N","0"
"2027","20","male","R","Tra","C","S","P","N","M","1","2","20","other","immoral","match","0.6782","M","0"
"2027","20","male","R","Tra","C","S","P","N","M","1","2","21","other","moral","match","0.5660","M","0"
"2027","20","male","R","Tra","C","S","P","N","M","1","2","22","self","immoral","nonmatch","0.7805","M","1"
"2027","20","male","R","Tra","C","S","P","N","M","1","2","23","self","immoral","match","0.7243","N","1"
"2027","20","male","R","Tra","C","S","P","N","M","1","2","24","self","moral","nonmatch","0.7069","M","1"
"2027","20","male","R","Tra","C","S","P","N","M","1","1","1","other","immoral","match","0.6868","M","0"
"2027","20","male","R","Tra","C","S","P","N","M","1","1","2","other","immoral","nonmatch","1.0440",NA,"-1"
"2027","20","male","R","Tra","C","S","P","N","M","1","1","3","self","immoral","match","0.6354","N","1"
"2027","20","male","R","Tra","C","S","P","N","M","1","1","4","other","moral","nonmatch","0.5214","M","1"
"2027","20","male","R","Tra","C","S","P","N","M","1","1","5","self","moral","match","0.4557","M","0"
"2027","20","male","R","Tra","C","S","P","N","M","1","1","6","other","moral","nonmatch","1.0218","N","0"
"2027","20","male","R","Tra","C","S","P","N","M","1","1","7","self","moral","nonmatch","0.9560","M","1"
"2027","20","male","R","Tra","C","S","P","N","M","1","1","8","other","immoral","nonmatch","0.9782","M","1"
"2027","20","male","R","Tra","C","S","P","N","M","1","1","9","self","moral","nonmatch","0.8164","M","1"
"2027","20","male","R","Tra","C","S","P","N","M","1","1","10","self","moral","nonmatch","1.0305","M","1"
"2027","20","male","R","Tra","C","S","P","N","M","1","1","11","self","immoral","nonmatch","1.0440",NA,"-1"
"2027","20","male","R","Tra","C","S","P","N","M","1","1","12","other","immoral","nonmatch","0.7869","N","0"
"2027","20","male","R","Tra","C","S","P","N","M","1","1","13","self","moral","match","0.7771","N","1"
"2027","20","male","R","Tra","C","S","P","N","M","1","1","14","self","immoral","nonmatch","0.7272","M","1"
"2027","20","male","R","Tra","C","S","P","N","M","1","1","15","other","moral","match","0.8534","N","1"
"2027","20","male","R","Tra","C","S","P","N","M","1","1","16","self","immoral","nonmatch","0.7316","M","1"
"2027","20","male","R","Tra","C","S","P","N","M","1","1","17","other","moral","nonmatch","0.8339","M","1"
"2027","20","male","R","Tra","C","S","P","N","M","1","1","18","other","moral","match","0.7841","N","1"
"2027","20","male","R","Tra","C","S","P","N","M","1","1","19","self","moral","match","0.7582","M","0"
"2027","20","male","R","Tra","C","S","P","N","M","1","1","20","self","immoral","match","0.6924","M","0"
"2027","20","male","R","Tra","C","S","P","N","M","1","1","21","other","immoral","match","0.7945","M","0"
"2027","20","male","R","Tra","C","S","P","N","M","1","1","22","self","immoral","match","0.8247","N","1"
"2027","20","male","R","Tra","C","S","P","N","M","1","1","23","other","immoral","match","1.0440",NA,"-1"
"2027","20","male","R","Tra","C","S","P","N","M","1","1","24","other","moral","match","0.8611","N","1"
"2027","20","male","R","Tra","C","S","P","N","M","1","2","1","self","immoral","nonmatch","1.0032","M","1"
"2027","20","male","R","Tra","C","S","P","N","M","1","2","2","other","immoral","match","0.7775","N","1"
"2027","20","male","R","Tra","C","S","P","N","M","1","2","3","other","immoral","nonmatch","0.6236","M","1"
"2027","20","male","R","Tra","C","S","P","N","M","1","2","4","other","immoral","match","0.5419","N","1"
"2027","20","male","R","Tra","C","S","P","N","M","1","2","5","other","moral","match","0.7881","M","0"
"2027","20","male","R","Tra","C","S","P","N","M","1","2","6","self","moral","match","0.8102","N","1"
"2027","20","male","R","Tra","C","S","P","N","M","1","2","7","self","immoral","match","0.7125","N","1"
"2027","20","male","R","Tra","C","S","P","N","M","1","2","8","self","moral","match","0.6786","N","1"
"2027","20","male","R","Tra","C","S","P","N","M","1","2","9","self","moral","nonmatch","0.6368","M","1"
"2027","20","male","R","Tra","C","S","P","N","M","1","2","10","self","moral","match","0.5470","N","1"
"2027","20","male","R","Tra","C","S","P","N","M","1","2","11","other","immoral","match","0.9852","N","1"
"2027","20","male","R","Tra","C","S","P","N","M","1","2","12","other","immoral","nonmatch","0.6873","M","1"
"2027","20","male","R","Tra","C","S","P","N","M","1","2","13","self","immoral","match","0.6454","N","1"
"2027","20","male","R","Tra","C","S","P","N","M","1","2","14","self","moral","nonmatch","0.7157","M","1"
"2027","20","male","R","Tra","C","S","P","N","M","1","2","15","other","moral","nonmatch","0.9459","N","0"
"2027","20","male","R","Tra","C","S","P","N","M","1","2","16","other","moral","nonmatch","0.6960","M","1"
"2027","20","male","R","Tra","C","S","P","N","M","1","2","17","other","moral","match","0.6222","N","1"
"2027","20","male","R","Tra","C","S","P","N","M","1","2","18","other","moral","nonmatch","0.5965","M","1"
"2027","20","male","R","Tra","C","S","P","N","M","1","2","19","self","immoral","nonmatch","1.0345","M","1"
"2027","20","male","R","Tra","C","S","P","N","M","1","2","20","other","immoral","nonmatch","0.7688","M","1"
"2027","20","male","R","Tra","C","S","P","N","M","1","2","21","self","immoral","match","0.5590","N","1"
"2027","20","male","R","Tra","C","S","P","N","M","1","2","22","other","moral","match","0.5651","M","0"
"2027","20","male","R","Tra","C","S","P","N","M","1","2","23","self","immoral","nonmatch","0.6914","M","1"
"2027","20","male","R","Tra","C","S","P","N","M","1","2","24","self","moral","nonmatch","0.8655","M","1"
"2027","20","male","R","Tra","C","S","P","N","M","1","3","1","other","immoral","nonmatch","1.0440",NA,"-1"
"2027","20","male","R","Tra","C","S","P","N","M","1","3","2","self","moral","match","0.8779","N","1"
"2027","20","male","R","Tra","C","S","P","N","M","1","3","3","self","moral","match","0.6121","N","1"
"2027","20","male","R","Tra","C","S","P","N","M","1","3","4","self","immoral","match","0.4743","N","1"
"2027","20","male","R","Tra","C","S","P","N","M","1","3","5","other","immoral","nonmatch","0.5204","M","1"
"2027","20","male","R","Tra","C","S","P","N","M","1","3","6","self","immoral","nonmatch","0.7586","N","0"
"2027","20","male","R","Tra","C","S","P","N","M","1","3","7","self","moral","nonmatch","0.7888","M","1"
"2027","20","male","R","Tra","C","S","P","N","M","1","3","8","other","moral","nonmatch","0.8830","M","1"
"2027","20","male","R","Tra","C","S","P","N","M","1","3","9","self","immoral","match","0.6413","N","1"
"2027","20","male","R","Tra","C","S","P","N","M","1","3","10","other","moral","nonmatch","0.6794","M","1"
"2027","20","male","R","Tra","C","S","P","N","M","1","3","11","other","immoral","match","0.6296","N","1"
"2027","20","male","R","Tra","C","S","P","N","M","1","3","12","other","moral","nonmatch","0.7797","M","1"
"2027","20","male","R","Tra","C","S","P","N","M","1","3","13","other","immoral","nonmatch","1.0179","M","1"
"2027","20","male","R","Tra","C","S","P","N","M","1","3","14","other","moral","match","0.8161","M","0"
"2027","20","male","R","Tra","C","S","P","N","M","1","3","15","self","moral","match","0.8703","N","1"
"2027","20","male","R","Tra","C","S","P","N","M","1","3","16","self","immoral","match","0.9645","M","0"
"2027","20","male","R","Tra","C","S","P","N","M","1","3","17","self","immoral","nonmatch","0.6666","M","1"
"2027","20","male","R","Tra","C","S","P","N","M","1","3","18","other","immoral","match","1.0408","N","1"
"2027","20","male","R","Tra","C","S","P","N","M","1","3","19","self","moral","nonmatch","0.7751","M","1"
"2027","20","male","R","Tra","C","S","P","N","M","1","3","20","other","immoral","match","0.8773","M","0"
"2027","20","male","R","Tra","C","S","P","N","M","1","3","21","self","moral","nonmatch","0.7234","M","1"
"2027","20","male","R","Tra","C","S","P","N","M","1","3","22","other","moral","match","0.9216","N","1"
"2027","20","male","R","Tra","C","S","P","N","M","1","3","23","other","moral","match","0.5998","N","1"
"2027","20","male","R","Tra","C","S","P","N","M","1","3","24","self","immoral","nonmatch","0.6699","M","1"
"2027","20","male","R","Tra","C","S","P","N","M","1","4","1","self","moral","nonmatch","0.7231","N","0"
"2027","20","male","R","Tra","C","S","P","N","M","1","4","2","other","immoral","match","0.7212","M","0"
"2027","20","male","R","Tra","C","S","P","N","M","1","4","3","self","immoral","match","0.6395","M","0"
"2027","20","male","R","Tra","C","S","P","N","M","1","4","4","other","moral","match","0.9496","N","1"
"2027","20","male","R","Tra","C","S","P","N","M","1","4","5","other","moral","match","0.8277","N","1"
"2027","20","male","R","Tra","C","S","P","N","M","1","4","6","other","immoral","nonmatch","0.8739","M","1"
"2027","20","male","R","Tra","C","S","P","N","M","1","4","7","self","immoral","nonmatch","0.9521","M","1"
"2027","20","male","R","Tra","C","S","P","N","M","1","4","8","other","immoral","match","0.8543","N","1"
"2027","20","male","R","Tra","C","S","P","N","M","1","4","9","other","immoral","match","0.6285","N","1"
"2027","20","male","R","Tra","C","S","P","N","M","1","4","10","self","immoral","nonmatch","0.7465","M","1"
"2027","20","male","R","Tra","C","S","P","N","M","1","4","11","self","moral","match","0.6728","N","1"
"2027","20","male","R","Tra","C","S","P","N","M","1","4","12","other","moral","match","0.7270","M","0"
"2027","20","male","R","Tra","C","S","P","N","M","1","4","13","self","immoral","nonmatch","0.7492","M","1"
"2027","20","male","R","Tra","C","S","P","N","M","1","4","14","self","moral","match","0.6035","N","1"
"2027","20","male","R","Tra","C","S","P","N","M","1","4","15","other","immoral","nonmatch","0.8736","M","1"
"2027","20","male","R","Tra","C","S","P","N","M","1","4","16","other","moral","nonmatch","0.9998","M","1"
"2027","20","male","R","Tra","C","S","P","N","M","1","4","17","other","moral","nonmatch","0.8619","M","1"
"2027","20","male","R","Tra","C","S","P","N","M","1","4","18","self","moral","match","0.7162","N","1"
"2027","20","male","R","Tra","C","S","P","N","M","1","4","19","other","moral","nonmatch","0.7144","M","1"
"2027","20","male","R","Tra","C","S","P","N","M","1","4","20","self","moral","nonmatch","1.0440",NA,"-1"
"2027","20","male","R","Tra","C","S","P","N","M","1","4","21","self","moral","nonmatch","0.8227","N","0"
"2027","20","male","R","Tra","C","S","P","N","M","1","4","22","other","immoral","nonmatch","0.7169","M","1"
"2027","20","male","R","Tra","C","S","P","N","M","1","4","23","self","immoral","match","0.6591","N","1"
"2027","20","male","R","Tra","C","S","P","N","M","1","4","24","self","immoral","match","0.6093","N","1"
"2027","20","male","R","Tra","C","S","P","N","M","1","5","1","other","moral","nonmatch","0.6714","M","1"
"2027","20","male","R","Tra","C","S","P","N","M","1","5","2","other","immoral","match","0.7576","N","1"
"2027","20","male","R","Tra","C","S","P","N","M","1","5","3","self","immoral","match","1.0440",NA,"-1"
"2027","20","male","R","Tra","C","S","P","N","M","1","5","4","other","immoral","match","0.7140","M","0"
"2027","20","male","R","Tra","C","S","P","N","M","1","5","5","self","moral","nonmatch","1.0440",NA,"-1"
"2027","20","male","R","Tra","C","S","P","N","M","1","5","6","self","moral","match","0.6543","N","1"
"2027","20","male","R","Tra","C","S","P","N","M","1","5","7","self","moral","match","0.5565","N","1"
"2027","20","male","R","Tra","C","S","P","N","M","1","5","8","other","immoral","nonmatch","0.7147","M","1"
"2027","20","male","R","Tra","C","S","P","N","M","1","5","9","other","immoral","match","1.0440",NA,"-1"
"2027","20","male","R","Tra","C","S","P","N","M","1","5","10","other","moral","match","0.6951","N","1"
"2027","20","male","R","Tra","C","S","P","N","M","1","5","11","self","moral","nonmatch","0.4932","N","0"
"2027","20","male","R","Tra","C","S","P","N","M","1","5","12","self","moral","nonmatch","0.8274","M","1"
"2027","20","male","R","Tra","C","S","P","N","M","1","5","13","other","moral","nonmatch","0.8737","M","1"
"2027","20","male","R","Tra","C","S","P","N","M","1","5","14","self","moral","match","0.6638","M","0"
"2027","20","male","R","Tra","C","S","P","N","M","1","5","15","other","moral","match","0.7099","M","0"
"2027","20","male","R","Tra","C","S","P","N","M","1","5","16","other","moral","match","0.7642","N","1"
"2027","20","male","R","Tra","C","S","P","N","M","1","5","17","self","immoral","match","0.6504","N","1"
"2027","20","male","R","Tra","C","S","P","N","M","1","5","18","self","immoral","match","0.6086","N","1"
"2027","20","male","R","Tra","C","S","P","N","M","1","5","19","self","immoral","nonmatch","0.4148","N","0"
"2027","20","male","R","Tra","C","S","P","N","M","1","5","20","other","moral","nonmatch","0.7969","M","1"
"2027","20","male","R","Tra","C","S","P","N","M","1","5","21","self","immoral","nonmatch","0.9072","M","1"
"2027","20","male","R","Tra","C","S","P","N","M","1","5","22","self","immoral","nonmatch","0.8572","M","1"
"2027","20","male","R","Tra","C","S","P","N","M","1","5","23","other","immoral","nonmatch","1.0440",NA,"-1"
"2027","20","male","R","Tra","C","S","P","N","M","1","5","24","other","immoral","nonmatch","0.8777","M","1"
"2027","20","male","R","Tra","C","S","P","N","M","2","1","1","other","moral","nonmatch","1.0440",NA,"-1"
"2027","20","male","R","Tra","C","S","P","N","M","2","1","2","self","moral","match","0.7084","N","1"
"2027","20","male","R","Tra","C","S","P","N","M","2","1","3","other","immoral","nonmatch","0.6904","M","1"
"2027","20","male","R","Tra","C","S","P","N","M","2","1","4","self","immoral","match","0.6565","N","1"
"2027","20","male","R","Tra","C","S","P","N","M","2","1","5","self","immoral","nonmatch","0.5828","M","1"
"2027","20","male","R","Tra","C","S","P","N","M","2","1","6","other","moral","match","0.5009","N","1"
"2027","20","male","R","Tra","C","S","P","N","M","2","1","7","self","immoral","nonmatch","0.7313","M","1"
"2027","20","male","R","Tra","C","S","P","N","M","2","1","8","self","moral","match","0.6573","N","1"
"2027","20","male","R","Tra","C","S","P","N","M","2","1","9","other","moral","match","0.5675","N","1"
"2027","20","male","R","Tra","C","S","P","N","M","2","1","10","other","moral","nonmatch","0.8056","M","1"
"2027","20","male","R","Tra","C","S","P","N","M","2","1","11","other","immoral","match","0.7079","N","1"
"2027","20","male","R","Tra","C","S","P","N","M","2","1","12","self","moral","nonmatch","0.7701","N","0"
"2027","20","male","R","Tra","C","S","P","N","M","2","1","13","self","immoral","nonmatch","0.7923","M","1"
"2027","20","male","R","Tra","C","S","P","N","M","2","1","14","other","immoral","match","0.6305","M","0"
"2027","20","male","R","Tra","C","S","P","N","M","2","1","15","other","moral","match","0.6927","M","0"
"2027","20","male","R","Tra","C","S","P","N","M","2","1","16","self","moral","match","0.6429","N","1"
"2027","20","male","R","Tra","C","S","P","N","M","2","1","17","self","immoral","match","0.5769","N","1"
"2027","20","male","R","Tra","C","S","P","N","M","2","1","18","other","immoral","nonmatch","1.0440",NA,"-1"
"2027","20","male","R","Tra","C","S","P","N","M","2","1","19","other","immoral","nonmatch","0.7813","M","1"
"2027","20","male","R","Tra","C","S","P","N","M","2","1","20","other","moral","nonmatch","0.8356","M","1"
"2027","20","male","R","Tra","C","S","P","N","M","2","1","21","self","immoral","match","0.4978","N","1"
"2027","20","male","R","Tra","C","S","P","N","M","2","1","22","self","moral","nonmatch","0.7919","M","1"
"2027","20","male","R","Tra","C","S","P","N","M","2","1","23","self","moral","nonmatch","0.7341","M","1"
"2027","20","male","R","Tra","C","S","P","N","M","2","1","24","other","immoral","match","0.8283","N","1"
"2027","20","male","R","Tra","C","S","P","N","M","2","2","1","other","immoral","nonmatch","0.7945","M","1"
"2027","20","male","R","Tra","C","S","P","N","M","2","2","2","self","moral","match","0.8567","N","1"
"2027","20","male","R","Tra","C","S","P","N","M","2","2","3","self","immoral","match","0.7668","N","1"
"2027","20","male","R","Tra","C","S","P","N","M","2","2","4","other","immoral","nonmatch","0.8290","N","0"
"2027","20","male","R","Tra","C","S","P","N","M","2","2","5","other","moral","nonmatch","0.8113","M","1"
"2027","20","male","R","Tra","C","S","P","N","M","2","2","6","self","moral","nonmatch","0.8575","M","1"
"2027","20","male","R","Tra","C","S","P","N","M","2","2","7","self","immoral","nonmatch","0.6076","N","0"
"2027","20","male","R","Tra","C","S","P","N","M","2","2","8","other","immoral","nonmatch","0.7819","M","1"
"2027","20","male","R","Tra","C","S","P","N","M","2","2","9","self","immoral","match","0.6361","N","1"
"2027","20","male","R","Tra","C","S","P","N","M","2","2","10","self","immoral","nonmatch","0.8901","M","1"
"2027","20","male","R","Tra","C","S","P","N","M","2","2","11","other","moral","match","0.7843","N","1"
"2027","20","male","R","Tra","C","S","P","N","M","2","2","12","self","moral","nonmatch","1.0440",NA,"-1"
"2027","20","male","R","Tra","C","S","P","N","M","2","2","13","self","immoral","nonmatch","1.0047","M","1"
"2027","20","male","R","Tra","C","S","P","N","M","2","2","14","other","moral","nonmatch","0.8669","M","1"
"2027","20","male","R","Tra","C","S","P","N","M","2","2","15","other","moral","match","0.5771","N","1"
"2027","20","male","R","Tra","C","S","P","N","M","2","2","16","self","moral","match","0.7672","M","0"
"2027","20","male","R","Tra","C","S","P","N","M","2","2","17","other","immoral","match","0.7415","N","1"
"2027","20","male","R","Tra","C","S","P","N","M","2","2","18","self","immoral","match","0.8916","N","1"
"2027","20","male","R","Tra","C","S","P","N","M","2","2","19","other","immoral","match","0.8338","N","1"
"2027","20","male","R","Tra","C","S","P","N","M","2","2","20","other","immoral","match","0.6080","M","0"
"2027","20","male","R","Tra","C","S","P","N","M","2","2","21","self","moral","nonmatch","0.7342","N","0"
"2027","20","male","R","Tra","C","S","P","N","M","2","2","22","other","moral","nonmatch","0.8764","M","1"
"2027","20","male","R","Tra","C","S","P","N","M","2","2","23","other","moral","match","0.7626","N","1"
"2027","20","male","R","Tra","C","S","P","N","M","2","2","24","self","moral","match","0.8167","N","1"
"2027","20","male","R","Tra","C","S","P","N","M","2","3","1","other","immoral","match","0.9909","N","1"
"2027","20","male","R","Tra","C","S","P","N","M","2","3","2","self","immoral","nonmatch","1.0440",NA,"-1"
"2027","20","male","R","Tra","C","S","P","N","M","2","3","3","self","immoral","match","0.5873","N","1"
"2027","20","male","R","Tra","C","S","P","N","M","2","3","4","other","immoral","match","0.7055","N","1"
"2027","20","male","R","Tra","C","S","P","N","M","2","3","5","other","moral","nonmatch","0.5836","N","0"
"2027","20","male","R","Tra","C","S","P","N","M","2","3","6","other","moral","match","0.6378","N","1"
"2027","20","male","R","Tra","C","S","P","N","M","2","3","7","self","moral","match","0.7960","N","1"
"2027","20","male","R","Tra","C","S","P","N","M","2","3","8","other","moral","nonmatch","0.7942","M","1"
"2027","20","male","R","Tra","C","S","P","N","M","2","3","9","self","moral","nonmatch","0.9123","N","0"
"2027","20","male","R","Tra","C","S","P","N","M","2","3","10","other","moral","match","0.6706","N","1"
"2027","20","male","R","Tra","C","S","P","N","M","2","3","11","other","moral","nonmatch","0.9328","M","1"
"2027","20","male","R","Tra","C","S","P","N","M","2","3","12","other","immoral","match","0.8590","N","1"
"2027","20","male","R","Tra","C","S","P","N","M","2","3","13","self","immoral","nonmatch","0.9691","M","1"
"2027","20","male","R","Tra","C","S","P","N","M","2","3","14","other","immoral","nonmatch","0.9193","N","0"
"2027","20","male","R","Tra","C","S","P","N","M","2","3","15","self","immoral","match","0.6375","N","1"
"2027","20","male","R","Tra","C","S","P","N","M","2","3","16","self","moral","match","0.7157","N","1"
"2027","20","male","R","Tra","C","S","P","N","M","2","3","17","other","moral","match","0.7138","N","1"
"2027","20","male","R","Tra","C","S","P","N","M","2","3","18","other","immoral","nonmatch","0.8560","M","1"
"2027","20","male","R","Tra","C","S","P","N","M","2","3","19","self","immoral","nonmatch","0.6622","N","0"
"2027","20","male","R","Tra","C","S","P","N","M","2","3","20","self","moral","nonmatch","0.9323","N","0"
"2027","20","male","R","Tra","C","S","P","N","M","2","3","21","self","moral","nonmatch","0.7627","M","1"
"2027","20","male","R","Tra","C","S","P","N","M","2","3","22","self","moral","match","0.9447","N","1"
"2027","20","male","R","Tra","C","S","P","N","M","2","3","23","other","immoral","nonmatch","0.7830","M","1"
"2027","20","male","R","Tra","C","S","P","N","M","2","3","24","self","immoral","match","0.7491","N","1"
"2027","20","male","R","Tra","C","S","P","N","M","2","4","1","other","moral","nonmatch","1.0440",NA,"-1"
"2027","20","male","R","Tra","C","S","P","N","M","2","4","2","self","immoral","nonmatch","0.8855","M","1"
"2027","20","male","R","Tra","C","S","P","N","M","2","4","3","self","immoral","match","0.8197","N","1"
"2027","20","male","R","Tra","C","S","P","N","M","2","4","4","other","immoral","match","1.0440",NA,"-1"
"2027","20","male","R","Tra","C","S","P","N","M","2","4","5","other","moral","match","0.6240","N","1"
"2027","20","male","R","Tra","C","S","P","N","M","2","4","6","self","moral","nonmatch","0.7902","M","1"
"2027","20","male","R","Tra","C","S","P","N","M","2","4","7","self","moral","match","0.6125","N","1"
"2027","20","male","R","Tra","C","S","P","N","M","2","4","8","other","immoral","match","0.8266","N","1"
"2027","20","male","R","Tra","C","S","P","N","M","2","4","9","other","immoral","nonmatch","0.7527","M","1"
"2027","20","male","R","Tra","C","S","P","N","M","2","4","10","other","moral","nonmatch","0.9350","M","1"
"2027","20","male","R","Tra","C","S","P","N","M","2","4","11","self","immoral","nonmatch","0.6771","M","1"
"2027","20","male","R","Tra","C","S","P","N","M","2","4","12","other","immoral","nonmatch","0.9553","M","1"
"2027","20","male","R","Tra","C","S","P","N","M","2","4","13","self","immoral","match","0.7136","N","1"
"2027","20","male","R","Tra","C","S","P","N","M","2","4","14","self","immoral","match","0.7437","M","0"
"2027","20","male","R","Tra","C","S","P","N","M","2","4","15","other","moral","nonmatch","0.7099","M","1"
"2027","20","male","R","Tra","C","S","P","N","M","2","4","16","self","immoral","nonmatch","1.0440",NA,"-1"
"2027","20","male","R","Tra","C","S","P","N","M","2","4","17","other","moral","match","0.6423","N","1"
"2027","20","male","R","Tra","C","S","P","N","M","2","4","18","self","moral","match","0.8643","N","1"
"2027","20","male","R","Tra","C","S","P","N","M","2","4","19","self","moral","nonmatch","0.6304","M","1"
"2027","20","male","R","Tra","C","S","P","N","M","2","4","20","self","moral","match","0.6449","N","1"
"2027","20","male","R","Tra","C","S","P","N","M","2","4","21","other","immoral","nonmatch","0.8190","M","1"
"2027","20","male","R","Tra","C","S","P","N","M","2","4","22","other","immoral","match","0.7452","N","1"
"2027","20","male","R","Tra","C","S","P","N","M","2","4","23","self","moral","nonmatch","0.7593","M","1"
"2027","20","male","R","Tra","C","S","P","N","M","2","4","24","other","moral","match","0.6695","N","1"
"2027","20","male","R","Tra","C","S","P","N","M","2","5","1","self","immoral","match","0.7158","N","1"
"2027","20","male","R","Tra","C","S","P","N","M","2","5","2","other","moral","match","0.7299","N","1"
"2027","20","male","R","Tra","C","S","P","N","M","2","5","3","other","immoral","match","0.6561","N","1"
"2027","20","male","R","Tra","C","S","P","N","M","2","5","4","self","immoral","nonmatch","0.7262","M","1"
"2027","20","male","R","Tra","C","S","P","N","M","2","5","5","other","moral","match","0.6924","N","1"
"2027","20","male","R","Tra","C","S","P","N","M","2","5","6","other","moral","nonmatch","0.6426","M","1"
"2027","20","male","R","Tra","C","S","P","N","M","2","5","7","other","immoral","match","0.7128","N","1"
"2027","20","male","R","Tra","C","S","P","N","M","2","5","8","self","immoral","match","0.6550","N","1"
"2027","20","male","R","Tra","C","S","P","N","M","2","5","9","other","immoral","nonmatch","0.7891","M","1"
"2027","20","male","R","Tra","C","S","P","N","M","2","5","10","self","moral","match","0.5954","N","1"
"2027","20","male","R","Tra","C","S","P","N","M","2","5","11","self","immoral","nonmatch","0.9695","N","0"
"2027","20","male","R","Tra","C","S","P","N","M","2","5","12","other","moral","nonmatch","0.6556","M","1"
"2027","20","male","R","Tra","C","S","P","N","M","2","5","13","self","moral","nonmatch","0.6940","M","1"
"2027","20","male","R","Tra","C","S","P","N","M","2","5","14","self","moral","match","0.6441","N","1"
"2027","20","male","R","Tra","C","S","P","N","M","2","5","15","self","immoral","nonmatch","0.8343","M","1"
"2027","20","male","R","Tra","C","S","P","N","M","2","5","16","self","moral","nonmatch","0.6405","M","1"
"2027","20","male","R","Tra","C","S","P","N","M","2","5","17","other","immoral","nonmatch","1.0440",NA,"-1"
"2027","20","male","R","Tra","C","S","P","N","M","2","5","18","self","immoral","match","0.6369","N","1"
"2027","20","male","R","Tra","C","S","P","N","M","2","5","19","other","moral","match","0.7310","N","1"
"2027","20","male","R","Tra","C","S","P","N","M","2","5","20","other","immoral","nonmatch","1.0440",NA,"-1"
"2027","20","male","R","Tra","C","S","P","N","M","2","5","21","other","immoral","match","0.8713","N","1"
"2027","20","male","R","Tra","C","S","P","N","M","2","5","22","self","moral","match","0.6536","N","1"
"2027","20","male","R","Tra","C","S","P","N","M","2","5","23","other","moral","nonmatch","0.8038","M","1"
"2027","20","male","R","Tra","C","S","P","N","M","2","5","24","self","moral","nonmatch","0.7540","M","1"
"2027","20","male","R","Tra","C","S","P","N","M","1","1","1","self","immoral","match","0.3915","N","1"
"2027","20","male","R","Tra","C","S","P","N","M","1","1","2","self","immoral","match","0.5537","N","1"
"2027","20","male","R","Tra","C","S","P","N","M","1","1","3","self","immoral","nonmatch","0.5056","M","1"
"2027","20","male","R","Tra","C","S","P","N","M","1","1","4","other","moral","match","0.5041","N","1"
"2027","20","male","R","Tra","C","S","P","N","M","1","1","5","self","moral","match","0.4320","N","1"
"2027","20","male","R","Tra","C","S","P","N","M","1","1","6","self","immoral","match","0.8224","N","1"
"2027","20","male","R","Tra","C","S","P","N","M","1","1","7","other","immoral","nonmatch","0.7022","M","1"
"2027","20","male","R","Tra","C","S","P","N","M","1","1","8","other","immoral","match","0.9808","N","1"
"2027","20","male","R","Tra","C","S","P","N","M","1","1","9","other","moral","match","0.8846","N","1"
"2027","20","male","R","Tra","C","S","P","N","M","1","1","10","other","immoral","match","0.6591","N","1"
"2027","20","male","R","Tra","C","S","P","N","M","1","1","11","self","moral","nonmatch","0.8271","M","1"
"2027","20","male","R","Tra","C","S","P","N","M","1","1","12","self","moral","nonmatch","0.8015","M","1"
"2027","20","male","R","Tra","C","S","P","N","M","1","1","13","other","immoral","nonmatch","0.7935","M","1"
"2027","20","male","R","Tra","C","S","P","N","M","1","1","14","self","immoral","nonmatch","0.6480","M","1"
"2027","20","male","R","Tra","C","S","P","N","M","1","1","15","self","moral","match","0.6237","N","1"
"2027","20","male","R","Tra","C","S","P","N","M","1","1","16","other","moral","nonmatch","0.7583","M","1"
"2027","20","male","R","Tra","C","S","P","N","M","1","1","17","self","immoral","nonmatch","0.6702","M","1"
"2027","20","male","R","Tra","C","S","P","N","M","1","1","18","self","moral","match","0.5966","N","1"
"2027","20","male","R","Tra","C","S","P","N","M","1","1","19","other","moral","match","0.6285","N","1"
"2027","20","male","R","Tra","C","S","P","N","M","1","1","20","other","moral","nonmatch","0.5711","M","1"
"2027","20","male","R","Tra","C","S","P","N","M","1","1","21","self","moral","nonmatch","0.7549","M","1"
"2027","20","male","R","Tra","C","S","P","N","M","1","1","22","other","immoral","nonmatch","0.7134","M","1"
"2027","20","male","R","Tra","C","S","P","N","M","1","1","23","other","immoral","match","0.6734","M","0"
"2027","20","male","R","Tra","C","S","P","N","M","1","1","24","other","moral","nonmatch","0.6158","M","1"
"2027","20","male","R","Tra","C","S","P","N","M","1","2","1","self","immoral","nonmatch","0.7756","M","1"
"2027","20","male","R","Tra","C","S","P","N","M","1","2","2","other","immoral","match","0.9582","N","1"
"2027","20","male","R","Tra","C","S","P","N","M","1","2","3","other","immoral","match","0.8219","N","1"
"2027","20","male","R","Tra","C","S","P","N","M","1","2","4","self","moral","match","0.7005","N","1"
"2027","20","male","R","Tra","C","S","P","N","M","1","2","5","other","immoral","nonmatch","0.6444","N","0"
"2027","20","male","R","Tra","C","S","P","N","M","1","2","6","other","moral","match","0.6027","N","1"
"2027","20","male","R","Tra","C","S","P","N","M","1","2","7","other","immoral","nonmatch","0.9307","M","1"
"2027","20","male","R","Tra","C","S","P","N","M","1","2","8","other","moral","match","0.7053","N","1"
"2027","20","male","R","Tra","C","S","P","N","M","1","2","9","other","moral","nonmatch","0.8011","M","1"
"2027","20","male","R","Tra","C","S","P","N","M","1","2","10","other","immoral","nonmatch","0.7872","M","1"
"2027","20","male","R","Tra","C","S","P","N","M","1","2","11","self","moral","nonmatch","0.7298","M","1"
"2027","20","male","R","Tra","C","S","P","N","M","1","2","12","other","moral","match","0.6496","N","1"
"2027","20","male","R","Tra","C","S","P","N","M","1","2","13","self","moral","nonmatch","0.7281","M","1"
"2027","20","male","R","Tra","C","S","P","N","M","1","2","14","self","moral","nonmatch","0.8001","M","1"
"2027","20","male","R","Tra","C","S","P","N","M","1","2","15","self","moral","match","0.8385","N","1"
"2027","20","male","R","Tra","C","S","P","N","M","1","2","16","self","immoral","nonmatch","0.9663","M","1"
"2027","20","male","R","Tra","C","S","P","N","M","1","2","17","self","moral","match","0.7889","N","1"
"2027","20","male","R","Tra","C","S","P","N","M","1","2","18","other","moral","nonmatch","0.8847","M","1"
"2027","20","male","R","Tra","C","S","P","N","M","1","2","19","self","immoral","match","0.7873","N","1"
"2027","20","male","R","Tra","C","S","P","N","M","1","2","20","self","immoral","match","0.7152","N","1"
"2027","20","male","R","Tra","C","S","P","N","M","1","2","21","self","immoral","nonmatch","0.7857","M","1"
"2027","20","male","R","Tra","C","S","P","N","M","1","2","22","self","immoral","match","0.6656","N","1"
"2027","20","male","R","Tra","C","S","P","N","M","1","2","23","other","moral","nonmatch","0.9200","M","1"
"2027","20","male","R","Tra","C","S","P","N","M","1","2","24","other","immoral","match","0.7359","N","1"
"2027","20","male","R","Tra","C","S","P","N","M","1","1","1","other","moral","nonmatch","0.6764","M","1"
"2027","20","male","R","Tra","C","S","P","N","M","1","1","2","other","immoral","nonmatch","0.4909","M","1"
"2027","20","male","R","Tra","C","S","P","N","M","1","1","3","self","immoral","nonmatch","0.6507","M","1"
"2027","20","male","R","Tra","C","S","P","N","M","1","1","4","self","immoral","nonmatch","0.6173","M","1"
"2027","20","male","R","Tra","C","S","P","N","M","1","1","5","other","immoral","match","0.9611","N","1"
"2027","20","male","R","Tra","C","S","P","N","M","1","1","6","other","moral","nonmatch","0.8077","M","1"
"2027","20","male","R","Tra","C","S","P","N","M","1","1","7","other","immoral","match","0.6796","N","1"
"2027","20","male","R","Tra","C","S","P","N","M","1","1","8","self","moral","nonmatch","0.7901","N","0"
"2027","20","male","R","Tra","C","S","P","N","M","1","1","9","other","immoral","nonmatch","0.9899","M","1"
"2027","20","male","R","Tra","C","S","P","N","M","1","1","10","self","immoral","nonmatch","0.6684","M","1"
"2027","20","male","R","Tra","C","S","P","N","M","1","1","11","self","moral","nonmatch","0.6842","M","1"
"2027","20","male","R","Tra","C","S","P","N","M","1","1","12","self","moral","match","0.5707","N","1"
"2027","20","male","R","Tra","C","S","P","N","M","1","1","13","self","moral","match","0.5628","N","1"
"2027","20","male","R","Tra","C","S","P","N","M","1","1","14","self","moral","nonmatch","0.5211","M","1"
"2027","20","male","R","Tra","C","S","P","N","M","1","1","15","other","moral","nonmatch","0.9850","M","1"
"2027","20","male","R","Tra","C","S","P","N","M","1","1","16","other","moral","match","0.7436","N","1"
"2027","20","male","R","Tra","C","S","P","N","M","1","1","17","other","moral","match","0.5754","N","1"
"2027","20","male","R","Tra","C","S","P","N","M","1","1","18","self","moral","match","0.7178","N","1"
"2027","20","male","R","Tra","C","S","P","N","M","1","1","19","other","moral","match","0.6217","N","1"
"2027","20","male","R","Tra","C","S","P","N","M","1","1","20","other","immoral","match","0.6923","N","1"
"2027","20","male","R","Tra","C","S","P","N","M","1","1","21","self","immoral","match","0.6041","N","1"
"2027","20","male","R","Tra","C","S","P","N","M","1","1","22","self","immoral","match","0.5307","N","1"
"2027","20","male","R","Tra","C","S","P","N","M","1","1","23","other","immoral","nonmatch","1.0265","M","1"
"2027","20","male","R","Tra","C","S","P","N","M","1","1","24","self","immoral","match","0.6090","N","1"
"2027","20","male","R","Tra","C","S","P","N","M","1","2","1","self","immoral","match","0.6409","N","1"
"2027","20","male","R","Tra","C","S","P","N","M","1","2","2","other","immoral","nonmatch","0.7518","M","1"
"2027","20","male","R","Tra","C","S","P","N","M","1","2","3","self","moral","nonmatch","0.6392","M","1"
"2027","20","male","R","Tra","C","S","P","N","M","1","2","4","other","moral","nonmatch","0.8299","M","1"
"2027","20","male","R","Tra","C","S","P","N","M","1","2","5","self","moral","nonmatch","0.6296","M","1"
"2027","20","male","R","Tra","C","S","P","N","M","1","2","6","other","immoral","nonmatch","0.5882","M","1"
"2027","20","male","R","Tra","C","S","P","N","M","1","2","7","self","moral","match","0.5800","N","1"
"2027","20","male","R","Tra","C","S","P","N","M","1","2","8","other","immoral","match","0.5226","M","0"
"2027","20","male","R","Tra","C","S","P","N","M","1","2","9","other","moral","match","0.7384","N","1"
"2027","20","male","R","Tra","C","S","P","N","M","1","2","10","other","immoral","match","0.8409","N","1"
"2027","20","male","R","Tra","C","S","P","N","M","1","2","11","other","moral","match","0.5527","N","1"
"2027","20","male","R","Tra","C","S","P","N","M","1","2","12","self","immoral","match","0.6073","N","1"
"2027","20","male","R","Tra","C","S","P","N","M","1","2","13","self","immoral","nonmatch","0.6951","M","1"
"2027","20","male","R","Tra","C","S","P","N","M","1","2","14","self","immoral","nonmatch","0.7016","M","1"
"2027","20","male","R","Tra","C","S","P","N","M","1","2","15","self","moral","match","0.6614","N","1"
"2027","20","male","R","Tra","C","S","P","N","M","1","2","16","other","immoral","nonmatch","0.7721","M","1"
"2027","20","male","R","Tra","C","S","P","N","M","1","2","17","other","moral","match","0.6279","N","1"
"2027","20","male","R","Tra","C","S","P","N","M","1","2","18","other","moral","nonmatch","0.7623","M","1"
"2027","20","male","R","Tra","C","S","P","N","M","1","2","19","self","moral","match","0.6342","N","1"
"2027","20","male","R","Tra","C","S","P","N","M","1","2","20","self","moral","nonmatch","0.7127","M","1"
"2027","20","male","R","Tra","C","S","P","N","M","1","2","21","self","immoral","match","0.7285","N","1"
"2027","20","male","R","Tra","C","S","P","N","M","1","2","22","self","immoral","nonmatch","0.6631","M","1"
"2027","20","male","R","Tra","C","S","P","N","M","1","2","23","other","moral","nonmatch","0.8949","M","1"
"2027","20","male","R","Tra","C","S","P","N","M","1","2","24","other","immoral","match","0.7734","N","1"
"2027","20","male","R","Tra","C","S","P","N","M","1","1","1","self","immoral","nonmatch","0.6417","M","1"
"2027","20","male","R","Tra","C","S","P","N","M","1","1","2","self","moral","match","0.6015","N","1"
"2027","20","male","R","Tra","C","S","P","N","M","1","1","3","self","moral","nonmatch","0.5682","M","1"
"2027","20","male","R","Tra","C","S","P","N","M","1","1","4","other","moral","nonmatch","0.6720","M","1"
"2027","20","male","R","Tra","C","S","P","N","M","1","1","5","self","moral","match","0.7104","N","1"
"2027","20","male","R","Tra","C","S","P","N","M","1","1","6","self","immoral","nonmatch","0.5901","M","1"
"2027","20","male","R","Tra","C","S","P","N","M","1","1","7","self","moral","nonmatch","0.5970","M","1"
"2027","20","male","R","Tra","C","S","P","N","M","1","1","8","other","moral","nonmatch","0.7247","M","1"
"2027","20","male","R","Tra","C","S","P","N","M","1","1","9","self","moral","match","0.7232","N","1"
"2027","20","male","R","Tra","C","S","P","N","M","1","1","10","other","immoral","nonmatch","0.8990","M","1"
"2027","20","male","R","Tra","C","S","P","N","M","1","1","11","other","moral","match","0.6976","N","1"
"2027","20","male","R","Tra","C","S","P","N","M","1","1","12","other","immoral","match","0.6015","N","1"
"2027","20","male","R","Tra","C","S","P","N","M","1","1","13","other","immoral","nonmatch","0.6719","M","1"
"2027","20","male","R","Tra","C","S","P","N","M","1","1","14","self","immoral","match","0.6798","N","1"
"2027","20","male","R","Tra","C","S","P","N","M","1","1","15","self","immoral","nonmatch","0.7024","M","1"
"2027","20","male","R","Tra","C","S","P","N","M","1","1","16","other","immoral","match","0.7741","N","1"
"2027","20","male","R","Tra","C","S","P","N","M","1","1","17","other","moral","match","0.5647","N","1"
"2027","20","male","R","Tra","C","S","P","N","M","1","1","18","other","moral","nonmatch","0.6605","M","1"
"2027","20","male","R","Tra","C","S","P","N","M","1","1","19","other","immoral","match","0.6191","N","1"
"2027","20","male","R","Tra","C","S","P","N","M","1","1","20","other","immoral","nonmatch","0.6749","M","1"
"2027","20","male","R","Tra","C","S","P","N","M","1","1","21","self","immoral","match","0.6254","N","1"
"2027","20","male","R","Tra","C","S","P","N","M","1","1","22","other","moral","match","0.7532","N","1"
"2027","20","male","R","Tra","C","S","P","N","M","1","1","23","self","immoral","match","0.7198","M","0"
"2027","20","male","R","Tra","C","S","P","N","M","1","1","24","self","moral","nonmatch","0.7916","M","1"
"2027","20","male","R","Tra","C","S","P","N","M","1","2","1","other","moral","match","0.7262","N","1"
"2027","20","male","R","Tra","C","S","P","N","M","1","2","2","self","moral","nonmatch","1.0440",NA,"-1"
"2027","20","male","R","Tra","C","S","P","N","M","1","2","3","self","immoral","match","0.5886","N","1"
"2027","20","male","R","Tra","C","S","P","N","M","1","2","4","self","immoral","nonmatch","0.6844","M","1"
"2027","20","male","R","Tra","C","S","P","N","M","1","2","5","other","immoral","match","0.7230","N","1"
"2027","20","male","R","Tra","C","S","P","N","M","1","2","6","other","immoral","nonmatch","0.6828","M","1"
"2027","20","male","R","Tra","C","S","P","N","M","1","2","7","other","moral","match","0.6574","N","1"
"2027","20","male","R","Tra","C","S","P","N","M","1","2","8","other","immoral","nonmatch","0.5931","M","1"
"2027","20","male","R","Tra","C","S","P","N","M","1","2","9","self","immoral","nonmatch","0.6797","M","1"
"2027","20","male","R","Tra","C","S","P","N","M","1","2","10","other","moral","nonmatch","0.7435","M","1"
"2027","20","male","R","Tra","C","S","P","N","M","1","2","11","self","moral","match","0.6860","N","1"
"2027","20","male","R","Tra","C","S","P","N","M","1","2","12","self","moral","match","0.6139","M","0"
"2027","20","male","R","Tra","C","S","P","N","M","1","2","13","other","immoral","nonmatch","0.9403","M","1"
"2027","20","male","R","Tra","C","S","P","N","M","1","2","14","self","immoral","match","0.6202","N","1"
"2027","20","male","R","Tra","C","S","P","N","M","1","2","15","other","moral","nonmatch","0.8748","M","1"
"2027","20","male","R","Tra","C","S","P","N","M","1","2","16","self","moral","nonmatch","0.7626","M","1"
"2027","20","male","R","Tra","C","S","P","N","M","1","2","17","self","immoral","nonmatch","0.6891","M","1"
