"Date","Subject","Age","Sex","Hand","Block","Bin","Trial","Task","Shape","corrResp","Resp","ACC","RT","Morality","Identity"
"02-May-2018_14:36:40",7302,22,"female","R",1,1,1,"Id","immoralOther","J",NA,-1,1.042,"Bad","Other"
"02-May-2018_14:36:42",7302,22,"female","R",1,1,2,"Id","moralSelf","H","h",1,0.7564,"Good","Self"
"02-May-2018_14:36:44",7302,22,"female","R",1,1,3,"Id","immoralSelf","H","h",1,0.4825,"Bad","Self"
"02-May-2018_14:36:46",7302,22,"female","R",1,1,4,"Id","moralSelf","H","h",1,0.5446,"Good","Self"
"02-May-2018_14:36:47",7302,22,"female","R",1,1,5,"Id","moralOther","J","j",1,0.5028,"Good","Other"
"02-May-2018_14:36:49",7302,22,"female","R",1,1,6,"Id","moralSelf","H","h",1,0.5228,"Good","Self"
"02-May-2018_14:36:51",7302,22,"female","R",1,1,7,"Id","immoralSelf","H","h",1,0.4969,"Bad","Self"
"02-May-2018_14:36:53",7302,22,"female","R",1,1,8,"Id","moralOther","J","j",1,0.511,"Good","Other"
"02-May-2018_14:36:54",7302,22,"female","R",1,1,9,"Id","immoralSelf","H","h",1,0.5591,"Bad","Self"
"02-May-2018_14:36:56",7302,22,"female","R",1,1,10,"Id","immoralOther","J","j",1,0.7311,"Bad","Other"
"02-May-2018_14:36:58",7302,22,"female","R",1,1,11,"Id","immoralSelf","H","h",1,0.3893,"Bad","Self"
"02-May-2018_14:37:00",7302,22,"female","R",1,1,12,"Id","moralSelf","H","h",1,0.5154,"Good","Self"
"02-May-2018_14:37:01",7302,22,"female","R",1,1,13,"Id","immoralOther","J","j",1,0.4794,"Bad","Other"
"02-May-2018_14:37:03",7302,22,"female","R",1,1,14,"Id","immoralSelf","H","h",1,0.5855,"Bad","Self"
"02-May-2018_14:37:05",7302,22,"female","R",1,1,15,"Id","moralOther","J","j",1,0.5497,"Good","Other"
"02-May-2018_14:37:06",7302,22,"female","R",1,1,16,"Id","moralOther","J","j",1,0.5497,"Good","Other"
"02-May-2018_14:37:08",7302,22,"female","R",1,1,17,"Id","immoralOther","J","j",1,0.6759,"Bad","Other"
"02-May-2018_14:37:10",7302,22,"female","R",1,1,18,"Id","immoralOther","J","j",1,0.4919,"Bad","Other"
"02-May-2018_14:37:12",7302,22,"female","R",1,1,19,"Id","moralOther","J","j",1,0.6541,"Good","Other"
"02-May-2018_14:37:13",7302,22,"female","R",1,1,20,"Id","immoralSelf","H","h",1,0.4502,"Bad","Self"
"02-May-2018_14:37:15",7302,22,"female","R",1,1,21,"Id","immoralOther","J","j",1,0.6642,"Bad","Other"
"02-May-2018_14:37:17",7302,22,"female","R",1,1,22,"Id","moralSelf","H","h",1,0.5624,"Good","Self"
"02-May-2018_14:37:18",7302,22,"female","R",1,1,23,"Id","moralOther","J","j",1,0.5085,"Good","Other"
"02-May-2018_14:37:20",7302,22,"female","R",1,1,24,"Id","moralSelf","H","h",1,0.5865,"Good","Self"
"02-May-2018_14:37:22",7302,22,"female","R",1,2,1,"Id","immoralSelf","H","h",1,0.5226,"Bad","Self"
"02-May-2018_14:37:24",7302,22,"female","R",1,2,2,"Id","moralOther","J","j",1,0.4527,"Good","Other"
"02-May-2018_14:37:25",7302,22,"female","R",1,2,3,"Id","immoralOther","J","j",1,0.5529,"Bad","Other"
"02-May-2018_14:37:27",7302,22,"female","R",1,2,4,"Id","immoralSelf","H","h",1,0.5409,"Bad","Self"
"02-May-2018_14:37:29",7302,22,"female","R",1,2,5,"Id","immoralSelf","H","h",1,0.4971,"Bad","Self"
"02-May-2018_14:37:31",7302,22,"female","R",1,2,6,"Id","moralSelf","H","h",1,0.4752,"Good","Self"
"02-May-2018_14:37:32",7302,22,"female","R",1,2,7,"Id","immoralOther","J","j",1,0.4592,"Bad","Other"
"02-May-2018_14:37:34",7302,22,"female","R",1,2,8,"Id","moralSelf","H","h",1,0.5934,"Good","Self"
"02-May-2018_14:37:36",7302,22,"female","R",1,2,9,"Id","immoralSelf","H","h",1,0.4073,"Bad","Self"
"02-May-2018_14:37:37",7302,22,"female","R",1,2,10,"Id","moralOther","J","j",1,0.4296,"Good","Other"
"02-May-2018_14:37:39",7302,22,"female","R",1,2,11,"Id","moralOther","J","j",1,0.4777,"Good","Other"
"02-May-2018_14:37:41",7302,22,"female","R",1,2,12,"Id","immoralOther","J","j",1,0.5138,"Bad","Other"
"02-May-2018_14:37:42",7302,22,"female","R",1,2,13,"Id","immoralSelf","H","h",1,0.5039,"Bad","Self"
"02-May-2018_14:37:44",7302,22,"female","R",1,2,14,"Id","immoralOther","J","j",1,0.5119,"Bad","Other"
"02-May-2018_14:37:46",7302,22,"female","R",1,2,15,"Id","moralOther","J","j",1,0.544,"Good","Other"
"02-May-2018_14:37:47",7302,22,"female","R",1,2,16,"Id","moralOther","J","j",1,0.5721,"Good","Other"
"02-May-2018_14:37:49",7302,22,"female","R",1,2,17,"Id","moralSelf","H","h",1,0.4822,"Good","Self"
"02-May-2018_14:37:51",7302,22,"female","R",1,2,18,"Id","moralSelf","H","h",1,0.5362,"Good","Self"
"02-May-2018_14:37:52",7302,22,"female","R",1,2,19,"Id","immoralOther","J","j",1,0.5924,"Bad","Other"
"02-May-2018_14:37:54",7302,22,"female","R",1,2,20,"Id","moralSelf","H","j",0,0.4425,"Good","Self"
"02-May-2018_14:37:56",7302,22,"female","R",1,2,21,"Id","immoralSelf","H","h",1,0.5465,"Bad","Self"
"02-May-2018_14:37:57",7302,22,"female","R",1,2,22,"Id","moralSelf","H","h",1,0.3867,"Good","Self"
"02-May-2018_14:37:59",7302,22,"female","R",1,2,23,"Id","moralOther","J","j",1,0.5848,"Good","Other"
"02-May-2018_14:38:01",7302,22,"female","R",1,2,24,"Id","immoralOther","J","j",1,0.5288,"Bad","Other"
"02-May-2018_14:38:10",7302,22,"female","R",1,3,1,"Id","moralOther","J","j",1,0.5494,"Good","Other"
"02-May-2018_14:38:12",7302,22,"female","R",1,3,2,"Id","immoralSelf","H","h",1,0.4995,"Bad","Self"
"02-May-2018_14:38:13",7302,22,"female","R",1,3,3,"Id","immoralOther","J","j",1,0.4736,"Bad","Other"
"02-May-2018_14:38:15",7302,22,"female","R",1,3,4,"Id","immoralSelf","H","h",1,0.5517,"Bad","Self"
"02-May-2018_14:38:16",7302,22,"female","R",1,3,5,"Id","immoralSelf","H","h",1,0.5218,"Bad","Self"
"02-May-2018_14:38:18",7302,22,"female","R",1,3,6,"Id","moralOther","J","j",1,0.4798,"Good","Other"
"02-May-2018_14:38:20",7302,22,"female","R",1,3,7,"Id","moralOther","J","j",1,0.46,"Good","Other"
"02-May-2018_14:38:22",7302,22,"female","R",1,3,8,"Id","immoralSelf","H","h",1,0.448,"Bad","Self"
"02-May-2018_14:38:24",7302,22,"female","R",1,3,9,"Id","moralOther","J","j",1,0.5002,"Good","Other"
"02-May-2018_14:38:25",7302,22,"female","R",1,3,10,"Id","immoralOther","J","j",1,0.5102,"Bad","Other"
"02-May-2018_14:38:27",7302,22,"female","R",1,3,11,"Id","moralSelf","H","h",1,0.5463,"Good","Self"
"02-May-2018_14:38:29",7302,22,"female","R",1,3,12,"Id","moralSelf","H","h",1,0.4104,"Good","Self"
"02-May-2018_14:38:31",7302,22,"female","R",1,3,13,"Id","moralSelf","H","h",1,0.3506,"Good","Self"
"02-May-2018_14:38:32",7302,22,"female","R",1,3,14,"Id","immoralSelf","H","h",1,0.2767,"Bad","Self"
"02-May-2018_14:38:34",7302,22,"female","R",1,3,15,"Id","immoralOther","J","j",1,0.4707,"Bad","Other"
"02-May-2018_14:38:35",7302,22,"female","R",1,3,16,"Id","moralOther","J","j",1,0.4888,"Good","Other"
"02-May-2018_14:38:37",7302,22,"female","R",1,3,17,"Id","immoralOther","J","j",1,0.5189,"Bad","Other"
"02-May-2018_14:38:39",7302,22,"female","R",1,3,18,"Id","moralSelf","H","h",1,0.4771,"Good","Self"
"02-May-2018_14:38:41",7302,22,"female","R",1,3,19,"Id","moralOther","J","j",1,0.4451,"Good","Other"
"02-May-2018_14:38:43",7302,22,"female","R",1,3,20,"Id","immoralOther","J","j",1,0.4752,"Bad","Other"
"02-May-2018_14:38:44",7302,22,"female","R",1,3,21,"Id","moralSelf","H","h",1,0.4173,"Good","Self"
"02-May-2018_14:38:46",7302,22,"female","R",1,3,22,"Id","immoralSelf","H","h",1,0.4274,"Bad","Self"
"02-May-2018_14:38:47",7302,22,"female","R",1,3,23,"Id","moralSelf","H","h",1,0.4475,"Good","Self"
"02-May-2018_14:38:49",7302,22,"female","R",1,3,24,"Id","immoralOther","J","j",1,0.5176,"Bad","Other"
"02-May-2018_14:38:51",7302,22,"female","R",1,4,1,"Id","moralSelf","H","j",0,0.3298,"Good","Self"
"02-May-2018_14:38:53",7302,22,"female","R",1,4,2,"Id","immoralSelf","H","h",1,0.3738,"Bad","Self"
"02-May-2018_14:38:54",7302,22,"female","R",1,4,3,"Id","immoralOther","J","j",1,0.4418,"Bad","Other"
"02-May-2018_14:38:56",7302,22,"female","R",1,4,4,"Id","moralOther","J","j",1,0.566,"Good","Other"
"02-May-2018_14:38:57",7302,22,"female","R",1,4,5,"Id","immoralSelf","H","h",1,0.448,"Bad","Self"
"02-May-2018_14:38:59",7302,22,"female","R",1,4,6,"Id","moralSelf","H","h",1,0.4482,"Good","Self"
"02-May-2018_14:39:00",7302,22,"female","R",1,4,7,"Id","moralOther","J","j",1,0.5123,"Good","Other"
"02-May-2018_14:39:02",7302,22,"female","R",1,4,8,"Id","immoralSelf","H","h",1,0.4923,"Bad","Self"
"02-May-2018_14:39:04",7302,22,"female","R",1,4,9,"Id","moralSelf","H","h",1,0.5344,"Good","Self"
"02-May-2018_14:39:05",7302,22,"female","R",1,4,10,"Id","immoralOther","J","j",1,0.5065,"Bad","Other"
"02-May-2018_14:39:07",7302,22,"female","R",1,4,11,"Id","moralOther","J","j",1,0.6206,"Good","Other"
"02-May-2018_14:39:09",7302,22,"female","R",1,4,12,"Id","immoralSelf","H","h",1,0.5006,"Bad","Self"
"02-May-2018_14:39:10",7302,22,"female","R",1,4,13,"Id","immoralOther","J","j",1,0.4807,"Bad","Other"
"02-May-2018_14:39:12",7302,22,"female","R",1,4,14,"Id","moralOther","J","j",1,0.553,"Good","Other"
"02-May-2018_14:39:14",7302,22,"female","R",1,4,15,"Id","immoralOther","J","j",1,0.625,"Bad","Other"
"02-May-2018_14:39:16",7302,22,"female","R",1,4,16,"Id","moralOther","J","j",1,0.4511,"Good","Other"
"02-May-2018_14:39:17",7302,22,"female","R",1,4,17,"Id","moralOther","J","j",1,0.4152,"Good","Other"
"02-May-2018_14:39:19",7302,22,"female","R",1,4,18,"Id","immoralOther","J","j",1,0.5752,"Bad","Other"
"02-May-2018_14:39:21",7302,22,"female","R",1,4,19,"Id","moralSelf","H","h",1,0.6014,"Good","Self"
"02-May-2018_14:39:23",7302,22,"female","R",1,4,20,"Id","moralSelf","H","h",1,0.3695,"Good","Self"
"02-May-2018_14:39:24",7302,22,"female","R",1,4,21,"Id","immoralOther","J","j",1,0.4697,"Bad","Other"
"02-May-2018_14:39:26",7302,22,"female","R",1,4,22,"Id","immoralSelf","H","h",1,0.4776,"Bad","Self"
"02-May-2018_14:39:28",7302,22,"female","R",1,4,23,"Id","immoralSelf","H","h",1,0.5378,"Bad","Self"
"02-May-2018_14:39:29",7302,22,"female","R",1,4,24,"Id","moralSelf","H","h",1,0.5338,"Good","Self"
"02-May-2018_14:39:38",7302,22,"female","R",1,5,1,"Id","immoralOther","J","j",1,0.7863,"Bad","Other"
"02-May-2018_14:39:40",7302,22,"female","R",1,5,2,"Id","moralOther","J","j",1,0.4725,"Good","Other"
"02-May-2018_14:39:42",7302,22,"female","R",1,5,3,"Id","moralSelf","H","h",1,0.5505,"Good","Self"
"02-May-2018_14:39:44",7302,22,"female","R",1,5,4,"Id","immoralOther","J","j",1,0.4787,"Bad","Other"
"02-May-2018_14:39:45",7302,22,"female","R",1,5,5,"Id","moralSelf","H","h",1,0.4889,"Good","Self"
"02-May-2018_14:39:47",7302,22,"female","R",1,5,6,"Id","immoralOther","J","j",1,0.4748,"Bad","Other"
"02-May-2018_14:39:49",7302,22,"female","R",1,5,7,"Id","moralSelf","H","h",1,0.409,"Good","Self"
"02-May-2018_14:39:51",7302,22,"female","R",1,5,8,"Id","immoralSelf","H","h",1,0.5392,"Bad","Self"
"02-May-2018_14:39:52",7302,22,"female","R",1,5,9,"Id","moralOther","J","j",1,0.4352,"Good","Other"
"02-May-2018_14:39:54",7302,22,"female","R",1,5,10,"Id","moralSelf","H","h",1,0.3932,"Good","Self"
"02-May-2018_14:39:56",7302,22,"female","R",1,5,11,"Id","moralOther","J","j",1,0.4934,"Good","Other"
"02-May-2018_14:39:57",7302,22,"female","R",1,5,12,"Id","immoralSelf","H","h",1,0.4075,"Bad","Self"
"02-May-2018_14:39:59",7302,22,"female","R",1,5,13,"Id","immoralOther","J","j",1,0.4715,"Bad","Other"
"02-May-2018_14:40:00",7302,22,"female","R",1,5,14,"Id","moralSelf","H","h",1,0.4517,"Good","Self"
"02-May-2018_14:40:02",7302,22,"female","R",1,5,15,"Id","moralOther","J","j",1,0.4656,"Good","Other"
"02-May-2018_14:40:04",7302,22,"female","R",1,5,16,"Id","immoralSelf","H","h",1,0.4178,"Bad","Self"
"02-May-2018_14:40:05",7302,22,"female","R",1,5,17,"Id","immoralOther","J","j",1,0.4519,"Bad","Other"
"02-May-2018_14:40:07",7302,22,"female","R",1,5,18,"Id","immoralSelf","H","h",1,0.4261,"Bad","Self"
"02-May-2018_14:40:09",7302,22,"female","R",1,5,19,"Id","moralOther","J","j",1,0.4941,"Good","Other"
"02-May-2018_14:40:10",7302,22,"female","R",1,5,20,"Id","immoralSelf","H","h",1,0.4662,"Bad","Self"
"02-May-2018_14:40:12",7302,22,"female","R",1,5,21,"Id","immoralSelf","H","h",1,0.4422,"Bad","Self"
"02-May-2018_14:40:14",7302,22,"female","R",1,5,22,"Id","moralSelf","H","h",1,0.5004,"Good","Self"
"02-May-2018_14:40:15",7302,22,"female","R",1,5,23,"Id","immoralOther","J","j",1,0.3666,"Bad","Other"
"02-May-2018_14:40:17",7302,22,"female","R",1,5,24,"Id","moralOther","J","j",1,0.5646,"Good","Other"
"02-May-2018_14:42:41",7302,22,"female","R",2,1,1,"Val","immoralOther","Y",NA,-1,1.042,"Bad","Other"
"02-May-2018_14:42:44",7302,22,"female","R",2,1,2,"Val","immoralOther","Y","y",1,0.9028,"Bad","Other"
"02-May-2018_14:42:46",7302,22,"female","R",2,1,3,"Val","moralSelf","U",NA,-1,1.042,"Good","Self"
"02-May-2018_14:42:47",7302,22,"female","R",2,1,4,"Val","immoralSelf","Y","y",1,0.6451,"Bad","Self"
"02-May-2018_14:42:49",7302,22,"female","R",2,1,5,"Val","moralOther","U","u",1,0.7132,"Good","Other"
"02-May-2018_14:42:51",7302,22,"female","R",2,1,6,"Val","moralSelf","U","u",1,0.7113,"Good","Self"
"02-May-2018_14:42:53",7302,22,"female","R",2,1,7,"Val","immoralSelf","Y","y",1,0.5834,"Bad","Self"
"02-May-2018_14:42:55",7302,22,"female","R",2,1,8,"Val","moralOther","U","u",1,0.9535,"Good","Other"
"02-May-2018_14:42:56",7302,22,"female","R",2,1,9,"Val","moralSelf","U","u",1,0.5477,"Good","Self"
"02-May-2018_14:42:58",7302,22,"female","R",2,1,10,"Val","immoralOther","Y","y",1,0.5997,"Bad","Other"
"02-May-2018_14:43:00",7302,22,"female","R",2,1,11,"Val","moralOther","U","u",1,0.5599,"Good","Other"
"02-May-2018_14:43:01",7302,22,"female","R",2,1,12,"Val","immoralOther","Y","y",1,0.6099,"Bad","Other"
"02-May-2018_14:43:03",7302,22,"female","R",2,1,13,"Val","moralOther","U","u",1,0.582,"Good","Other"
"02-May-2018_14:43:05",7302,22,"female","R",2,1,14,"Val","immoralOther","Y","y",1,0.6081,"Bad","Other"
"02-May-2018_14:43:07",7302,22,"female","R",2,1,15,"Val","moralSelf","U","u",1,0.7001,"Good","Self"
"02-May-2018_14:43:09",7302,22,"female","R",2,1,16,"Val","immoralOther","Y","y",1,0.5102,"Bad","Other"
"02-May-2018_14:43:10",7302,22,"female","R",2,1,17,"Val","moralOther","U","u",1,0.4804,"Good","Other"
"02-May-2018_14:43:12",7302,22,"female","R",2,1,18,"Val","immoralSelf","Y","y",1,0.4126,"Bad","Self"
"02-May-2018_14:43:14",7302,22,"female","R",2,1,19,"Val","moralOther","U","u",1,0.6327,"Good","Other"
"02-May-2018_14:43:16",7302,22,"female","R",2,1,20,"Val","immoralSelf","Y","y",1,0.6707,"Bad","Self"
"02-May-2018_14:43:17",7302,22,"female","R",2,1,21,"Val","immoralSelf","Y","y",1,0.4908,"Bad","Self"
"02-May-2018_14:43:19",7302,22,"female","R",2,1,22,"Val","moralSelf","U","u",1,0.6928,"Good","Self"
"02-May-2018_14:43:20",7302,22,"female","R",2,1,23,"Val","moralSelf","U","u",1,0.393,"Good","Self"
"02-May-2018_14:43:22",7302,22,"female","R",2,1,24,"Val","immoralSelf","Y","y",1,0.7211,"Bad","Self"
"02-May-2018_14:43:24",7302,22,"female","R",2,2,1,"Val","moralSelf","U","u",1,0.7611,"Good","Self"
"02-May-2018_14:43:26",7302,22,"female","R",2,2,2,"Val","moralOther","U","u",1,0.6772,"Good","Other"
"02-May-2018_14:43:28",7302,22,"female","R",2,2,3,"Val","moralOther","U","u",1,0.9413,"Good","Other"
"02-May-2018_14:43:30",7302,22,"female","R",2,2,4,"Val","immoralOther","Y","y",1,0.5655,"Bad","Other"
"02-May-2018_14:43:32",7302,22,"female","R",2,2,5,"Val","immoralOther","Y","y",1,0.6256,"Bad","Other"
"02-May-2018_14:43:34",7302,22,"female","R",2,2,6,"Val","immoralSelf","Y","y",1,0.4318,"Bad","Self"
"02-May-2018_14:43:35",7302,22,"female","R",2,2,7,"Val","moralOther","U","u",1,0.4878,"Good","Other"
"02-May-2018_14:43:37",7302,22,"female","R",2,2,8,"Val","immoralOther","Y","y",1,0.51,"Bad","Other"
"02-May-2018_14:43:39",7302,22,"female","R",2,2,9,"Val","moralSelf","U","u",1,0.594,"Good","Self"
"02-May-2018_14:43:40",7302,22,"female","R",2,2,10,"Val","immoralSelf","Y","y",1,0.4722,"Bad","Self"
"02-May-2018_14:43:42",7302,22,"female","R",2,2,11,"Val","moralOther","U","u",1,0.4682,"Good","Other"
"02-May-2018_14:43:44",7302,22,"female","R",2,2,12,"Val","moralSelf","U","u",1,0.8362,"Good","Self"
"02-May-2018_14:43:46",7302,22,"female","R",2,2,13,"Val","moralSelf","U","u",1,0.4284,"Good","Self"
"02-May-2018_14:43:48",7302,22,"female","R",2,2,14,"Val","immoralSelf","Y","y",1,0.5245,"Bad","Self"
"02-May-2018_14:43:49",7302,22,"female","R",2,2,15,"Val","immoralOther","Y","y",1,0.5426,"Bad","Other"
"02-May-2018_14:43:51",7302,22,"female","R",2,2,16,"Val","moralSelf","U","y",0,0.4307,"Good","Self"
"02-May-2018_14:43:52",7302,22,"female","R",2,2,17,"Val","moralOther","U","u",1,0.5309,"Good","Other"
"02-May-2018_14:43:54",7302,22,"female","R",2,2,18,"Val","immoralSelf","Y","y",1,0.6728,"Bad","Self"
"02-May-2018_14:43:56",7302,22,"female","R",2,2,19,"Val","immoralOther","Y","y",1,0.519,"Bad","Other"
"02-May-2018_14:43:58",7302,22,"female","R",2,2,20,"Val","immoralSelf","Y","y",1,0.6325,"Bad","Self"
"02-May-2018_14:44:00",7302,22,"female","R",2,2,21,"Val","moralSelf","U","u",1,0.6371,"Good","Self"
"02-May-2018_14:44:01",7302,22,"female","R",2,2,22,"Val","immoralSelf","Y","y",1,0.6353,"Bad","Self"
"02-May-2018_14:44:03",7302,22,"female","R",2,2,23,"Val","moralOther","U","u",1,0.4814,"Good","Other"
"02-May-2018_14:44:05",7302,22,"female","R",2,2,24,"Val","immoralOther","Y","y",1,0.5096,"Bad","Other"
"02-May-2018_14:44:13",7302,22,"female","R",2,3,1,"Val","moralOther","U","u",1,0.492,"Good","Other"
"02-May-2018_14:44:15",7302,22,"female","R",2,3,2,"Val","immoralSelf","Y","y",1,0.4921,"Bad","Self"
"02-May-2018_14:44:16",7302,22,"female","R",2,3,3,"Val","immoralOther","Y","y",1,0.5422,"Bad","Other"
"02-May-2018_14:44:18",7302,22,"female","R",2,3,4,"Val","moralSelf","U","u",1,0.5843,"Good","Self"
"02-May-2018_14:44:20",7302,22,"female","R",2,3,5,"Val","moralOther","U","u",1,0.5464,"Good","Other"
"02-May-2018_14:44:22",7302,22,"female","R",2,3,6,"Val","moralSelf","U","u",1,0.5506,"Good","Self"
"02-May-2018_14:44:23",7302,22,"female","R",2,3,7,"Val","immoralOther","Y","y",1,0.5145,"Bad","Other"
"02-May-2018_14:44:25",7302,22,"female","R",2,3,8,"Val","immoralOther","Y","y",1,0.4586,"Bad","Other"
"02-May-2018_14:44:26",7302,22,"female","R",2,3,9,"Val","moralOther","U","u",1,0.5327,"Good","Other"
"02-May-2018_14:44:28",7302,22,"female","R",2,3,10,"Val","immoralSelf","Y","y",1,0.5028,"Bad","Self"
"02-May-2018_14:44:30",7302,22,"female","R",2,3,11,"Val","moralSelf","U","u",1,0.6988,"Good","Self"
"02-May-2018_14:44:32",7302,22,"female","R",2,3,12,"Val","moralSelf","U","u",1,0.795,"Good","Self"
"02-May-2018_14:44:34",7302,22,"female","R",2,3,13,"Val","immoralOther","Y","y",1,0.541,"Bad","Other"
"02-May-2018_14:44:36",7302,22,"female","R",2,3,14,"Val","moralOther","U","u",1,0.4872,"Good","Other"
"02-May-2018_14:44:38",7302,22,"female","R",2,3,15,"Val","moralSelf","U","u",1,0.8774,"Good","Self"
"02-May-2018_14:44:40",7302,22,"female","R",2,3,16,"Val","immoralOther","Y","y",1,0.4735,"Bad","Other"
"02-May-2018_14:44:41",7302,22,"female","R",2,3,17,"Val","immoralSelf","Y","y",1,0.2896,"Bad","Self"
"02-May-2018_14:44:43",7302,22,"female","R",2,3,18,"Val","immoralSelf","Y","y",1,0.3256,"Bad","Self"
"02-May-2018_14:44:44",7302,22,"female","R",2,3,19,"Val","moralOther","U","u",1,0.4817,"Good","Other"
"02-May-2018_14:44:46",7302,22,"female","R",2,3,20,"Val","immoralSelf","Y","y",1,0.4878,"Bad","Self"
"02-May-2018_14:44:48",7302,22,"female","R",2,3,21,"Val","moralSelf","U","u",1,0.5719,"Good","Self"
"02-May-2018_14:44:49",7302,22,"female","R",2,3,22,"Val","immoralOther","Y","y",1,0.446,"Bad","Other"
"02-May-2018_14:44:51",7302,22,"female","R",2,3,23,"Val","immoralSelf","Y","y",1,0.4301,"Bad","Self"
"02-May-2018_14:44:52",7302,22,"female","R",2,3,24,"Val","moralOther","U","u",1,0.4382,"Good","Other"
"02-May-2018_14:44:54",7302,22,"female","R",2,4,1,"Val","immoralOther","Y","y",1,0.4203,"Bad","Other"
"02-May-2018_14:44:56",7302,22,"female","R",2,4,2,"Val","immoralSelf","Y","y",1,0.4366,"Bad","Self"
"02-May-2018_14:44:58",7302,22,"female","R",2,4,3,"Val","moralSelf","U","u",1,0.7525,"Good","Self"
"02-May-2018_14:44:59",7302,22,"female","R",2,4,4,"Val","moralSelf","U","u",1,0.4706,"Good","Self"
"02-May-2018_14:45:01",7302,22,"female","R",2,4,5,"Val","moralSelf","U","u",1,0.3646,"Good","Self"
"02-May-2018_14:45:02",7302,22,"female","R",2,4,6,"Val","immoralSelf","Y","y",1,0.4867,"Bad","Self"
"02-May-2018_14:45:04",7302,22,"female","R",2,4,7,"Val","immoralOther","Y","y",1,0.5749,"Bad","Other"
"02-May-2018_14:45:06",7302,22,"female","R",2,4,8,"Val","immoralOther","Y","y",1,0.4013,"Bad","Other"
"02-May-2018_14:45:07",7302,22,"female","R",2,4,9,"Val","moralOther","U","u",1,0.4593,"Good","Other"
"02-May-2018_14:45:09",7302,22,"female","R",2,4,10,"Val","immoralSelf","Y","y",1,0.4811,"Bad","Self"
"02-May-2018_14:45:10",7302,22,"female","R",2,4,11,"Val","moralOther","U","u",1,0.5752,"Good","Other"
"02-May-2018_14:45:12",7302,22,"female","R",2,4,12,"Val","immoralOther","Y","y",1,0.4953,"Bad","Other"
"02-May-2018_14:45:14",7302,22,"female","R",2,4,13,"Val","moralOther","U","u",1,0.4814,"Good","Other"
"02-May-2018_14:45:15",7302,22,"female","R",2,4,14,"Val","immoralOther","Y","y",1,0.4636,"Bad","Other"
"02-May-2018_14:45:17",7302,22,"female","R",2,4,15,"Val","moralOther","U","u",1,0.4496,"Good","Other"
"02-May-2018_14:45:18",7302,22,"female","R",2,4,16,"Val","immoralOther","Y","y",1,0.5037,"Bad","Other"
"02-May-2018_14:45:20",7302,22,"female","R",2,4,17,"Val","immoralSelf","Y","y",1,0.4177,"Bad","Self"
"02-May-2018_14:45:22",7302,22,"female","R",2,4,18,"Val","immoralSelf","Y","y",1,0.346,"Bad","Self"
"02-May-2018_14:45:23",7302,22,"female","R",2,4,19,"Val","moralSelf","U","u",1,0.4619,"Good","Self"
"02-May-2018_14:45:25",7302,22,"female","R",2,4,20,"Val","immoralSelf","Y","y",1,0.5741,"Bad","Self"
"02-May-2018_14:45:26",7302,22,"female","R",2,4,21,"Val","moralOther","U","u",1,0.4221,"Good","Other"
"02-May-2018_14:45:28",7302,22,"female","R",2,4,22,"Val","moralSelf","U","y",0,0.4162,"Good","Self"
"02-May-2018_14:45:30",7302,22,"female","R",2,4,23,"Val","moralOther","U","u",1,0.5123,"Good","Other"
"02-May-2018_14:45:31",7302,22,"female","R",2,4,24,"Val","moralSelf","U","u",1,0.4423,"Good","Self"
"02-May-2018_14:45:37",7302,22,"female","R",2,5,1,"Val","immoralOther","Y","y",1,0.6407,"Bad","Other"
"02-May-2018_14:45:39",7302,22,"female","R",2,5,2,"Val","immoralOther","Y","y",1,0.3928,"Bad","Other"
"02-May-2018_14:45:41",7302,22,"female","R",2,5,3,"Val","moralOther","U","u",1,0.5029,"Good","Other"
"02-May-2018_14:45:42",7302,22,"female","R",2,5,4,"Val","moralSelf","U","u",1,0.495,"Good","Self"
"02-May-2018_14:45:44",7302,22,"female","R",2,5,5,"Val","immoralSelf","Y","y",1,0.463,"Bad","Self"
"02-May-2018_14:45:46",7302,22,"female","R",2,5,6,"Val","immoralSelf","Y","y",1,0.3433,"Bad","Self"
"02-May-2018_14:45:47",7302,22,"female","R",2,5,7,"Val","immoralSelf","Y","y",1,0.3433,"Bad","Self"
"02-May-2018_14:45:49",7302,22,"female","R",2,5,8,"Val","moralSelf","U","y",0,0.4774,"Good","Self"
"02-May-2018_14:45:51",7302,22,"female","R",2,5,9,"Val","moralSelf","U","u",1,0.5095,"Good","Self"
"02-May-2018_14:45:52",7302,22,"female","R",2,5,10,"Val","moralSelf","U","u",1,0.3456,"Good","Self"
"02-May-2018_14:45:53",7302,22,"female","R",2,5,11,"Val","moralSelf","U","u",1,0.3156,"Good","Self"
"02-May-2018_14:45:55",7302,22,"female","R",2,5,12,"Val","immoralOther","Y","y",1,0.5297,"Bad","Other"
"02-May-2018_14:45:57",7302,22,"female","R",2,5,13,"Val","moralSelf","U","u",1,0.5879,"Good","Self"
"02-May-2018_14:45:59",7302,22,"female","R",2,5,14,"Val","immoralOther","Y","y",1,0.776,"Bad","Other"
"02-May-2018_14:46:01",7302,22,"female","R",2,5,15,"Val","immoralSelf","Y","y",1,0.5681,"Bad","Self"
"02-May-2018_14:46:03",7302,22,"female","R",2,5,16,"Val","immoralSelf","Y","y",1,0.5582,"Bad","Self"
"02-May-2018_14:46:05",7302,22,"female","R",2,5,17,"Val","moralOther","U","u",1,0.5963,"Good","Other"
"02-May-2018_14:46:07",7302,22,"female","R",2,5,18,"Val","moralOther","U","u",1,0.5204,"Good","Other"
"02-May-2018_14:46:08",7302,22,"female","R",2,5,19,"Val","moralOther","U","u",1,0.4145,"Good","Other"
"02-May-2018_14:46:10",7302,22,"female","R",2,5,20,"Val","immoralSelf","Y","y",1,0.469,"Bad","Self"
"02-May-2018_14:46:12",7302,22,"female","R",2,5,21,"Val","immoralOther","Y","y",1,0.5488,"Bad","Other"
"02-May-2018_14:46:13",7302,22,"female","R",2,5,22,"Val","moralOther","U","u",1,0.5268,"Good","Other"
"02-May-2018_14:46:15",7302,22,"female","R",2,5,23,"Val","immoralOther","Y","y",1,0.4749,"Bad","Other"
"02-May-2018_14:46:17",7302,22,"female","R",2,5,24,"Val","moralOther","U","u",1,0.421,"Good","Other"
"02-May-2018_14:48:28",7302,22,"female","R",3,1,1,"Id","immoralOther","J","j",1,0.5544,"Bad","Other"
"02-May-2018_14:48:30",7302,22,"female","R",3,1,2,"Id","immoralSelf","H","h",1,0.5446,"Bad","Self"
"02-May-2018_14:48:32",7302,22,"female","R",3,1,3,"Id","moralSelf","H","h",1,0.5047,"Good","Self"
"02-May-2018_14:48:34",7302,22,"female","R",3,1,4,"Id","moralSelf","H","h",1,0.4168,"Good","Self"
"02-May-2018_14:48:35",7302,22,"female","R",3,1,5,"Id","immoralOther","J","j",1,0.5828,"Bad","Other"
"02-May-2018_14:48:37",7302,22,"female","R",3,1,6,"Id","moralOther","J","j",1,0.7169,"Good","Other"
"02-May-2018_14:48:39",7302,22,"female","R",3,1,7,"Id","moralSelf","H","h",1,0.389,"Good","Self"
"02-May-2018_14:48:40",7302,22,"female","R",3,1,8,"Id","immoralSelf","H","h",1,0.3731,"Bad","Self"
"02-May-2018_14:48:42",7302,22,"female","R",3,1,9,"Id","immoralSelf","H","h",1,0.5173,"Bad","Self"
"02-May-2018_14:48:43",7302,22,"female","R",3,1,10,"Id","immoralSelf","H","h",1,0.4173,"Bad","Self"
"02-May-2018_14:48:45",7302,22,"female","R",3,1,11,"Id","moralOther","J","j",1,0.4594,"Good","Other"
"02-May-2018_14:48:47",7302,22,"female","R",3,1,12,"Id","moralSelf","H","h",1,0.6075,"Good","Self"
"02-May-2018_14:48:48",7302,22,"female","R",3,1,13,"Id","moralSelf","H","h",1,0.4556,"Good","Self"
"02-May-2018_14:48:50",7302,22,"female","R",3,1,14,"Id","moralSelf","H","h",1,0.3377,"Good","Self"
"02-May-2018_14:48:51",7302,22,"female","R",3,1,15,"Id","immoralOther","J","j",1,0.5637,"Bad","Other"
"02-May-2018_14:48:53",7302,22,"female","R",3,1,16,"Id","immoralOther","J","j",1,0.3939,"Bad","Other"
"02-May-2018_14:48:54",7302,22,"female","R",3,1,17,"Id","immoralOther","J","j",1,0.3219,"Bad","Other"
"02-May-2018_14:48:56",7302,22,"female","R",3,1,18,"Id","immoralSelf","H","h",1,0.5221,"Bad","Self"
"02-May-2018_14:48:58",7302,22,"female","R",3,1,19,"Id","moralOther","J","j",1,0.636,"Good","Other"
"02-May-2018_14:48:59",7302,22,"female","R",3,1,20,"Id","moralOther","J","j",1,0.8041,"Good","Other"
"02-May-2018_14:49:01",7302,22,"female","R",3,1,21,"Id","moralOther","J","j",1,0.4083,"Good","Other"
"02-May-2018_14:49:02",7302,22,"female","R",3,1,22,"Id","immoralSelf","H","h",1,0.4984,"Bad","Self"
"02-May-2018_14:49:04",7302,22,"female","R",3,1,23,"Id","moralOther","J","j",1,0.5884,"Good","Other"
"02-May-2018_14:49:06",7302,22,"female","R",3,1,24,"Id","immoralOther","J","j",1,0.6726,"Bad","Other"
"02-May-2018_14:49:08",7302,22,"female","R",3,2,1,"Id","immoralOther","J","j",1,0.5927,"Bad","Other"
"02-May-2018_14:49:10",7302,22,"female","R",3,2,2,"Id","moralOther","J","j",1,0.5567,"Good","Other"
"02-May-2018_14:49:12",7302,22,"female","R",3,2,3,"Id","immoralOther","J","j",1,0.455,"Bad","Other"
"02-May-2018_14:49:13",7302,22,"female","R",3,2,4,"Id","moralSelf","H","h",1,0.521,"Good","Self"
"02-May-2018_14:49:15",7302,22,"female","R",3,2,5,"Id","moralSelf","H","h",1,0.3711,"Good","Self"
"02-May-2018_14:49:16",7302,22,"female","R",3,2,6,"Id","immoralSelf","H","h",1,0.5032,"Bad","Self"
"02-May-2018_14:49:18",7302,22,"female","R",3,2,7,"Id","immoralSelf","H","h",1,0.5293,"Bad","Self"
"02-May-2018_14:49:20",7302,22,"female","R",3,2,8,"Id","moralOther","J","j",1,0.4233,"Good","Other"
"02-May-2018_14:49:21",7302,22,"female","R",3,2,9,"Id","immoralSelf","H","h",1,0.4774,"Bad","Self"
"02-May-2018_14:49:23",7302,22,"female","R",3,2,10,"Id","moralOther","J","j",1,0.4296,"Good","Other"
"02-May-2018_14:49:24",7302,22,"female","R",3,2,11,"Id","moralSelf","H","h",1,0.6057,"Good","Self"
"02-May-2018_14:49:26",7302,22,"female","R",3,2,12,"Id","immoralOther","J","j",1,0.4257,"Bad","Other"
"02-May-2018_14:49:28",7302,22,"female","R",3,2,13,"Id","immoralSelf","H","h",1,0.5858,"Bad","Self"
"02-May-2018_14:49:30",7302,22,"female","R",3,2,14,"Id","immoralSelf","H","h",1,0.4979,"Bad","Self"
"02-May-2018_14:49:31",7302,22,"female","R",3,2,15,"Id","moralSelf","H","h",1,0.51,"Good","Self"
"02-May-2018_14:49:33",7302,22,"female","R",3,2,16,"Id","immoralOther","J","j",1,0.5162,"Bad","Other"
"02-May-2018_14:49:35",7302,22,"female","R",3,2,17,"Id","immoralOther","J","j",1,0.4023,"Bad","Other"
"02-May-2018_14:49:36",7302,22,"female","R",3,2,18,"Id","immoralOther","J","j",1,0.4663,"Bad","Other"
"02-May-2018_14:49:38",7302,22,"female","R",3,2,19,"Id","moralSelf","H","h",1,0.5564,"Good","Self"
"02-May-2018_14:49:40",7302,22,"female","R",3,2,20,"Id","moralOther","J","j",1,0.5565,"Good","Other"
"02-May-2018_14:49:42",7302,22,"female","R",3,2,21,"Id","moralOther","J","j",1,0.5287,"Good","Other"
"02-May-2018_14:49:43",7302,22,"female","R",3,2,22,"Id","moralOther","J","j",1,0.5907,"Good","Other"
"02-May-2018_14:49:45",7302,22,"female","R",3,2,23,"Id","moralSelf","H","h",1,0.6848,"Good","Self"
"02-May-2018_14:49:47",7302,22,"female","R",3,2,24,"Id","immoralSelf","H","h",1,0.4529,"Bad","Self"
"02-May-2018_14:49:54",7302,22,"female","R",3,3,1,"Id","immoralSelf","H","h",1,0.5133,"Bad","Self"
"02-May-2018_14:49:56",7302,22,"female","R",3,3,2,"Id","moralOther","J","j",1,0.5574,"Good","Other"
"02-May-2018_14:49:57",7302,22,"female","R",3,3,3,"Id","immoralOther","J","j",1,0.4395,"Bad","Other"
"02-May-2018_14:49:59",7302,22,"female","R",3,3,4,"Id","moralSelf","H","h",1,0.5576,"Good","Self"
"02-May-2018_14:50:00",7302,22,"female","R",3,3,5,"Id","moralSelf","H","h",1,0.4037,"Good","Self"
"02-May-2018_14:50:02",7302,22,"female","R",3,3,6,"Id","immoralOther","J","j",1,0.4837,"Bad","Other"
"02-May-2018_14:50:04",7302,22,"female","R",3,3,7,"Id","moralOther","J","j",1,0.548,"Good","Other"
"02-May-2018_14:50:06",7302,22,"female","R",3,3,8,"Id","immoralOther","J","j",1,0.4079,"Bad","Other"
"02-May-2018_14:50:07",7302,22,"female","R",3,3,9,"Id","moralSelf","H","j",0,0.38,"Good","Self"
"02-May-2018_14:50:09",7302,22,"female","R",3,3,10,"Id","immoralSelf","H","h",1,0.5542,"Bad","Self"
"02-May-2018_14:50:11",7302,22,"female","R",3,3,11,"Id","immoralOther","J","j",1,0.4523,"Bad","Other"
"02-May-2018_14:50:13",7302,22,"female","R",3,3,12,"Id","immoralOther","J","j",1,0.5283,"Bad","Other"
"02-May-2018_14:50:14",7302,22,"female","R",3,3,13,"Id","moralOther","J","j",1,0.6005,"Good","Other"
"02-May-2018_14:50:16",7302,22,"female","R",3,3,14,"Id","immoralSelf","H","h",1,0.4705,"Bad","Self"
"02-May-2018_14:50:18",7302,22,"female","R",3,3,15,"Id","moralSelf","H","h",1,0.5766,"Good","Self"
"02-May-2018_14:50:20",7302,22,"female","R",3,3,16,"Id","moralOther","J","j",1,0.6147,"Good","Other"
"02-May-2018_14:50:22",7302,22,"female","R",3,3,17,"Id","immoralSelf","H","h",1,0.5188,"Bad","Self"
"02-May-2018_14:50:24",7302,22,"female","R",3,3,18,"Id","moralOther","J","j",1,0.595,"Good","Other"
"02-May-2018_14:50:25",7302,22,"female","R",3,3,19,"Id","moralSelf","H","h",1,0.531,"Good","Self"
"02-May-2018_14:50:27",7302,22,"female","R",3,3,20,"Id","moralSelf","H","h",1,0.3613,"Good","Self"
"02-May-2018_14:50:28",7302,22,"female","R",3,3,21,"Id","immoralSelf","H","h",1,0.5352,"Bad","Self"
"02-May-2018_14:50:30",7302,22,"female","R",3,3,22,"Id","immoralSelf","H","h",1,0.4453,"Bad","Self"
"02-May-2018_14:50:32",7302,22,"female","R",3,3,23,"Id","immoralOther","J","j",1,0.5094,"Bad","Other"
"02-May-2018_14:50:34",7302,22,"female","R",3,3,24,"Id","moralOther","J","j",1,0.5875,"Good","Other"
"02-May-2018_14:50:36",7302,22,"female","R",3,4,1,"Id","immoralOther","J","j",1,0.6337,"Bad","Other"
"02-May-2018_14:50:37",7302,22,"female","R",3,4,2,"Id","immoralOther","J","j",1,0.4657,"Bad","Other"
"02-May-2018_14:50:39",7302,22,"female","R",3,4,3,"Id","moralOther","J","j",1,0.6278,"Good","Other"
"02-May-2018_14:50:41",7302,22,"female","R",3,4,4,"Id","immoralSelf","H","h",1,0.4639,"Bad","Self"
"02-May-2018_14:50:43",7302,22,"female","R",3,4,5,"Id","immoralOther","J","j",1,0.486,"Bad","Other"
"02-May-2018_14:50:44",7302,22,"female","R",3,4,6,"Id","immoralSelf","H","h",1,0.4462,"Bad","Self"
"02-May-2018_14:50:46",7302,22,"female","R",3,4,7,"Id","moralSelf","H","h",1,0.4583,"Good","Self"
"02-May-2018_14:50:48",7302,22,"female","R",3,4,8,"Id","moralOther","J","j",1,0.9002,"Good","Other"
"02-May-2018_14:50:50",7302,22,"female","R",3,4,9,"Id","moralOther","J","j",1,0.5265,"Good","Other"
"02-May-2018_14:50:51",7302,22,"female","R",3,4,10,"Id","moralOther","J","j",1,0.3866,"Good","Other"
"02-May-2018_14:50:52",7302,22,"female","R",3,4,11,"Id","moralOther","J","j",1,0.3366,"Good","Other"
"02-May-2018_14:50:54",7302,22,"female","R",3,4,12,"Id","moralSelf","H","h",1,0.5167,"Good","Self"
"02-May-2018_14:50:56",7302,22,"female","R",3,4,13,"Id","moralOther","J","j",1,0.4429,"Good","Other"
"02-May-2018_14:50:58",7302,22,"female","R",3,4,14,"Id","moralSelf","H","h",1,0.3129,"Good","Self"
"02-May-2018_14:50:59",7302,22,"female","R",3,4,15,"Id","immoralOther","J","j",1,0.533,"Bad","Other"
"02-May-2018_14:51:01",7302,22,"female","R",3,4,16,"Id","immoralSelf","H","h",1,0.4751,"Bad","Self"
"02-May-2018_14:51:03",7302,22,"female","R",3,4,17,"Id","moralSelf","H","h",1,0.5172,"Good","Self"
"02-May-2018_14:51:04",7302,22,"female","R",3,4,18,"Id","immoralSelf","H","h",1,0.4293,"Bad","Self"
"02-May-2018_14:51:06",7302,22,"female","R",3,4,19,"Id","immoralOther","J","j",1,0.5634,"Bad","Other"
"02-May-2018_14:51:08",7302,22,"female","R",3,4,20,"Id","immoralOther","J","j",1,0.6294,"Bad","Other"
"02-May-2018_14:51:09",7302,22,"female","R",3,4,21,"Id","moralSelf","H","h",1,0.4976,"Good","Self"
"02-May-2018_14:51:11",7302,22,"female","R",3,4,22,"Id","immoralSelf","H","h",1,0.5196,"Bad","Self"
"02-May-2018_14:51:13",7302,22,"female","R",3,4,23,"Id","immoralSelf","H","h",1,0.5117,"Bad","Self"
"02-May-2018_14:51:14",7302,22,"female","R",3,4,24,"Id","moralSelf","H","h",1,0.4398,"Good","Self"
"02-May-2018_14:51:20",7302,22,"female","R",3,5,1,"Id","immoralOther","J","j",1,0.5022,"Bad","Other"
"02-May-2018_14:51:22",7302,22,"female","R",3,5,2,"Id","moralOther","J","j",1,0.5423,"Good","Other"
"02-May-2018_14:51:24",7302,22,"female","R",3,5,3,"Id","moralSelf","H","h",1,0.3884,"Good","Self"
"02-May-2018_14:51:25",7302,22,"female","R",3,5,4,"Id","moralOther","J","j",1,0.5965,"Good","Other"
"02-May-2018_14:51:26",7302,22,"female","R",3,5,5,"Id","immoralSelf","H","h",1,0.4026,"Bad","Self"
"02-May-2018_14:51:28",7302,22,"female","R",3,5,6,"Id","immoralOther","J","j",1,0.5487,"Bad","Other"
"02-May-2018_14:51:30",7302,22,"female","R",3,5,7,"Id","moralSelf","H","h",1,0.3908,"Good","Self"
"02-May-2018_14:51:32",7302,22,"female","R",3,5,8,"Id","immoralOther","J","j",1,0.5428,"Bad","Other"
"02-May-2018_14:51:34",7302,22,"female","R",3,5,9,"Id","immoralOther","J","j",1,0.561,"Bad","Other"
"02-May-2018_14:51:35",7302,22,"female","R",3,5,10,"Id","moralSelf","H","h",1,0.4291,"Good","Self"
"02-May-2018_14:51:37",7302,22,"female","R",3,5,11,"Id","immoralSelf","H","h",1,0.4832,"Bad","Self"
"02-May-2018_14:51:39",7302,22,"female","R",3,5,12,"Id","immoralSelf","H","h",1,0.4612,"Bad","Self"
"02-May-2018_14:51:40",7302,22,"female","R",3,5,13,"Id","immoralSelf","H","h",1,0.4693,"Bad","Self"
"02-May-2018_14:51:42",7302,22,"female","R",3,5,14,"Id","moralSelf","H","h",1,0.3975,"Good","Self"
"02-May-2018_14:51:44",7302,22,"female","R",3,5,15,"Id","moralOther","J","j",1,0.5176,"Good","Other"
"02-May-2018_14:51:45",7302,22,"female","R",3,5,16,"Id","moralOther","J","j",1,0.5456,"Good","Other"
"02-May-2018_14:51:47",7302,22,"female","R",3,5,17,"Id","immoralOther","J","j",1,0.5018,"Bad","Other"
"02-May-2018_14:51:49",7302,22,"female","R",3,5,18,"Id","moralOther","J","j",1,0.5558,"Good","Other"
"02-May-2018_14:51:50",7302,22,"female","R",3,5,19,"Id","immoralSelf","H","h",1,0.462,"Bad","Self"
"02-May-2018_14:51:52",7302,22,"female","R",3,5,20,"Id","immoralSelf","H","h",1,0.3281,"Bad","Self"
"02-May-2018_14:51:53",7302,22,"female","R",3,5,21,"Id","moralSelf","H","h",1,0.4121,"Good","Self"
"02-May-2018_14:51:55",7302,22,"female","R",3,5,22,"Id","immoralOther","J","j",1,0.5222,"Bad","Other"
"02-May-2018_14:51:56",7302,22,"female","R",3,5,23,"Id","moralOther","J","j",1,0.5183,"Good","Other"
"02-May-2018_14:51:58",7302,22,"female","R",3,5,24,"Id","moralSelf","H","h",1,0.4943,"Good","Self"
"02-May-2018_14:53:58",7302,22,"female","R",4,1,1,"Val","moralOther","U","u",1,0.5532,"Good","Other"
"02-May-2018_14:54:00",7302,22,"female","R",4,1,2,"Val","moralSelf","U","u",1,0.7432,"Good","Self"
"02-May-2018_14:54:02",7302,22,"female","R",4,1,3,"Val","immoralOther","Y","y",1,0.4775,"Bad","Other"
"02-May-2018_14:54:03",7302,22,"female","R",4,1,4,"Val","immoralSelf","Y","u",0,0.6355,"Bad","Self"
"02-May-2018_14:54:05",7302,22,"female","R",4,1,5,"Val","immoralSelf","Y","y",1,0.5695,"Bad","Self"
"02-May-2018_14:54:07",7302,22,"female","R",4,1,6,"Val","immoralOther","Y","y",1,0.5037,"Bad","Other"
"02-May-2018_14:54:08",7302,22,"female","R",4,1,7,"Val","moralOther","U","u",1,0.4378,"Good","Other"
"02-May-2018_14:54:10",7302,22,"female","R",4,1,8,"Val","immoralOther","Y","y",1,0.622,"Bad","Other"
"02-May-2018_14:54:12",7302,22,"female","R",4,1,9,"Val","moralOther","U","u",1,0.4062,"Good","Other"
"02-May-2018_14:54:13",7302,22,"female","R",4,1,10,"Val","immoralSelf","Y","y",1,0.576,"Bad","Self"
"02-May-2018_14:54:15",7302,22,"female","R",4,1,11,"Val","moralOther","U","u",1,0.4801,"Good","Other"
"02-May-2018_14:54:17",7302,22,"female","R",4,1,12,"Val","immoralOther","Y","y",1,0.4742,"Bad","Other"
"02-May-2018_14:54:18",7302,22,"female","R",4,1,13,"Val","immoralSelf","Y","y",1,0.5863,"Bad","Self"
"02-May-2018_14:54:20",7302,22,"female","R",4,1,14,"Val","moralSelf","U","u",1,0.4945,"Good","Self"
"02-May-2018_14:54:21",7302,22,"female","R",4,1,15,"Val","moralSelf","U","u",1,0.4286,"Good","Self"
"02-May-2018_14:54:23",7302,22,"female","R",4,1,16,"Val","moralSelf","U","u",1,0.3426,"Good","Self"
"02-May-2018_14:54:24",7302,22,"female","R",4,1,17,"Val","immoralOther","Y","y",1,0.5146,"Bad","Other"
"02-May-2018_14:54:26",7302,22,"female","R",4,1,18,"Val","immoralOther","Y","y",1,0.4047,"Bad","Other"
"02-May-2018_14:54:27",7302,22,"female","R",4,1,19,"Val","moralOther","U","u",1,0.4189,"Good","Other"
"02-May-2018_14:54:29",7302,22,"female","R",4,1,20,"Val","immoralSelf","Y","y",1,0.4369,"Bad","Self"
"02-May-2018_14:54:30",7302,22,"female","R",4,1,21,"Val","moralSelf","U","u",1,0.573,"Good","Self"
"02-May-2018_14:54:32",7302,22,"female","R",4,1,22,"Val","moralSelf","U","u",1,0.3671,"Good","Self"
"02-May-2018_14:54:34",7302,22,"female","R",4,1,23,"Val","immoralSelf","Y","y",1,0.6773,"Bad","Self"
"02-May-2018_14:54:36",7302,22,"female","R",4,1,24,"Val","moralOther","U","u",1,0.5014,"Good","Other"
"02-May-2018_14:54:37",7302,22,"female","R",4,2,1,"Val","moralOther","U","u",1,0.3174,"Good","Other"
"02-May-2018_14:54:39",7302,22,"female","R",4,2,2,"Val","immoralOther","Y","u",0,0.3555,"Bad","Other"
"02-May-2018_14:54:41",7302,22,"female","R",4,2,3,"Val","immoralOther","Y","y",1,0.5774,"Bad","Other"
"02-May-2018_14:54:43",7302,22,"female","R",4,2,4,"Val","moralSelf","U","u",1,0.5957,"Good","Self"
"02-May-2018_14:54:44",7302,22,"female","R",4,2,5,"Val","immoralSelf","Y","y",1,0.4878,"Bad","Self"
"02-May-2018_14:54:46",7302,22,"female","R",4,2,6,"Val","immoralOther","Y","y",1,0.5979,"Bad","Other"
"02-May-2018_14:54:47",7302,22,"female","R",4,2,7,"Val","moralSelf","U","u",1,0.51,"Good","Self"
"02-May-2018_14:54:49",7302,22,"female","R",4,2,8,"Val","moralOther","U","u",1,0.7,"Good","Other"
"02-May-2018_14:54:51",7302,22,"female","R",4,2,9,"Val","immoralOther","Y","y",1,0.4741,"Bad","Other"
"02-May-2018_14:54:53",7302,22,"female","R",4,2,10,"Val","moralOther","U","u",1,0.4104,"Good","Other"
"02-May-2018_14:54:54",7302,22,"female","R",4,2,11,"Val","moralOther","U","u",1,0.5023,"Good","Other"
"02-May-2018_14:54:56",7302,22,"female","R",4,2,12,"Val","immoralOther","Y","y",1,0.4705,"Bad","Other"
"02-May-2018_14:54:58",7302,22,"female","R",4,2,13,"Val","moralOther","U","u",1,0.5108,"Good","Other"
"02-May-2018_14:54:59",7302,22,"female","R",4,2,14,"Val","immoralOther","Y","y",1,0.4867,"Bad","Other"
"02-May-2018_14:55:01",7302,22,"female","R",4,2,15,"Val","immoralSelf","Y","y",1,0.5507,"Bad","Self"
"02-May-2018_14:55:03",7302,22,"female","R",4,2,16,"Val","immoralSelf","Y","y",1,0.5789,"Bad","Self"
"02-May-2018_14:55:04",7302,22,"female","R",4,2,17,"Val","immoralSelf","Y","y",1,0.5069,"Bad","Self"
"02-May-2018_14:55:06",7302,22,"female","R",4,2,18,"Val","moralOther","U","u",1,0.4711,"Good","Other"
"02-May-2018_14:55:08",7302,22,"female","R",4,2,19,"Val","moralSelf","U","u",1,0.6031,"Good","Self"
"02-May-2018_14:55:10",7302,22,"female","R",4,2,20,"Val","immoralSelf","Y","y",1,0.4612,"Bad","Self"
"02-May-2018_14:55:12",7302,22,"female","R",4,2,21,"Val","moralSelf","U","y",0,0.9334,"Good","Self"
"02-May-2018_14:55:14",7302,22,"female","R",4,2,22,"Val","immoralSelf","Y","y",1,0.7815,"Bad","Self"
"02-May-2018_14:55:16",7302,22,"female","R",4,2,23,"Val","moralSelf","U","u",1,0.4477,"Good","Self"
"02-May-2018_14:55:17",7302,22,"female","R",4,2,24,"Val","moralSelf","U","u",1,0.3596,"Good","Self"
"02-May-2018_14:55:24",7302,22,"female","R",4,3,1,"Val","immoralOther","Y","y",1,0.448,"Bad","Other"
"02-May-2018_14:55:25",7302,22,"female","R",4,3,2,"Val","immoralOther","Y","y",1,0.3401,"Bad","Other"
"02-May-2018_14:55:27",7302,22,"female","R",4,3,3,"Val","moralSelf","U","u",1,0.5062,"Good","Self"
"02-May-2018_14:55:28",7302,22,"female","R",4,3,4,"Val","immoralOther","Y","y",1,0.4143,"Bad","Other"
"02-May-2018_14:55:30",7302,22,"female","R",4,3,5,"Val","moralOther","U","u",1,0.4565,"Good","Other"
"02-May-2018_14:55:31",7302,22,"female","R",4,3,6,"Val","moralSelf","U","u",1,0.5005,"Good","Self"
"02-May-2018_14:55:33",7302,22,"female","R",4,3,7,"Val","immoralSelf","Y","y",1,0.7185,"Bad","Self"
"02-May-2018_14:55:35",7302,22,"female","R",4,3,8,"Val","immoralOther","Y","y",1,0.4827,"Bad","Other"
"02-May-2018_14:55:37",7302,22,"female","R",4,3,9,"Val","moralOther","U","u",1,0.5247,"Good","Other"
"02-May-2018_14:55:38",7302,22,"female","R",4,3,10,"Val","immoralOther","Y","y",1,0.5008,"Bad","Other"
"02-May-2018_14:55:40",7302,22,"female","R",4,3,11,"Val","moralOther","U","u",1,0.515,"Good","Other"
"02-May-2018_14:55:42",7302,22,"female","R",4,3,12,"Val","moralSelf","U","u",1,0.5771,"Good","Self"
"02-May-2018_14:55:44",7302,22,"female","R",4,3,13,"Val","immoralOther","Y","y",1,0.5311,"Bad","Other"
"02-May-2018_14:55:45",7302,22,"female","R",4,3,14,"Val","moralOther","U","u",1,0.4573,"Good","Other"
"02-May-2018_14:55:47",7302,22,"female","R",4,3,15,"Val","moralSelf","U","u",1,0.3635,"Good","Self"
"02-May-2018_14:55:48",7302,22,"female","R",4,3,16,"Val","moralOther","U","u",1,0.5814,"Good","Other"
"02-May-2018_14:55:50",7302,22,"female","R",4,3,17,"Val","moralSelf","U","u",1,0.3636,"Good","Self"
"02-May-2018_14:55:52",7302,22,"female","R",4,3,18,"Val","immoralSelf","Y","u",0,0.3856,"Bad","Self"
"02-May-2018_14:55:53",7302,22,"female","R",4,3,19,"Val","immoralSelf","Y","y",1,0.5296,"Bad","Self"
"02-May-2018_14:55:55",7302,22,"female","R",4,3,20,"Val","immoralSelf","Y","y",1,0.4058,"Bad","Self"
"02-May-2018_14:55:56",7302,22,"female","R",4,3,21,"Val","immoralSelf","Y","y",1,0.434,"Bad","Self"
"02-May-2018_14:55:58",7302,22,"female","R",4,3,22,"Val","moralOther","U","u",1,0.4539,"Good","Other"
"02-May-2018_14:56:00",7302,22,"female","R",4,3,23,"Val","immoralSelf","Y","y",1,0.456,"Bad","Self"
"02-May-2018_14:56:01",7302,22,"female","R",4,3,24,"Val","moralSelf","U","u",1,0.4962,"Good","Self"
"02-May-2018_14:56:03",7302,22,"female","R",4,4,1,"Val","immoralSelf","Y","y",1,0.5163,"Bad","Self"
"02-May-2018_14:56:05",7302,22,"female","R",4,4,2,"Val","moralOther","U","u",1,0.4204,"Good","Other"
"02-May-2018_14:56:06",7302,22,"female","R",4,4,3,"Val","immoralOther","Y","y",1,0.4504,"Bad","Other"
"02-May-2018_14:56:08",7302,22,"female","R",4,4,4,"Val","moralOther","U","u",1,0.6485,"Good","Other"
"02-May-2018_14:56:10",7302,22,"female","R",4,4,5,"Val","immoralSelf","Y","y",1,0.4907,"Bad","Self"
"02-May-2018_14:56:12",7302,22,"female","R",4,4,6,"Val","moralSelf","U","u",1,0.4787,"Good","Self"
"02-May-2018_14:56:13",7302,22,"female","R",4,4,7,"Val","immoralOther","Y","y",1,0.5048,"Bad","Other"
"02-May-2018_14:56:15",7302,22,"female","R",4,4,8,"Val","moralOther","U","u",1,0.4509,"Good","Other"
"02-May-2018_14:56:16",7302,22,"female","R",4,4,9,"Val","immoralOther","Y","y",1,0.551,"Bad","Other"
"02-May-2018_14:56:18",7302,22,"female","R",4,4,10,"Val","moralSelf","U","u",1,0.4413,"Good","Self"
"02-May-2018_14:56:20",7302,22,"female","R",4,4,11,"Val","moralSelf","U","u",1,0.5172,"Good","Self"
"02-May-2018_14:56:21",7302,22,"female","R",4,4,12,"Val","immoralSelf","Y","y",1,0.5473,"Bad","Self"
"02-May-2018_14:56:23",7302,22,"female","R",4,4,13,"Val","immoralSelf","Y","y",1,0.6854,"Bad","Self"
"02-May-2018_14:56:25",7302,22,"female","R",4,4,14,"Val","moralOther","U","u",1,0.4835,"Good","Other"
"02-May-2018_14:56:26",7302,22,"female","R",4,4,15,"Val","immoralOther","Y","y",1,0.4356,"Bad","Other"
"02-May-2018_14:56:28",7302,22,"female","R",4,4,16,"Val","immoralOther","Y","y",1,0.5253,"Bad","Other"
"02-May-2018_14:56:30",7302,22,"female","R",4,4,17,"Val","moralSelf","U","u",1,0.8619,"Good","Self"
"02-May-2018_14:56:32",7302,22,"female","R",4,4,18,"Val","moralSelf","U","u",1,0.4799,"Good","Self"
"02-May-2018_14:56:33",7302,22,"female","R",4,4,19,"Val","immoralOther","Y","y",1,0.4719,"Bad","Other"
"02-May-2018_14:56:35",7302,22,"female","R",4,4,20,"Val","immoralSelf","Y","y",1,0.6221,"Bad","Self"
"02-May-2018_14:56:37",7302,22,"female","R",4,4,21,"Val","moralSelf","U","u",1,0.4862,"Good","Self"
"02-May-2018_14:56:38",7302,22,"female","R",4,4,22,"Val","moralOther","U","u",1,0.5583,"Good","Other"
"02-May-2018_14:56:40",7302,22,"female","R",4,4,23,"Val","immoralSelf","Y","y",1,0.4303,"Bad","Self"
"02-May-2018_14:56:42",7302,22,"female","R",4,4,24,"Val","moralOther","U","u",1,0.6424,"Good","Other"
"02-May-2018_14:56:48",7302,22,"female","R",4,5,1,"Val","moralSelf","U","u",1,0.5428,"Good","Self"
"02-May-2018_14:56:50",7302,22,"female","R",4,5,2,"Val","immoralOther","Y","y",1,0.477,"Bad","Other"
"02-May-2018_14:56:52",7302,22,"female","R",4,5,3,"Val","moralOther","U","u",1,0.423,"Good","Other"
"02-May-2018_14:56:53",7302,22,"female","R",4,5,4,"Val","immoralSelf","Y","y",1,0.4991,"Bad","Self"
"02-May-2018_14:56:55",7302,22,"female","R",4,5,5,"Val","moralOther","U","u",1,0.4012,"Good","Other"
"02-May-2018_14:56:56",7302,22,"female","R",4,5,6,"Val","immoralSelf","Y","y",1,0.4993,"Bad","Self"
"02-May-2018_14:56:58",7302,22,"female","R",4,5,7,"Val","immoralSelf","Y","y",1,0.5754,"Bad","Self"
"02-May-2018_14:57:00",7302,22,"female","R",4,5,8,"Val","immoralOther","Y","y",1,0.5954,"Bad","Other"
"02-May-2018_14:57:01",7302,22,"female","R",4,5,9,"Val","moralSelf","U","u",1,0.5876,"Good","Self"
"02-May-2018_14:57:03",7302,22,"female","R",4,5,10,"Val","moralSelf","U","u",1,0.4795,"Good","Self"
"02-May-2018_14:57:05",7302,22,"female","R",4,5,11,"Val","moralOther","U","u",1,0.5058,"Good","Other"
"02-May-2018_14:57:06",7302,22,"female","R",4,5,12,"Val","immoralSelf","Y","y",1,0.5459,"Bad","Self"
"02-May-2018_14:57:08",7302,22,"female","R",4,5,13,"Val","moralSelf","U","u",1,0.6219,"Good","Self"
"02-May-2018_14:57:10",7302,22,"female","R",4,5,14,"Val","immoralSelf","Y","y",1,0.6061,"Bad","Self"
"02-May-2018_14:57:12",7302,22,"female","R",4,5,15,"Val","immoralSelf","Y","y",1,0.4021,"Bad","Self"
"02-May-2018_14:57:13",7302,22,"female","R",4,5,16,"Val","moralSelf","U","u",1,0.5523,"Good","Self"
"02-May-2018_14:57:15",7302,22,"female","R",4,5,17,"Val","immoralOther","Y","y",1,0.5064,"Bad","Other"
"02-May-2018_14:57:17",7302,22,"female","R",4,5,18,"Val","immoralOther","Y","y",1,0.6204,"Bad","Other"
"02-May-2018_14:57:19",7302,22,"female","R",4,5,19,"Val","moralOther","U","u",1,0.4826,"Good","Other"
"02-May-2018_14:57:20",7302,22,"female","R",4,5,20,"Val","moralOther","U","u",1,0.4847,"Good","Other"
"02-May-2018_14:57:22",7302,22,"female","R",4,5,21,"Val","immoralOther","Y","y",1,0.4987,"Bad","Other"
"02-May-2018_14:57:23",7302,22,"female","R",4,5,22,"Val","moralOther","U","u",1,0.4548,"Good","Other"
"02-May-2018_14:57:25",7302,22,"female","R",4,5,23,"Val","moralSelf","U","u",1,0.4089,"Good","Self"
"02-May-2018_14:57:27",7302,22,"female","R",4,5,24,"Val","immoralOther","Y","y",1,0.4356,"Bad","Other"
"02-May-2018_14:59:33",7302,22,"female","R",5,1,1,"Id","moralOther","J","j",1,0.7322,"Good","Other"
"02-May-2018_14:59:35",7302,22,"female","R",5,1,2,"Id","moralSelf","H","h",1,0.5823,"Good","Self"
"02-May-2018_14:59:36",7302,22,"female","R",5,1,3,"Id","moralOther","J","j",1,0.6144,"Good","Other"
"02-May-2018_14:59:38",7302,22,"female","R",5,1,4,"Id","immoralSelf","H","j",0,0.8985,"Bad","Self"
"02-May-2018_14:59:40",7302,22,"female","R",5,1,5,"Id","moralOther","J","j",1,0.6746,"Good","Other"
"02-May-2018_14:59:42",7302,22,"female","R",5,1,6,"Id","immoralOther","J","j",1,0.5708,"Bad","Other"
"02-May-2018_14:59:43",7302,22,"female","R",5,1,7,"Id","moralSelf","H","h",1,0.4428,"Good","Self"
"02-May-2018_14:59:45",7302,22,"female","R",5,1,8,"Id","immoralSelf","H","h",1,0.3589,"Bad","Self"
"02-May-2018_14:59:46",7302,22,"female","R",5,1,9,"Id","moralOther","J","j",1,0.553,"Good","Other"
"02-May-2018_14:59:48",7302,22,"female","R",5,1,10,"Id","immoralOther","J","j",1,0.441,"Bad","Other"
"02-May-2018_14:59:49",7302,22,"female","R",5,1,11,"Id","immoralOther","J","j",1,0.3991,"Bad","Other"
"02-May-2018_14:59:51",7302,22,"female","R",5,1,12,"Id","moralSelf","H","h",1,0.4948,"Good","Self"
"02-May-2018_14:59:53",7302,22,"female","R",5,1,13,"Id","immoralSelf","H","h",1,0.4234,"Bad","Self"
"02-May-2018_14:59:54",7302,22,"female","R",5,1,14,"Id","moralOther","J","j",1,0.5113,"Good","Other"
"02-May-2018_14:59:56",7302,22,"female","R",5,1,15,"Id","immoralSelf","H","h",1,0.4675,"Bad","Self"
"02-May-2018_14:59:57",7302,22,"female","R",5,1,16,"Id","immoralOther","J","j",1,0.3617,"Bad","Other"
"02-May-2018_14:59:59",7302,22,"female","R",5,1,17,"Id","immoralOther","J","j",1,0.5337,"Bad","Other"
"02-May-2018_15:00:00",7302,22,"female","R",5,1,18,"Id","moralSelf","H","h",1,0.4158,"Good","Self"
"02-May-2018_15:00:02",7302,22,"female","R",5,1,19,"Id","moralSelf","H","h",1,0.4939,"Good","Self"
"02-May-2018_15:00:04",7302,22,"female","R",5,1,20,"Id","immoralSelf","H","h",1,0.4239,"Bad","Self"
"02-May-2018_15:00:05",7302,22,"female","R",5,1,21,"Id","immoralSelf","H","h",1,0.362,"Bad","Self"
"02-May-2018_15:00:07",7302,22,"female","R",5,1,22,"Id","moralSelf","H","h",1,0.5941,"Good","Self"
"02-May-2018_15:00:09",7302,22,"female","R",5,1,23,"Id","moralOther","J","j",1,0.8341,"Good","Other"
"02-May-2018_15:00:11",7302,22,"female","R",5,1,24,"Id","immoralOther","J","j",1,0.5104,"Bad","Other"
"02-May-2018_15:00:13",7302,22,"female","R",5,2,1,"Id","immoralSelf","H","h",1,0.5426,"Bad","Self"
"02-May-2018_15:00:15",7302,22,"female","R",5,2,2,"Id","moralOther","J","j",1,0.6365,"Good","Other"
"02-May-2018_15:00:17",7302,22,"female","R",5,2,3,"Id","moralSelf","H","h",1,0.6507,"Good","Self"
"02-May-2018_15:00:19",7302,22,"female","R",5,2,4,"Id","immoralSelf","H","h",1,0.6629,"Bad","Self"
"02-May-2018_15:00:21",7302,22,"female","R",5,2,5,"Id","immoralOther","J","j",1,0.6088,"Bad","Other"
"02-May-2018_15:00:23",7302,22,"female","R",5,2,6,"Id","moralOther","J","j",1,0.283,"Good","Other"
"02-May-2018_15:00:24",7302,22,"female","R",5,2,7,"Id","moralSelf","H","h",1,0.4572,"Good","Self"
"02-May-2018_15:00:26",7302,22,"female","R",5,2,8,"Id","immoralOther","J","j",1,0.5172,"Bad","Other"
"02-May-2018_15:00:28",7302,22,"female","R",5,2,9,"Id","immoralOther","J","j",1,0.4853,"Bad","Other"
"02-May-2018_15:00:30",7302,22,"female","R",5,2,10,"Id","moralSelf","H","h",1,0.5074,"Good","Self"
"02-May-2018_15:00:31",7302,22,"female","R",5,2,11,"Id","immoralSelf","H","h",1,0.4575,"Bad","Self"
"02-May-2018_15:00:33",7302,22,"female","R",5,2,12,"Id","moralOther","J","j",1,0.6096,"Good","Other"
"02-May-2018_15:00:34",7302,22,"female","R",5,2,13,"Id","moralOther","J","j",1,0.5017,"Good","Other"
"02-May-2018_15:00:36",7302,22,"female","R",5,2,14,"Id","moralSelf","H","h",1,0.5618,"Good","Self"
"02-May-2018_15:00:37",7302,22,"female","R",5,2,15,"Id","moralOther","J","j",1,0.5058,"Good","Other"
"02-May-2018_15:00:39",7302,22,"female","R",5,2,16,"Id","moralSelf","H","h",1,0.5659,"Good","Self"
"02-May-2018_15:00:41",7302,22,"female","R",5,2,17,"Id","immoralSelf","H","h",1,0.4345,"Bad","Self"
"02-May-2018_15:00:43",7302,22,"female","R",5,2,18,"Id","immoralSelf","H","h",1,0.4262,"Bad","Self"
"02-May-2018_15:00:44",7302,22,"female","R",5,2,19,"Id","immoralOther","J","j",1,0.4822,"Bad","Other"
"02-May-2018_15:00:46",7302,22,"female","R",5,2,20,"Id","immoralOther","J","j",1,0.3323,"Bad","Other"
"02-May-2018_15:00:47",7302,22,"female","R",5,2,21,"Id","immoralSelf","H","h",1,0.5243,"Bad","Self"
"02-May-2018_15:00:49",7302,22,"female","R",5,2,22,"Id","moralOther","J","j",1,0.4805,"Good","Other"
"02-May-2018_15:00:51",7302,22,"female","R",5,2,23,"Id","immoralOther","J","j",1,0.4986,"Bad","Other"
"02-May-2018_15:00:52",7302,22,"female","R",5,2,24,"Id","moralSelf","H","h",1,0.4687,"Good","Self"
"02-May-2018_15:00:57",7302,22,"female","R",5,3,1,"Id","immoralSelf","H","h",1,0.4669,"Bad","Self"
"02-May-2018_15:00:59",7302,22,"female","R",5,3,2,"Id","immoralOther","J","j",1,0.5351,"Bad","Other"
"02-May-2018_15:01:01",7302,22,"female","R",5,3,3,"Id","moralOther","J","h",0,0.3472,"Good","Other"
"02-May-2018_15:01:02",7302,22,"female","R",5,3,4,"Id","moralSelf","H","h",1,0.4572,"Good","Self"
"02-May-2018_15:01:04",7302,22,"female","R",5,3,5,"Id","immoralSelf","H","h",1,0.3474,"Bad","Self"
"02-May-2018_15:01:06",7302,22,"female","R",5,3,6,"Id","moralSelf","H","h",1,0.4234,"Good","Self"
"02-May-2018_15:01:07",7302,22,"female","R",5,3,7,"Id","moralOther","J","j",1,0.4876,"Good","Other"
"02-May-2018_15:01:09",7302,22,"female","R",5,3,8,"Id","moralOther","J","j",1,0.4376,"Good","Other"
"02-May-2018_15:01:10",7302,22,"female","R",5,3,9,"Id","immoralOther","J","j",1,0.5098,"Bad","Other"
"02-May-2018_15:01:12",7302,22,"female","R",5,3,10,"Id","immoralOther","J","j",1,0.4018,"Bad","Other"
"02-May-2018_15:01:14",7302,22,"female","R",5,3,11,"Id","moralOther","J","j",1,0.5539,"Good","Other"
"02-May-2018_15:01:16",7302,22,"female","R",5,3,12,"Id","immoralSelf","H","h",1,0.532,"Bad","Self"
"02-May-2018_15:01:17",7302,22,"female","R",5,3,13,"Id","moralOther","J","j",1,0.4621,"Good","Other"
"02-May-2018_15:01:19",7302,22,"female","R",5,3,14,"Id","immoralSelf","H","h",1,0.4163,"Bad","Self"
"02-May-2018_15:01:20",7302,22,"female","R",5,3,15,"Id","immoralSelf","H","h",1,0.3923,"Bad","Self"
"02-May-2018_15:01:22",7302,22,"female","R",5,3,16,"Id","moralSelf","H","h",1,0.2884,"Good","Self"
"02-May-2018_15:01:24",7302,22,"female","R",5,3,17,"Id","immoralOther","J","j",1,0.4905,"Bad","Other"
"02-May-2018_15:01:26",7302,22,"female","R",5,3,18,"Id","immoralOther","J","j",1,0.4406,"Bad","Other"
"02-May-2018_15:01:27",7302,22,"female","R",5,3,19,"Id","moralSelf","H","h",1,0.4768,"Good","Self"
"02-May-2018_15:01:29",7302,22,"female","R",5,3,20,"Id","immoralSelf","H","h",1,0.415,"Bad","Self"
"02-May-2018_15:01:31",7302,22,"female","R",5,3,21,"Id","moralOther","J","j",1,0.5609,"Good","Other"
"02-May-2018_15:01:32",7302,22,"female","R",5,3,22,"Id","immoralOther","J","h",0,0.493,"Bad","Other"
"02-May-2018_15:01:34",7302,22,"female","R",5,3,23,"Id","moralSelf","H","h",1,0.603,"Good","Self"
"02-May-2018_15:01:36",7302,22,"female","R",5,3,24,"Id","moralSelf","H","h",1,0.6331,"Good","Self"
"02-May-2018_15:01:37",7302,22,"female","R",5,4,1,"Id","immoralSelf","H","h",1,0.4732,"Bad","Self"
"02-May-2018_15:01:39",7302,22,"female","R",5,4,2,"Id","moralSelf","H","h",1,0.4033,"Good","Self"
"02-May-2018_15:01:41",7302,22,"female","R",5,4,3,"Id","moralSelf","H","h",1,0.3931,"Good","Self"
"02-May-2018_15:01:42",7302,22,"female","R",5,4,4,"Id","moralSelf","H","h",1,0.2996,"Good","Self"
"02-May-2018_15:01:44",7302,22,"female","R",5,4,5,"Id","immoralSelf","H","h",1,0.4463,"Bad","Self"
"02-May-2018_15:01:46",7302,22,"female","R",5,4,6,"Id","immoralSelf","H","h",1,0.3138,"Bad","Self"
"02-May-2018_15:01:47",7302,22,"female","R",5,4,7,"Id","moralOther","J","j",1,0.4658,"Good","Other"
"02-May-2018_15:01:49",7302,22,"female","R",5,4,8,"Id","moralSelf","H","j",0,0.4059,"Good","Self"
"02-May-2018_15:01:50",7302,22,"female","R",5,4,9,"Id","immoralSelf","H","h",1,0.534,"Bad","Self"
"02-May-2018_15:01:52",7302,22,"female","R",5,4,10,"Id","immoralSelf","H","h",1,0.3162,"Bad","Self"
"02-May-2018_15:01:53",7302,22,"female","R",5,4,11,"Id","moralOther","J","h",0,0.2842,"Good","Other"
"02-May-2018_15:01:55",7302,22,"female","R",5,4,12,"Id","moralOther","J","j",1,0.3562,"Good","Other"
"02-May-2018_15:01:57",7302,22,"female","R",5,4,13,"Id","immoralOther","J","j",1,0.4744,"Bad","Other"
"02-May-2018_15:01:58",7302,22,"female","R",5,4,14,"Id","immoralOther","J","j",1,0.3385,"Bad","Other"
"02-May-2018_15:02:00",7302,22,"female","R",5,4,15,"Id","immoralSelf","H","h",1,0.4005,"Bad","Self"
"02-May-2018_15:02:01",7302,22,"female","R",5,4,16,"Id","moralOther","J","j",1,0.4786,"Good","Other"
"02-May-2018_15:02:03",7302,22,"female","R",5,4,17,"Id","moralOther","J","j",1,0.3467,"Good","Other"
"02-May-2018_15:02:04",7302,22,"female","R",5,4,18,"Id","moralOther","J","j",1,0.3487,"Good","Other"
"02-May-2018_15:02:06",7302,22,"female","R",5,4,19,"Id","moralSelf","H","h",1,0.4748,"Good","Self"
"02-May-2018_15:02:08",7302,22,"female","R",5,4,20,"Id","immoralOther","J","j",1,0.485,"Bad","Other"
"02-May-2018_15:02:09",7302,22,"female","R",5,4,21,"Id","immoralOther","J","j",1,0.4291,"Bad","Other"
"02-May-2018_15:02:11",7302,22,"female","R",5,4,22,"Id","moralSelf","H","j",0,0.3532,"Good","Self"
"02-May-2018_15:02:12",7302,22,"female","R",5,4,23,"Id","immoralOther","J","j",1,0.4496,"Bad","Other"
"02-May-2018_15:02:14",7302,22,"female","R",5,4,24,"Id","immoralOther","J","j",1,0.4254,"Bad","Other"
"02-May-2018_15:02:19",7302,22,"female","R",5,5,1,"Id","immoralSelf","H","h",1,0.4375,"Bad","Self"
"02-May-2018_15:02:20",7302,22,"female","R",5,5,2,"Id","moralSelf","H","h",1,0.4057,"Good","Self"
"02-May-2018_15:02:22",7302,22,"female","R",5,5,3,"Id","immoralOther","J","j",1,0.4618,"Bad","Other"
"02-May-2018_15:02:24",7302,22,"female","R",5,5,4,"Id","moralSelf","H","h",1,0.4219,"Good","Self"
"02-May-2018_15:02:25",7302,22,"female","R",5,5,5,"Id","immoralOther","J","j",1,0.4521,"Bad","Other"
"02-May-2018_15:02:27",7302,22,"female","R",5,5,6,"Id","immoralSelf","H","h",1,0.392,"Bad","Self"
"02-May-2018_15:02:29",7302,22,"female","R",5,5,7,"Id","moralSelf","H","h",1,0.5642,"Good","Self"
"02-May-2018_15:02:30",7302,22,"female","R",5,5,8,"Id","immoralSelf","H","h",1,0.3201,"Bad","Self"
"02-May-2018_15:02:31",7302,22,"female","R",5,5,9,"Id","moralOther","J","j",1,0.3184,"Good","Other"
"02-May-2018_15:02:33",7302,22,"female","R",5,5,10,"Id","immoralSelf","H","h",1,0.5724,"Bad","Self"
"02-May-2018_15:02:35",7302,22,"female","R",5,5,11,"Id","immoralSelf","H","h",1,0.3545,"Bad","Self"
"02-May-2018_15:02:36",7302,22,"female","R",5,5,12,"Id","immoralSelf","H","h",1,0.3026,"Bad","Self"
"02-May-2018_15:02:38",7302,22,"female","R",5,5,13,"Id","moralOther","J","j",1,0.4827,"Good","Other"
"02-May-2018_15:02:40",7302,22,"female","R",5,5,14,"Id","moralSelf","H","h",1,0.5288,"Good","Self"
"02-May-2018_15:02:41",7302,22,"female","R",5,5,15,"Id","immoralOther","J","j",1,0.4508,"Bad","Other"
"02-May-2018_15:02:43",7302,22,"female","R",5,5,16,"Id","moralOther","J","h",0,0.393,"Good","Other"
"02-May-2018_15:02:45",7302,22,"female","R",5,5,17,"Id","moralSelf","H","h",1,0.4511,"Good","Self"
"02-May-2018_15:02:47",7302,22,"female","R",5,5,18,"Id","immoralOther","J","j",1,0.4212,"Bad","Other"
"02-May-2018_15:02:48",7302,22,"female","R",5,5,19,"Id","immoralOther","J","j",1,0.5333,"Bad","Other"
"02-May-2018_15:02:50",7302,22,"female","R",5,5,20,"Id","moralOther","J","j",1,0.6395,"Good","Other"
"02-May-2018_15:02:52",7302,22,"female","R",5,5,21,"Id","moralSelf","H","h",1,0.5275,"Good","Self"
"02-May-2018_15:02:54",7302,22,"female","R",5,5,22,"Id","immoralOther","J","j",1,0.5776,"Bad","Other"
"02-May-2018_15:02:55",7302,22,"female","R",5,5,23,"Id","moralOther","J","j",1,0.6796,"Good","Other"
"02-May-2018_15:02:57",7302,22,"female","R",5,5,24,"Id","moralOther","J","j",1,0.4117,"Good","Other"
"02-May-2018_15:05:04",7302,22,"female","R",6,1,1,"Id","moralSelf","H","h",1,0.537,"Good","Self"
"02-May-2018_15:05:06",7302,22,"female","R",6,1,2,"Id","immoralSelf","H","h",1,0.5431,"Bad","Self"
"02-May-2018_15:05:08",7302,22,"female","R",6,1,3,"Id","moralOther","J","j",1,0.5932,"Good","Other"
"02-May-2018_15:05:10",7302,22,"female","R",6,1,4,"Id","immoralSelf","H","h",1,0.5433,"Bad","Self"
"02-May-2018_15:05:11",7302,22,"female","R",6,1,5,"Id","immoralOther","J","j",1,0.4414,"Bad","Other"
"02-May-2018_15:05:13",7302,22,"female","R",6,1,6,"Id","moralSelf","H","h",1,0.5355,"Good","Self"
"02-May-2018_15:05:15",7302,22,"female","R",6,1,7,"Id","moralOther","J","j",1,0.7055,"Good","Other"
"02-May-2018_15:05:17",7302,22,"female","R",6,1,8,"Id","moralSelf","H","h",1,0.7697,"Good","Self"
"02-May-2018_15:05:18",7302,22,"female","R",6,1,9,"Id","moralOther","J","j",1,0.5338,"Good","Other"
"02-May-2018_15:05:20",7302,22,"female","R",6,1,10,"Id","moralOther","J","j",1,0.3239,"Good","Other"
"02-May-2018_15:05:22",7302,22,"female","R",6,1,11,"Id","immoralOther","J","j",1,0.534,"Bad","Other"
"02-May-2018_15:05:23",7302,22,"female","R",6,1,12,"Id","moralSelf","H","h",1,0.5041,"Good","Self"
"02-May-2018_15:05:25",7302,22,"female","R",6,1,13,"Id","immoralOther","J","j",1,0.4722,"Bad","Other"
"02-May-2018_15:05:26",7302,22,"female","R",6,1,14,"Id","immoralSelf","H","h",1,0.4542,"Bad","Self"
"02-May-2018_15:05:27",7302,22,"female","R",6,1,15,"Id","immoralOther","J","j",1,0.4223,"Bad","Other"
"02-May-2018_15:05:29",7302,22,"female","R",6,1,16,"Id","immoralOther","J","j",1,0.5224,"Bad","Other"
"02-May-2018_15:05:31",7302,22,"female","R",6,1,17,"Id","moralOther","J","j",1,0.6066,"Good","Other"
"02-May-2018_15:05:33",7302,22,"female","R",6,1,18,"Id","immoralSelf","H","h",1,0.5906,"Bad","Self"
"02-May-2018_15:05:34",7302,22,"female","R",6,1,19,"Id","moralSelf","H","h",1,0.4387,"Good","Self"
"02-May-2018_15:05:36",7302,22,"female","R",6,1,20,"Id","immoralOther","J","j",1,0.4428,"Bad","Other"
"02-May-2018_15:05:38",7302,22,"female","R",6,1,21,"Id","immoralSelf","H","j",0,0.3629,"Bad","Self"
"02-May-2018_15:05:39",7302,22,"female","R",6,1,22,"Id","moralSelf","H","h",1,0.5111,"Good","Self"
"02-May-2018_15:05:41",7302,22,"female","R",6,1,23,"Id","immoralSelf","H","h",1,0.5151,"Bad","Self"
"02-May-2018_15:05:42",7302,22,"female","R",6,1,24,"Id","moralOther","J","j",1,0.4332,"Good","Other"
"02-May-2018_15:05:44",7302,22,"female","R",6,2,1,"Id","moralSelf","H","h",1,0.5093,"Good","Self"
"02-May-2018_15:05:46",7302,22,"female","R",6,2,2,"Id","immoralOther","J","j",1,0.4893,"Bad","Other"
"02-May-2018_15:05:48",7302,22,"female","R",6,2,3,"Id","moralOther","J","j",1,0.5494,"Good","Other"
"02-May-2018_15:05:49",7302,22,"female","R",6,2,4,"Id","immoralOther","J","j",1,0.4516,"Bad","Other"
"02-May-2018_15:05:51",7302,22,"female","R",6,2,5,"Id","immoralSelf","H","h",1,0.4656,"Bad","Self"
"02-May-2018_15:05:53",7302,22,"female","R",6,2,6,"Id","moralOther","J","j",1,0.4579,"Good","Other"
"02-May-2018_15:05:54",7302,22,"female","R",6,2,7,"Id","immoralSelf","H","h",1,0.5004,"Bad","Self"
"02-May-2018_15:05:56",7302,22,"female","R",6,2,8,"Id","immoralSelf","H","h",1,0.4599,"Bad","Self"
"02-May-2018_15:05:58",7302,22,"female","R",6,2,9,"Id","moralSelf","H","h",1,0.4581,"Good","Self"
"02-May-2018_15:05:59",7302,22,"female","R",6,2,10,"Id","moralOther","J","j",1,0.4821,"Good","Other"
"02-May-2018_15:06:01",7302,22,"female","R",6,2,11,"Id","moralSelf","H","h",1,0.4683,"Good","Self"
"02-May-2018_15:06:03",7302,22,"female","R",6,2,12,"Id","moralSelf","H","h",1,0.4264,"Good","Self"
"02-May-2018_15:06:04",7302,22,"female","R",6,2,13,"Id","immoralSelf","H","h",1,0.3864,"Bad","Self"
"02-May-2018_15:06:06",7302,22,"female","R",6,2,14,"Id","moralOther","J","j",1,0.4965,"Good","Other"
"02-May-2018_15:06:08",7302,22,"female","R",6,2,15,"Id","immoralSelf","H","h",1,0.4906,"Bad","Self"
"02-May-2018_15:06:09",7302,22,"female","R",6,2,16,"Id","moralOther","J","j",1,0.5187,"Good","Other"
"02-May-2018_15:06:11",7302,22,"female","R",6,2,17,"Id","moralOther","J","j",1,0.467,"Good","Other"
"02-May-2018_15:06:12",7302,22,"female","R",6,2,18,"Id","immoralOther","J","j",1,0.5129,"Bad","Other"
"02-May-2018_15:06:14",7302,22,"female","R",6,2,19,"Id","immoralOther","J","j",1,0.6929,"Bad","Other"
"02-May-2018_15:06:16",7302,22,"female","R",6,2,20,"Id","moralSelf","H","h",1,0.449,"Good","Self"
"02-May-2018_15:06:17",7302,22,"female","R",6,2,21,"Id","immoralOther","J","j",1,0.4652,"Bad","Other"
"02-May-2018_15:06:19",7302,22,"female","R",6,2,22,"Id","immoralOther","J","j",1,0.4233,"Bad","Other"
"02-May-2018_15:06:21",7302,22,"female","R",6,2,23,"Id","immoralSelf","H","h",1,0.4013,"Bad","Self"
"02-May-2018_15:06:22",7302,22,"female","R",6,2,24,"Id","moralSelf","H","h",1,0.3494,"Good","Self"
"02-May-2018_15:06:28",7302,22,"female","R",6,3,1,"Id","moralSelf","H","h",1,0.4458,"Good","Self"
"02-May-2018_15:06:30",7302,22,"female","R",6,3,2,"Id","immoralSelf","H","h",1,0.4118,"Bad","Self"
"02-May-2018_15:06:32",7302,22,"female","R",6,3,3,"Id","immoralSelf","H","h",1,0.382,"Bad","Self"
"02-May-2018_15:06:33",7302,22,"female","R",6,3,4,"Id","immoralOther","J","j",1,0.4001,"Bad","Other"
"02-May-2018_15:06:35",7302,22,"female","R",6,3,5,"Id","moralOther","J","j",1,0.5661,"Good","Other"
"02-May-2018_15:06:37",7302,22,"female","R",6,3,6,"Id","moralSelf","H","h",1,0.6542,"Good","Self"
"02-May-2018_15:06:38",7302,22,"female","R",6,3,7,"Id","moralOther","J","j",1,0.4763,"Good","Other"
"02-May-2018_15:06:40",7302,22,"female","R",6,3,8,"Id","moralSelf","H","h",1,0.5405,"Good","Self"
"02-May-2018_15:06:42",7302,22,"female","R",6,3,9,"Id","moralOther","J","j",1,0.3326,"Good","Other"
"02-May-2018_15:06:44",7302,22,"female","R",6,3,10,"Id","immoralSelf","H","h",1,0.5086,"Bad","Self"
"02-May-2018_15:06:45",7302,22,"female","R",6,3,11,"Id","immoralSelf","H","h",1,0.4108,"Bad","Self"
"02-May-2018_15:06:47",7302,22,"female","R",6,3,12,"Id","immoralOther","J","j",1,0.5189,"Bad","Other"
"02-May-2018_15:06:49",7302,22,"female","R",6,3,13,"Id","moralSelf","H","h",1,0.5129,"Good","Self"
"02-May-2018_15:06:50",7302,22,"female","R",6,3,14,"Id","moralOther","J","j",1,0.419,"Good","Other"
"02-May-2018_15:06:52",7302,22,"female","R",6,3,15,"Id","immoralOther","J","j",1,0.543,"Bad","Other"
"02-May-2018_15:06:53",7302,22,"female","R",6,3,16,"Id","immoralOther","J","j",1,0.4552,"Bad","Other"
"02-May-2018_15:06:55",7302,22,"female","R",6,3,17,"Id","moralOther","J","j",1,0.5759,"Good","Other"
"02-May-2018_15:06:56",7302,22,"female","R",6,3,18,"Id","moralSelf","H","h",1,0.4473,"Good","Self"
"02-May-2018_15:06:58",7302,22,"female","R",6,3,19,"Id","immoralOther","J","j",1,0.5075,"Bad","Other"
"02-May-2018_15:07:00",7302,22,"female","R",6,3,20,"Id","immoralSelf","H","h",1,0.4596,"Bad","Self"
"02-May-2018_15:07:02",7302,22,"female","R",6,3,21,"Id","immoralOther","J","j",1,0.5236,"Bad","Other"
"02-May-2018_15:07:03",7302,22,"female","R",6,3,22,"Id","moralOther","J","j",1,0.5817,"Good","Other"
"02-May-2018_15:07:05",7302,22,"female","R",6,3,23,"Id","moralSelf","H","h",1,0.4919,"Good","Self"
"02-May-2018_15:07:06",7302,22,"female","R",6,3,24,"Id","immoralSelf","H","h",1,0.4639,"Bad","Self"
"02-May-2018_15:07:08",7302,22,"female","R",6,4,1,"Id","immoralSelf","H","h",1,0.418,"Bad","Self"
"02-May-2018_15:07:10",7302,22,"female","R",6,4,2,"Id","moralOther","J","j",1,0.5001,"Good","Other"
"02-May-2018_15:07:11",7302,22,"female","R",6,4,3,"Id","immoralOther","J","j",1,0.5143,"Bad","Other"
"02-May-2018_15:07:13",7302,22,"female","R",6,4,4,"Id","immoralOther","J","j",1,0.5563,"Bad","Other"
"02-May-2018_15:07:15",7302,22,"female","R",6,4,5,"Id","moralSelf","H","h",1,0.5485,"Good","Self"
"02-May-2018_15:07:17",7302,22,"female","R",6,4,6,"Id","immoralSelf","H","h",1,0.5085,"Bad","Self"
"02-May-2018_15:07:19",7302,22,"female","R",6,4,7,"Id","moralOther","J","j",1,0.4946,"Good","Other"
"02-May-2018_15:07:20",7302,22,"female","R",6,4,8,"Id","moralSelf","H","h",1,0.4007,"Good","Self"
"02-May-2018_15:07:22",7302,22,"female","R",6,4,9,"Id","immoralSelf","H","h",1,0.4808,"Bad","Self"
"02-May-2018_15:07:24",7302,22,"female","R",6,4,10,"Id","moralSelf","H","h",1,0.5129,"Good","Self"
"02-May-2018_15:07:25",7302,22,"female","R",6,4,11,"Id","moralSelf","H","h",1,0.479,"Good","Self"
"02-May-2018_15:07:27",7302,22,"female","R",6,4,12,"Id","moralOther","J","j",1,0.5892,"Good","Other"
"02-May-2018_15:07:28",7302,22,"female","R",6,4,13,"Id","moralSelf","H","h",1,0.4512,"Good","Self"
"02-May-2018_15:07:30",7302,22,"female","R",6,4,14,"Id","moralOther","J","j",1,0.4373,"Good","Other"
"02-May-2018_15:07:32",7302,22,"female","R",6,4,15,"Id","immoralSelf","H","h",1,0.4434,"Bad","Self"
"02-May-2018_15:07:34",7302,22,"female","R",6,4,16,"Id","moralOther","J","j",1,0.4855,"Good","Other"
"02-May-2018_15:07:35",7302,22,"female","R",6,4,17,"Id","immoralOther","J","j",1,0.5395,"Bad","Other"
"02-May-2018_15:07:37",7302,22,"female","R",6,4,18,"Id","immoralSelf","H","h",1,0.4517,"Bad","Self"
"02-May-2018_15:07:38",7302,22,"female","R",6,4,19,"Id","immoralOther","J","j",1,0.4637,"Bad","Other"
"02-May-2018_15:07:40",7302,22,"female","R",6,4,20,"Id","immoralSelf","H","h",1,0.4941,"Bad","Self"
"02-May-2018_15:07:42",7302,22,"female","R",6,4,21,"Id","immoralOther","J","j",1,0.4699,"Bad","Other"
"02-May-2018_15:07:43",7302,22,"female","R",6,4,22,"Id","immoralOther","J","j",1,0.512,"Bad","Other"
"02-May-2018_15:07:45",7302,22,"female","R",6,4,23,"Id","moralOther","J","j",1,0.6461,"Good","Other"
"02-May-2018_15:07:47",7302,22,"female","R",6,4,24,"Id","moralSelf","H","h",1,0.4822,"Good","Self"
"02-May-2018_15:07:55",7302,22,"female","R",6,5,1,"Id","moralOther","J","j",1,0.5127,"Good","Other"
"02-May-2018_15:07:56",7302,22,"female","R",6,5,2,"Id","moralOther","J","j",1,0.4068,"Good","Other"
"02-May-2018_15:07:58",7302,22,"female","R",6,5,3,"Id","immoralOther","J","j",1,0.4929,"Bad","Other"
"02-May-2018_15:07:59",7302,22,"female","R",6,5,4,"Id","immoralOther","J","j",1,0.411,"Bad","Other"
"02-May-2018_15:08:01",7302,22,"female","R",6,5,5,"Id","immoralSelf","H","h",1,0.443,"Bad","Self"
"02-May-2018_15:08:02",7302,22,"female","R",6,5,6,"Id","moralOther","J","j",1,0.581,"Good","Other"
"02-May-2018_15:08:04",7302,22,"female","R",6,5,7,"Id","moralOther","J","j",1,0.4953,"Good","Other"
"02-May-2018_15:08:06",7302,22,"female","R",6,5,8,"Id","moralSelf","H","h",1,0.4512,"Good","Self"
"02-May-2018_15:08:07",7302,22,"female","R",6,5,9,"Id","immoralSelf","H","h",1,0.4734,"Bad","Self"
"02-May-2018_15:08:09",7302,22,"female","R",6,5,10,"Id","immoralSelf","H","h",1,0.4255,"Bad","Self"
"02-May-2018_15:08:10",7302,22,"female","R",6,5,11,"Id","immoralOther","J","j",1,0.4456,"Bad","Other"
"02-May-2018_15:08:12",7302,22,"female","R",6,5,12,"Id","immoralSelf","H","j",0,0.3936,"Bad","Self"
"02-May-2018_15:08:14",7302,22,"female","R",6,5,13,"Id","moralSelf","H","h",1,0.5037,"Good","Self"
"02-May-2018_15:08:16",7302,22,"female","R",6,5,14,"Id","immoralOther","J","j",1,0.4319,"Bad","Other"
"02-May-2018_15:08:17",7302,22,"female","R",6,5,15,"Id","immoralSelf","H","h",1,0.396,"Bad","Self"
"02-May-2018_15:08:19",7302,22,"female","R",6,5,16,"Id","immoralOther","J","j",1,0.526,"Bad","Other"
"02-May-2018_15:08:21",7302,22,"female","R",6,5,17,"Id","moralOther","J","j",1,0.5202,"Good","Other"
"02-May-2018_15:08:23",7302,22,"female","R",6,5,18,"Id","immoralSelf","H","h",1,0.4442,"Bad","Self"
"02-May-2018_15:08:24",7302,22,"female","R",6,5,19,"Id","moralSelf","H","h",1,0.4963,"Good","Self"
"02-May-2018_15:08:26",7302,22,"female","R",6,5,20,"Id","moralSelf","H","h",1,0.4705,"Good","Self"
"02-May-2018_15:08:28",7302,22,"female","R",6,5,21,"Id","moralSelf","H","h",1,0.4286,"Good","Self"
"02-May-2018_15:08:30",7302,22,"female","R",6,5,22,"Id","immoralOther","J","j",1,0.4787,"Bad","Other"
"02-May-2018_15:08:31",7302,22,"female","R",6,5,23,"Id","moralOther","J","j",1,0.5768,"Good","Other"
"02-May-2018_15:08:33",7302,22,"female","R",6,5,24,"Id","moralSelf","H","h",1,0.5608,"Good","Self"
"02-May-2018_14:41:57",7303,28,"male","R",1,1,1,"Val","immoralOther","Y",NA,-1,1.0411,"Bad","Other"
"02-May-2018_14:42:00",7303,28,"male","R",1,1,2,"Val","moralSelf","U","u",1,0.9437,"Good","Self"
"02-May-2018_14:42:02",7303,28,"male","R",1,1,3,"Val","immoralSelf","Y",NA,-1,1.0411,"Bad","Self"
"02-May-2018_14:42:04",7303,28,"male","R",1,1,4,"Val","moralSelf","U","u",1,0.8422,"Good","Self"
"02-May-2018_14:42:06",7303,28,"male","R",1,1,5,"Val","moralOther","U","u",1,0.7972,"Good","Other"
"02-May-2018_14:42:08",7303,28,"male","R",1,1,6,"Val","moralSelf","U","u",1,0.5963,"Good","Self"
"02-May-2018_14:42:10",7303,28,"male","R",1,1,7,"Val","immoralSelf","Y","y",1,0.9446,"Bad","Self"
"02-May-2018_14:42:12",7303,28,"male","R",1,1,8,"Val","moralOther","U","u",1,0.7385,"Good","Other"
"02-May-2018_14:42:14",7303,28,"male","R",1,1,9,"Val","immoralSelf","Y","y",1,0.718,"Bad","Self"
"02-May-2018_14:42:16",7303,28,"male","R",1,1,10,"Val","immoralOther","Y","y",1,0.8249,"Bad","Other"
"02-May-2018_14:42:18",7303,28,"male","R",1,1,11,"Val","immoralSelf","Y","u",0,0.9106,"Bad","Self"
"02-May-2018_14:42:20",7303,28,"male","R",1,1,12,"Val","moralSelf","U","u",1,0.6613,"Good","Self"
"02-May-2018_14:42:22",7303,28,"male","R",1,1,13,"Val","immoralOther","Y","y",1,0.6839,"Bad","Other"
"02-May-2018_14:42:24",7303,28,"male","R",1,1,14,"Val","immoralSelf","Y","u",0,0.8078,"Bad","Self"
"02-May-2018_14:42:26",7303,28,"male","R",1,1,15,"Val","moralOther","U","u",1,0.6446,"Good","Other"
"02-May-2018_14:42:27",7303,28,"male","R",1,1,16,"Val","moralOther","U","u",1,0.6005,"Good","Other"
"02-May-2018_14:42:29",7303,28,"male","R",1,1,17,"Val","immoralOther","Y","y",1,0.6272,"Bad","Other"
"02-May-2018_14:42:31",7303,28,"male","R",1,1,18,"Val","immoralOther","Y","y",1,0.6833,"Bad","Other"
"02-May-2018_14:42:33",7303,28,"male","R",1,1,19,"Val","moralOther","U","u",1,0.6576,"Good","Other"
"02-May-2018_14:42:35",7303,28,"male","R",1,1,20,"Val","immoralSelf","Y","y",1,0.884,"Bad","Self"
"02-May-2018_14:42:37",7303,28,"male","R",1,1,21,"Val","immoralOther","Y","y",1,0.7146,"Bad","Other"
"02-May-2018_14:42:38",7303,28,"male","R",1,1,22,"Val","moralSelf","U","u",1,0.6117,"Good","Self"
"02-May-2018_14:42:40",7303,28,"male","R",1,1,23,"Val","moralOther","U","u",1,0.6757,"Good","Other"
"02-May-2018_14:42:42",7303,28,"male","R",1,1,24,"Val","moralSelf","U","u",1,0.5107,"Good","Self"
"02-May-2018_14:42:43",7303,28,"male","R",1,2,1,"Val","immoralSelf","Y","y",1,0.5541,"Bad","Self"
"02-May-2018_14:42:45",7303,28,"male","R",1,2,2,"Val","moralOther","U","u",1,0.6529,"Good","Other"
"02-May-2018_14:42:47",7303,28,"male","R",1,2,3,"Val","immoralOther","Y","y",1,0.6365,"Bad","Other"
"02-May-2018_14:42:49",7303,28,"male","R",1,2,4,"Val","immoralSelf","Y","y",1,0.7307,"Bad","Self"
"02-May-2018_14:42:51",7303,28,"male","R",1,2,5,"Val","immoralSelf","Y","y",1,0.5294,"Bad","Self"
"02-May-2018_14:42:53",7303,28,"male","R",1,2,6,"Val","moralSelf","U","u",1,0.5605,"Good","Self"
"02-May-2018_14:42:55",7303,28,"male","R",1,2,7,"Val","immoralOther","Y","y",1,0.7455,"Bad","Other"
"02-May-2018_14:42:57",7303,28,"male","R",1,2,8,"Val","moralSelf","U","u",1,0.5475,"Good","Self"
"02-May-2018_14:42:59",7303,28,"male","R",1,2,9,"Val","immoralSelf","Y","y",1,0.8135,"Bad","Self"
"02-May-2018_14:43:01",7303,28,"male","R",1,2,10,"Val","moralOther","U","u",1,0.757,"Good","Other"
"02-May-2018_14:43:02",7303,28,"male","R",1,2,11,"Val","moralOther","U","u",1,0.7924,"Good","Other"
"02-May-2018_14:43:04",7303,28,"male","R",1,2,12,"Val","immoralOther","Y","y",1,0.6616,"Bad","Other"
"02-May-2018_14:43:06",7303,28,"male","R",1,2,13,"Val","immoralSelf","Y","u",0,0.5531,"Bad","Self"
"02-May-2018_14:43:08",7303,28,"male","R",1,2,14,"Val","immoralOther","Y","u",0,0.852,"Bad","Other"
"02-May-2018_14:43:10",7303,28,"male","R",1,2,15,"Val","moralOther","U","y",0,0.5943,"Good","Other"
"02-May-2018_14:43:12",7303,28,"male","R",1,2,16,"Val","moralOther","U","u",1,0.6037,"Good","Other"
"02-May-2018_14:43:14",7303,28,"male","R",1,2,17,"Val","moralSelf","U",NA,-1,1.0411,"Good","Self"
"02-May-2018_14:43:15",7303,28,"male","R",1,2,18,"Val","moralSelf","U","u",1,0.6118,"Good","Self"
"02-May-2018_14:43:17",7303,28,"male","R",1,2,19,"Val","immoralOther","Y","y",1,0.5704,"Bad","Other"
"02-May-2018_14:43:19",7303,28,"male","R",1,2,20,"Val","moralSelf","U","u",1,0.5484,"Good","Self"
"02-May-2018_14:43:21",7303,28,"male","R",1,2,21,"Val","immoralSelf","Y","y",1,0.7057,"Bad","Self"
"02-May-2018_14:43:23",7303,28,"male","R",1,2,22,"Val","moralSelf","U","u",1,0.7133,"Good","Self"
"02-May-2018_14:43:25",7303,28,"male","R",1,2,23,"Val","moralOther","U","u",1,0.7915,"Good","Other"
"02-May-2018_14:43:26",7303,28,"male","R",1,2,24,"Val","immoralOther","Y","y",1,0.5902,"Bad","Other"
"02-May-2018_14:43:33",7303,28,"male","R",1,3,1,"Val","moralOther","U","u",1,0.5071,"Good","Other"
"02-May-2018_14:43:34",7303,28,"male","R",1,3,2,"Val","immoralSelf","Y","y",1,0.5948,"Bad","Self"
"02-May-2018_14:43:36",7303,28,"male","R",1,3,3,"Val","immoralOther","Y","y",1,0.6274,"Bad","Other"
"02-May-2018_14:43:38",7303,28,"male","R",1,3,4,"Val","immoralSelf","Y","u",0,0.6329,"Bad","Self"
"02-May-2018_14:43:40",7303,28,"male","R",1,3,5,"Val","immoralSelf","Y","u",0,0.4252,"Bad","Self"
"02-May-2018_14:43:41",7303,28,"male","R",1,3,6,"Val","moralOther","U","u",1,0.4642,"Good","Other"
"02-May-2018_14:43:43",7303,28,"male","R",1,3,7,"Val","moralOther","U","u",1,0.4506,"Good","Other"
"02-May-2018_14:43:45",7303,28,"male","R",1,3,8,"Val","immoralSelf","Y","u",0,0.4836,"Bad","Self"
"02-May-2018_14:43:47",7303,28,"male","R",1,3,9,"Val","moralOther","U","u",1,0.5322,"Good","Other"
"02-May-2018_14:43:49",7303,28,"male","R",1,3,10,"Val","immoralOther","Y","y",1,0.6504,"Bad","Other"
"02-May-2018_14:43:50",7303,28,"male","R",1,3,11,"Val","moralSelf","U","u",1,0.5296,"Good","Self"
"02-May-2018_14:43:52",7303,28,"male","R",1,3,12,"Val","moralSelf","U","u",1,0.531,"Good","Self"
"02-May-2018_14:43:54",7303,28,"male","R",1,3,13,"Val","moralSelf","U","u",1,0.4939,"Good","Self"
"02-May-2018_14:43:56",7303,28,"male","R",1,3,14,"Val","immoralSelf","Y","u",0,0.4403,"Bad","Self"
"02-May-2018_14:43:58",7303,28,"male","R",1,3,15,"Val","immoralOther","Y","y",1,0.6964,"Bad","Other"
"02-May-2018_14:43:59",7303,28,"male","R",1,3,16,"Val","moralOther","U","u",1,0.6089,"Good","Other"
"02-May-2018_14:44:01",7303,28,"male","R",1,3,17,"Val","immoralOther","Y","y",1,0.6523,"Bad","Other"
"02-May-2018_14:44:03",7303,28,"male","R",1,3,18,"Val","moralSelf","U","u",1,0.5865,"Good","Self"
"02-May-2018_14:44:05",7303,28,"male","R",1,3,19,"Val","moralOther","U","u",1,0.5447,"Good","Other"
"02-May-2018_14:44:07",7303,28,"male","R",1,3,20,"Val","immoralOther","Y","y",1,0.6031,"Bad","Other"
"02-May-2018_14:44:09",7303,28,"male","R",1,3,21,"Val","moralSelf","U","u",1,0.575,"Good","Self"
"02-May-2018_14:44:11",7303,28,"male","R",1,3,22,"Val","immoralSelf","Y","y",1,0.7708,"Bad","Self"
"02-May-2018_14:44:12",7303,28,"male","R",1,3,23,"Val","moralSelf","U","u",1,0.6029,"Good","Self"
"02-May-2018_14:44:15",7303,28,"male","R",1,3,24,"Val","immoralOther","Y","u",0,0.8909,"Bad","Other"
"02-May-2018_14:44:17",7303,28,"male","R",1,4,1,"Val","moralSelf","U","u",1,0.5725,"Good","Self"
"02-May-2018_14:44:19",7303,28,"male","R",1,4,2,"Val","immoralSelf","Y","u",0,0.6954,"Bad","Self"
"02-May-2018_14:44:20",7303,28,"male","R",1,4,3,"Val","immoralOther","Y","y",1,0.7072,"Bad","Other"
"02-May-2018_14:44:22",7303,28,"male","R",1,4,4,"Val","moralOther","U","u",1,0.6282,"Good","Other"
"02-May-2018_14:44:24",7303,28,"male","R",1,4,5,"Val","immoralSelf","Y",NA,-1,1.0411,"Bad","Self"
"02-May-2018_14:44:26",7303,28,"male","R",1,4,6,"Val","moralSelf","U","u",1,0.6741,"Good","Self"
"02-May-2018_14:44:28",7303,28,"male","R",1,4,7,"Val","moralOther","U","u",1,0.6666,"Good","Other"
"02-May-2018_14:44:30",7303,28,"male","R",1,4,8,"Val","immoralSelf","Y","u",0,0.6996,"Bad","Self"
"02-May-2018_14:44:31",7303,28,"male","R",1,4,9,"Val","moralSelf","U","u",1,0.5524,"Good","Self"
"02-May-2018_14:44:33",7303,28,"male","R",1,4,10,"Val","immoralOther","Y","y",1,0.5053,"Bad","Other"
"02-May-2018_14:44:35",7303,28,"male","R",1,4,11,"Val","moralOther","U","u",1,0.7007,"Good","Other"
"02-May-2018_14:44:37",7303,28,"male","R",1,4,12,"Val","immoralSelf","Y","u",0,0.9327,"Bad","Self"
"02-May-2018_14:44:39",7303,28,"male","R",1,4,13,"Val","immoralOther","Y","y",1,0.5339,"Bad","Other"
"02-May-2018_14:44:40",7303,28,"male","R",1,4,14,"Val","moralOther","U","u",1,0.6446,"Good","Other"
"02-May-2018_14:44:42",7303,28,"male","R",1,4,15,"Val","immoralOther","Y","y",1,0.6338,"Bad","Other"
"02-May-2018_14:44:44",7303,28,"male","R",1,4,16,"Val","moralOther","U","u",1,0.5971,"Good","Other"
"02-May-2018_14:44:46",7303,28,"male","R",1,4,17,"Val","moralOther","U","u",1,0.7718,"Good","Other"
"02-May-2018_14:44:48",7303,28,"male","R",1,4,18,"Val","immoralOther","Y","y",1,0.635,"Bad","Other"
"02-May-2018_14:44:50",7303,28,"male","R",1,4,19,"Val","moralSelf","U","u",1,0.5809,"Good","Self"
"02-May-2018_14:44:52",7303,28,"male","R",1,4,20,"Val","moralSelf","U","u",1,0.8968,"Good","Self"
"02-May-2018_14:44:54",7303,28,"male","R",1,4,21,"Val","immoralOther","Y","y",1,0.7726,"Bad","Other"
"02-May-2018_14:44:56",7303,28,"male","R",1,4,22,"Val","immoralSelf","Y","y",1,0.6545,"Bad","Self"
"02-May-2018_14:44:57",7303,28,"male","R",1,4,23,"Val","immoralSelf","Y","y",1,0.4584,"Bad","Self"
"02-May-2018_14:44:59",7303,28,"male","R",1,4,24,"Val","moralSelf","U","u",1,0.5276,"Good","Self"
"02-May-2018_14:46:11",7303,28,"male","R",1,5,1,"Val","immoralOther","Y","y",1,0.4816,"Bad","Other"
"02-May-2018_14:46:13",7303,28,"male","R",1,5,2,"Val","moralOther","U","u",1,0.6201,"Good","Other"
"02-May-2018_14:46:15",7303,28,"male","R",1,5,3,"Val","moralSelf","U","u",1,0.4913,"Good","Self"
"02-May-2018_14:46:17",7303,28,"male","R",1,5,4,"Val","immoralOther","Y","y",1,0.5326,"Bad","Other"
"02-May-2018_14:46:18",7303,28,"male","R",1,5,5,"Val","moralSelf","U","u",1,0.5475,"Good","Self"
"02-May-2018_14:46:20",7303,28,"male","R",1,5,6,"Val","immoralOther","Y","y",1,0.5588,"Bad","Other"
"02-May-2018_14:46:22",7303,28,"male","R",1,5,7,"Val","moralSelf","U","u",1,0.4991,"Good","Self"
"02-May-2018_14:46:23",7303,28,"male","R",1,5,8,"Val","immoralSelf","Y","y",1,0.6366,"Bad","Self"
"02-May-2018_14:46:25",7303,28,"male","R",1,5,9,"Val","moralOther","U","u",1,0.5777,"Good","Other"
"02-May-2018_14:46:27",7303,28,"male","R",1,5,10,"Val","moralSelf","U","u",1,0.5173,"Good","Self"
"02-May-2018_14:46:29",7303,28,"male","R",1,5,11,"Val","moralOther","U","u",1,0.5163,"Good","Other"
"02-May-2018_14:46:31",7303,28,"male","R",1,5,12,"Val","immoralSelf","Y","y",1,0.6016,"Bad","Self"
"02-May-2018_14:46:32",7303,28,"male","R",1,5,13,"Val","immoralOther","Y","y",1,0.7536,"Bad","Other"
"02-May-2018_14:46:34",7303,28,"male","R",1,5,14,"Val","moralSelf","U","u",1,0.5094,"Good","Self"
"02-May-2018_14:46:36",7303,28,"male","R",1,5,15,"Val","moralOther","U","u",1,0.5068,"Good","Other"
"02-May-2018_14:46:38",7303,28,"male","R",1,5,16,"Val","immoralSelf","Y","y",1,0.5639,"Bad","Self"
"02-May-2018_14:46:39",7303,28,"male","R",1,5,17,"Val","immoralOther","Y","y",1,0.5713,"Bad","Other"
"02-May-2018_14:46:41",7303,28,"male","R",1,5,18,"Val","immoralSelf","Y","y",1,0.5314,"Bad","Self"
"02-May-2018_14:46:43",7303,28,"male","R",1,5,19,"Val","moralOther","U","u",1,0.6077,"Good","Other"
"02-May-2018_14:46:45",7303,28,"male","R",1,5,20,"Val","immoralSelf","Y",NA,-1,1.0411,"Bad","Self"
"02-May-2018_14:46:47",7303,28,"male","R",1,5,21,"Val","immoralSelf","Y","y",1,0.6925,"Bad","Self"
"02-May-2018_14:46:49",7303,28,"male","R",1,5,22,"Val","moralSelf","U","u",1,0.4822,"Good","Self"
"02-May-2018_14:46:50",7303,28,"male","R",1,5,23,"Val","immoralOther","Y","y",1,0.5403,"Bad","Other"
"02-May-2018_14:46:52",7303,28,"male","R",1,5,24,"Val","moralOther","U","u",1,0.5954,"Good","Other"
"02-May-2018_14:49:11",7303,28,"male","R",2,1,1,"Id","immoralOther","H","h",1,0.7554,"Bad","Other"
"02-May-2018_14:49:13",7303,28,"male","R",2,1,2,"Id","immoralOther","H","h",1,0.7306,"Bad","Other"
"02-May-2018_14:49:15",7303,28,"male","R",2,1,3,"Id","moralSelf","J","j",1,0.9471,"Good","Self"
"02-May-2018_14:49:16",7303,28,"male","R",2,1,4,"Id","immoralSelf","J","j",1,0.6144,"Bad","Self"
"02-May-2018_14:49:18",7303,28,"male","R",2,1,5,"Id","moralOther","H","h",1,0.705,"Good","Other"
"02-May-2018_14:49:20",7303,28,"male","R",2,1,6,"Id","moralSelf","J","j",1,0.4955,"Good","Self"
"02-May-2018_14:49:22",7303,28,"male","R",2,1,7,"Id","immoralSelf","J","h",0,0.6515,"Bad","Self"
"02-May-2018_14:49:24",7303,28,"male","R",2,1,8,"Id","moralOther","H","h",1,0.9071,"Good","Other"
"02-May-2018_14:49:25",7303,28,"male","R",2,1,9,"Id","moralSelf","J","j",1,0.6012,"Good","Self"
"02-May-2018_14:49:27",7303,28,"male","R",2,1,10,"Id","immoralOther","H","h",1,0.7604,"Bad","Other"
"02-May-2018_14:49:29",7303,28,"male","R",2,1,11,"Id","moralOther","H","h",1,0.6838,"Good","Other"
"02-May-2018_14:49:31",7303,28,"male","R",2,1,12,"Id","immoralOther","H","h",1,0.5869,"Bad","Other"
"02-May-2018_14:49:32",7303,28,"male","R",2,1,13,"Id","moralOther","H","h",1,0.8317,"Good","Other"
"02-May-2018_14:49:34",7303,28,"male","R",2,1,14,"Id","immoralOther","H","h",1,0.6012,"Bad","Other"
"02-May-2018_14:49:36",7303,28,"male","R",2,1,15,"Id","moralSelf","J","j",1,0.6215,"Good","Self"
"02-May-2018_14:49:38",7303,28,"male","R",2,1,16,"Id","immoralOther","H","h",1,0.6823,"Bad","Other"
"02-May-2018_14:49:40",7303,28,"male","R",2,1,17,"Id","moralOther","H","h",1,0.632,"Good","Other"
"02-May-2018_14:49:42",7303,28,"male","R",2,1,18,"Id","immoralSelf","J","h",0,0.6593,"Bad","Self"
"02-May-2018_14:49:44",7303,28,"male","R",2,1,19,"Id","moralOther","H","h",1,0.7146,"Good","Other"
"02-May-2018_14:49:45",7303,28,"male","R",2,1,20,"Id","immoralSelf","J","j",1,0.5814,"Bad","Self"
"02-May-2018_14:49:47",7303,28,"male","R",2,1,21,"Id","immoralSelf","J","j",1,0.4991,"Bad","Self"
"02-May-2018_14:49:49",7303,28,"male","R",2,1,22,"Id","moralSelf","J","j",1,0.5896,"Good","Self"
"02-May-2018_14:49:50",7303,28,"male","R",2,1,23,"Id","moralSelf","J","j",1,0.544,"Good","Self"
"02-May-2018_14:49:52",7303,28,"male","R",2,1,24,"Id","immoralSelf","J","j",1,0.6128,"Bad","Self"
"02-May-2018_14:49:54",7303,28,"male","R",2,2,1,"Id","moralSelf","J","j",1,0.5267,"Good","Self"
"02-May-2018_14:49:56",7303,28,"male","R",2,2,2,"Id","moralOther","H","h",1,0.4571,"Good","Other"
"02-May-2018_14:49:57",7303,28,"male","R",2,2,3,"Id","moralOther","H","h",1,0.5009,"Good","Other"
"02-May-2018_14:49:59",7303,28,"male","R",2,2,4,"Id","immoralOther","H","h",1,0.5776,"Bad","Other"
"02-May-2018_14:50:01",7303,28,"male","R",2,2,5,"Id","immoralOther","H","h",1,0.4828,"Bad","Other"
"02-May-2018_14:50:03",7303,28,"male","R",2,2,6,"Id","immoralSelf","J","j",1,0.5995,"Bad","Self"
"02-May-2018_14:50:05",7303,28,"male","R",2,2,7,"Id","moralOther","H","j",0,0.9558,"Good","Other"
"02-May-2018_14:50:07",7303,28,"male","R",2,2,8,"Id","immoralOther","H","h",1,0.7504,"Bad","Other"
"02-May-2018_14:50:08",7303,28,"male","R",2,2,9,"Id","moralSelf","J","j",1,0.6765,"Good","Self"
"02-May-2018_14:50:10",7303,28,"male","R",2,2,10,"Id","immoralSelf","J","j",1,0.5905,"Bad","Self"
"02-May-2018_14:50:12",7303,28,"male","R",2,2,11,"Id","moralOther","H","j",0,0.7797,"Good","Other"
"02-May-2018_14:50:14",7303,28,"male","R",2,2,12,"Id","moralSelf","J","j",1,0.5571,"Good","Self"
"02-May-2018_14:50:16",7303,28,"male","R",2,2,13,"Id","moralSelf","J","j",1,0.8095,"Good","Self"
"02-May-2018_14:50:18",7303,28,"male","R",2,2,14,"Id","immoralSelf","J","j",1,0.7837,"Bad","Self"
"02-May-2018_14:50:20",7303,28,"male","R",2,2,15,"Id","immoralOther","H","h",1,0.5536,"Bad","Other"
"02-May-2018_14:50:22",7303,28,"male","R",2,2,16,"Id","moralSelf","J","h",0,0.7773,"Good","Self"
"02-May-2018_14:50:23",7303,28,"male","R",2,2,17,"Id","moralOther","H","h",1,0.6768,"Good","Other"
"02-May-2018_14:50:25",7303,28,"male","R",2,2,18,"Id","immoralSelf","J","j",1,0.6216,"Bad","Self"
"02-May-2018_14:50:27",7303,28,"male","R",2,2,19,"Id","immoralOther","H","h",1,0.5747,"Bad","Other"
"02-May-2018_14:50:29",7303,28,"male","R",2,2,20,"Id","immoralSelf","J","j",1,0.5677,"Bad","Self"
"02-May-2018_14:50:31",7303,28,"male","R",2,2,21,"Id","moralSelf","J","j",1,0.5235,"Good","Self"
"02-May-2018_14:50:32",7303,28,"male","R",2,2,22,"Id","immoralSelf","J","j",1,0.6421,"Bad","Self"
"02-May-2018_14:50:34",7303,28,"male","R",2,2,23,"Id","moralOther","H","j",0,0.8235,"Good","Other"
"02-May-2018_14:50:36",7303,28,"male","R",2,2,24,"Id","immoralOther","H",NA,-1,1.0412,"Bad","Other"
"02-May-2018_14:50:42",7303,28,"male","R",2,3,1,"Id","moralOther","H","j",0,0.8007,"Good","Other"
"02-May-2018_14:50:44",7303,28,"male","R",2,3,2,"Id","immoralSelf","J","j",1,0.7381,"Bad","Self"
"02-May-2018_14:50:45",7303,28,"male","R",2,3,3,"Id","immoralOther","H","h",1,0.6432,"Bad","Other"
"02-May-2018_14:50:47",7303,28,"male","R",2,3,4,"Id","moralSelf","J","j",1,0.5529,"Good","Self"
"02-May-2018_14:50:49",7303,28,"male","R",2,3,5,"Id","moralOther","H","h",1,0.6123,"Good","Other"
"02-May-2018_14:50:51",7303,28,"male","R",2,3,6,"Id","moralSelf","J","j",1,0.7733,"Good","Self"
"02-May-2018_14:50:53",7303,28,"male","R",2,3,7,"Id","immoralOther","H","h",1,0.5856,"Bad","Other"
"02-May-2018_14:50:54",7303,28,"male","R",2,3,8,"Id","immoralOther","H","h",1,0.4577,"Bad","Other"
"02-May-2018_14:50:56",7303,28,"male","R",2,3,9,"Id","moralOther","H","h",1,0.7585,"Good","Other"
"02-May-2018_14:50:58",7303,28,"male","R",2,3,10,"Id","immoralSelf","J","j",1,0.6027,"Bad","Self"
"02-May-2018_14:51:00",7303,28,"male","R",2,3,11,"Id","moralSelf","J","j",1,0.5501,"Good","Self"
"02-May-2018_14:51:02",7303,28,"male","R",2,3,12,"Id","moralSelf","J","j",1,0.473,"Good","Self"
"02-May-2018_14:51:03",7303,28,"male","R",2,3,13,"Id","immoralOther","H","h",1,0.6402,"Bad","Other"
"02-May-2018_14:51:05",7303,28,"male","R",2,3,14,"Id","moralOther","H","h",1,0.5827,"Good","Other"
"02-May-2018_14:51:07",7303,28,"male","R",2,3,15,"Id","moralSelf","J","j",1,0.6153,"Good","Self"
"02-May-2018_14:51:09",7303,28,"male","R",2,3,16,"Id","immoralOther","H","h",1,0.6442,"Bad","Other"
"02-May-2018_14:51:11",7303,28,"male","R",2,3,17,"Id","immoralSelf","J","j",1,0.584,"Bad","Self"
"02-May-2018_14:51:12",7303,28,"male","R",2,3,18,"Id","immoralSelf","J","j",1,0.4061,"Bad","Self"
"02-May-2018_14:51:14",7303,28,"male","R",2,3,19,"Id","moralOther","H","h",1,0.7667,"Good","Other"
"02-May-2018_14:51:16",7303,28,"male","R",2,3,20,"Id","immoralSelf","J","j",1,0.5697,"Bad","Self"
"02-May-2018_14:51:18",7303,28,"male","R",2,3,21,"Id","moralSelf","J","j",1,0.4629,"Good","Self"
"02-May-2018_14:51:19",7303,28,"male","R",2,3,22,"Id","immoralOther","H","j",0,0.7359,"Bad","Other"
"02-May-2018_14:51:21",7303,28,"male","R",2,3,23,"Id","immoralSelf","J","h",0,0.8978,"Bad","Self"
"02-May-2018_14:51:23",7303,28,"male","R",2,3,24,"Id","moralOther","H","h",1,0.6937,"Good","Other"
"02-May-2018_14:51:25",7303,28,"male","R",2,4,1,"Id","immoralOther","H","h",1,0.7399,"Bad","Other"
"02-May-2018_14:51:27",7303,28,"male","R",2,4,2,"Id","immoralSelf","J","j",1,0.6873,"Bad","Self"
"02-May-2018_14:51:29",7303,28,"male","R",2,4,3,"Id","moralSelf","J","j",1,0.4944,"Good","Self"
"02-May-2018_14:51:31",7303,28,"male","R",2,4,4,"Id","moralSelf","J","j",1,0.6912,"Good","Self"
"02-May-2018_14:51:32",7303,28,"male","R",2,4,5,"Id","moralSelf","J","j",1,0.4777,"Good","Self"
"02-May-2018_14:51:34",7303,28,"male","R",2,4,6,"Id","immoralSelf","J","j",1,0.5342,"Bad","Self"
"02-May-2018_14:51:36",7303,28,"male","R",2,4,7,"Id","immoralOther","H","h",1,0.5634,"Bad","Other"
"02-May-2018_14:51:38",7303,28,"male","R",2,4,8,"Id","immoralOther","H","h",1,0.5937,"Bad","Other"
"02-May-2018_14:51:39",7303,28,"male","R",2,4,9,"Id","moralOther","H","h",1,0.6788,"Good","Other"
"02-May-2018_14:51:41",7303,28,"male","R",2,4,10,"Id","immoralSelf","J","j",1,0.597,"Bad","Self"
"02-May-2018_14:51:43",7303,28,"male","R",2,4,11,"Id","moralOther","H","h",1,0.567,"Good","Other"
"02-May-2018_14:51:45",7303,28,"male","R",2,4,12,"Id","immoralOther","H","h",1,0.6503,"Bad","Other"
"02-May-2018_14:51:46",7303,28,"male","R",2,4,13,"Id","moralOther","H","h",1,0.5647,"Good","Other"
"02-May-2018_14:51:48",7303,28,"male","R",2,4,14,"Id","immoralOther","H","h",1,0.5486,"Bad","Other"
"02-May-2018_14:51:49",7303,28,"male","R",2,4,15,"Id","moralOther","H","h",1,0.5314,"Good","Other"
"02-May-2018_14:51:51",7303,28,"male","R",2,4,16,"Id","immoralOther","H","h",1,0.4821,"Bad","Other"
"02-May-2018_14:51:53",7303,28,"male","R",2,4,17,"Id","immoralSelf","J","j",1,0.5712,"Bad","Self"
"02-May-2018_14:51:55",7303,28,"male","R",2,4,18,"Id","immoralSelf","J","j",1,0.5704,"Bad","Self"
"02-May-2018_14:51:56",7303,28,"male","R",2,4,19,"Id","moralSelf","J","j",1,0.61,"Good","Self"
"02-May-2018_14:51:58",7303,28,"male","R",2,4,20,"Id","immoralSelf","J","j",1,0.3811,"Bad","Self"
"02-May-2018_14:51:59",7303,28,"male","R",2,4,21,"Id","moralOther","H","j",0,0.4039,"Good","Other"
"02-May-2018_14:52:01",7303,28,"male","R",2,4,22,"Id","moralSelf","J","h",0,0.4825,"Good","Self"
"02-May-2018_14:52:03",7303,28,"male","R",2,4,23,"Id","moralOther","H","h",1,0.6074,"Good","Other"
"02-May-2018_14:52:05",7303,28,"male","R",2,4,24,"Id","moralSelf","J","j",1,0.4819,"Good","Self"
"02-May-2018_14:52:09",7303,28,"male","R",2,5,1,"Id","immoralOther","H","h",1,0.8231,"Bad","Other"
"02-May-2018_14:52:11",7303,28,"male","R",2,5,2,"Id","immoralOther","H","h",1,0.411,"Bad","Other"
"02-May-2018_14:52:13",7303,28,"male","R",2,5,3,"Id","moralOther","H","h",1,0.5838,"Good","Other"
"02-May-2018_14:52:14",7303,28,"male","R",2,5,4,"Id","moralSelf","J","j",1,0.4751,"Good","Self"
"02-May-2018_14:52:16",7303,28,"male","R",2,5,5,"Id","immoralSelf","J","j",1,0.4851,"Bad","Self"
"02-May-2018_14:52:17",7303,28,"male","R",2,5,6,"Id","immoralSelf","J","j",1,0.4936,"Bad","Self"
"02-May-2018_14:52:19",7303,28,"male","R",2,5,7,"Id","immoralSelf","J","j",1,0.4617,"Bad","Self"
"02-May-2018_14:52:21",7303,28,"male","R",2,5,8,"Id","moralSelf","J","j",1,0.842,"Good","Self"
"02-May-2018_14:52:23",7303,28,"male","R",2,5,9,"Id","moralSelf","J","j",1,0.3508,"Good","Self"
"02-May-2018_14:52:24",7303,28,"male","R",2,5,10,"Id","moralSelf","J","j",1,0.3923,"Good","Self"
"02-May-2018_14:52:26",7303,28,"male","R",2,5,11,"Id","moralSelf","J","j",1,0.3123,"Good","Self"
"02-May-2018_14:52:27",7303,28,"male","R",2,5,12,"Id","immoralOther","H","h",1,0.5829,"Bad","Other"
"02-May-2018_14:52:29",7303,28,"male","R",2,5,13,"Id","moralSelf","J","j",1,0.63,"Good","Self"
"02-May-2018_14:52:31",7303,28,"male","R",2,5,14,"Id","immoralOther","H","h",1,0.7224,"Bad","Other"
"02-May-2018_14:52:33",7303,28,"male","R",2,5,15,"Id","immoralSelf","J","h",0,0.6294,"Bad","Self"
"02-May-2018_14:52:35",7303,28,"male","R",2,5,16,"Id","immoralSelf","J","j",1,0.4369,"Bad","Self"
"02-May-2018_14:52:37",7303,28,"male","R",2,5,17,"Id","moralOther","H","h",1,0.8299,"Good","Other"
"02-May-2018_14:52:39",7303,28,"male","R",2,5,18,"Id","moralOther","H","h",1,0.8079,"Good","Other"
"02-May-2018_14:52:41",7303,28,"male","R",2,5,19,"Id","moralOther","H","h",1,0.4546,"Good","Other"
"02-May-2018_14:52:43",7303,28,"male","R",2,5,20,"Id","immoralSelf","J","j",1,0.4636,"Bad","Self"
"02-May-2018_14:52:44",7303,28,"male","R",2,5,21,"Id","immoralOther","H","h",1,0.6481,"Bad","Other"
"02-May-2018_14:52:46",7303,28,"male","R",2,5,22,"Id","moralOther","H","j",0,0.7061,"Good","Other"
"02-May-2018_14:52:48",7303,28,"male","R",2,5,23,"Id","immoralOther","H","h",1,0.7109,"Bad","Other"
"02-May-2018_14:52:50",7303,28,"male","R",2,5,24,"Id","moralOther","H","h",1,0.5228,"Good","Other"
"02-May-2018_14:54:52",7303,28,"male","R",3,1,1,"Val","immoralOther","Y","y",1,0.6108,"Bad","Other"
"02-May-2018_14:54:54",7303,28,"male","R",3,1,2,"Val","immoralSelf","Y","y",1,0.8388,"Bad","Self"
"02-May-2018_14:54:56",7303,28,"male","R",3,1,3,"Val","moralSelf","U","u",1,0.6202,"Good","Self"
"02-May-2018_14:54:58",7303,28,"male","R",3,1,4,"Val","moralSelf","U","u",1,0.537,"Good","Self"
"02-May-2018_14:54:59",7303,28,"male","R",3,1,5,"Val","immoralOther","Y","y",1,0.5266,"Bad","Other"
"02-May-2018_14:55:01",7303,28,"male","R",3,1,6,"Val","moralOther","U","u",1,0.8124,"Good","Other"
"02-May-2018_14:55:03",7303,28,"male","R",3,1,7,"Val","moralSelf","U","u",1,0.6082,"Good","Self"
"02-May-2018_14:55:05",7303,28,"male","R",3,1,8,"Val","immoralSelf","Y","y",1,0.751,"Bad","Self"
"02-May-2018_14:55:06",7303,28,"male","R",3,1,9,"Val","immoralSelf","Y","y",1,0.4132,"Bad","Self"
"02-May-2018_14:55:08",7303,28,"male","R",3,1,10,"Val","immoralSelf","Y","y",1,0.4396,"Bad","Self"
"02-May-2018_14:55:10",7303,28,"male","R",3,1,11,"Val","moralOther","U","u",1,0.7125,"Good","Other"
"02-May-2018_14:55:11",7303,28,"male","R",3,1,12,"Val","moralSelf","U","u",1,0.5507,"Good","Self"
"02-May-2018_14:55:13",7303,28,"male","R",3,1,13,"Val","moralSelf","U","u",1,0.5705,"Good","Self"
"02-May-2018_14:55:15",7303,28,"male","R",3,1,14,"Val","moralSelf","U","u",1,0.7231,"Good","Self"
"02-May-2018_14:55:17",7303,28,"male","R",3,1,15,"Val","immoralOther","Y","y",1,0.6714,"Bad","Other"
"02-May-2018_14:55:18",7303,28,"male","R",3,1,16,"Val","immoralOther","Y","y",1,0.4794,"Bad","Other"
"02-May-2018_14:55:20",7303,28,"male","R",3,1,17,"Val","immoralOther","Y","y",1,0.4598,"Bad","Other"
"02-May-2018_14:55:22",7303,28,"male","R",3,1,18,"Val","immoralSelf","Y","u",0,0.5517,"Bad","Self"
"02-May-2018_14:55:23",7303,28,"male","R",3,1,19,"Val","moralOther","U","u",1,0.5395,"Good","Other"
"02-May-2018_14:55:25",7303,28,"male","R",3,1,20,"Val","moralOther","U","u",1,0.5545,"Good","Other"
"02-May-2018_14:55:26",7303,28,"male","R",3,1,21,"Val","moralOther","U","u",1,0.3462,"Good","Other"
"02-May-2018_14:55:28",7303,28,"male","R",3,1,22,"Val","immoralSelf","Y","y",1,0.5645,"Bad","Self"
"02-May-2018_14:55:30",7303,28,"male","R",3,1,23,"Val","moralOther","U","u",1,0.5218,"Good","Other"
"02-May-2018_14:55:31",7303,28,"male","R",3,1,24,"Val","immoralOther","Y","y",1,0.5425,"Bad","Other"
"02-May-2018_14:55:33",7303,28,"male","R",3,2,1,"Val","immoralOther","Y","y",1,0.4103,"Bad","Other"
"02-May-2018_14:55:35",7303,28,"male","R",3,2,2,"Val","moralOther","U","u",1,0.4915,"Good","Other"
"02-May-2018_14:55:37",7303,28,"male","R",3,2,3,"Val","immoralOther","Y","y",1,0.5447,"Bad","Other"
"02-May-2018_14:55:38",7303,28,"male","R",3,2,4,"Val","moralSelf","U","u",1,0.444,"Good","Self"
"02-May-2018_14:55:40",7303,28,"male","R",3,2,5,"Val","moralSelf","U","u",1,0.3811,"Good","Self"
"02-May-2018_14:55:41",7303,28,"male","R",3,2,6,"Val","immoralSelf","Y","y",1,0.6234,"Bad","Self"
"02-May-2018_14:55:43",7303,28,"male","R",3,2,7,"Val","immoralSelf","Y","y",1,0.4546,"Bad","Self"
"02-May-2018_14:55:45",7303,28,"male","R",3,2,8,"Val","moralOther","U","u",1,0.4796,"Good","Other"
"02-May-2018_14:55:46",7303,28,"male","R",3,2,9,"Val","immoralSelf","Y","y",1,0.53,"Bad","Self"
"02-May-2018_14:55:48",7303,28,"male","R",3,2,10,"Val","moralOther","U","u",1,0.6214,"Good","Other"
"02-May-2018_14:55:50",7303,28,"male","R",3,2,11,"Val","moralSelf","U","u",1,0.8797,"Good","Self"
"02-May-2018_14:55:52",7303,28,"male","R",3,2,12,"Val","immoralOther","Y","y",1,0.5491,"Bad","Other"
"02-May-2018_14:55:54",7303,28,"male","R",3,2,13,"Val","immoralSelf","Y","u",0,0.5501,"Bad","Self"
"02-May-2018_14:55:55",7303,28,"male","R",3,2,14,"Val","immoralSelf","Y","y",1,0.4354,"Bad","Self"
"02-May-2018_14:55:57",7303,28,"male","R",3,2,15,"Val","moralSelf","U","u",1,0.5041,"Good","Self"
"02-May-2018_14:55:59",7303,28,"male","R",3,2,16,"Val","immoralOther","Y","y",1,0.6482,"Bad","Other"
